date,subj,session,cycle,task,trial,item,wf,type,source,colour,encoding,bias,null,response,corr,rt,points,total
2019_Mar_27,1,001,0,source,0,SUBJECT,HF,target,right,yellow,imageability,liberal,yes,None,-1,-1,-,-
2019_Mar_27,1,001,0,source,1,LIVED,HF,target,left,aqua,pleasantness,conservative,no,None,-1,-1,-,-
2019_Mar_27,1,001,0,source,2,THANK,HF,target,left,aqua,pleasantness,conservative,no,None,-1,-1,-,-
2019_Mar_27,1,001,0,source,3,CIVILITY,LF,target,left,aqua,pleasantness,conservative,no,None,-1,-1,-,-
2019_Mar_27,1,001,0,source,4,PEACEABLY,LF,target,right,yellow,imageability,conservative,yes,1,0,4.0787147867,-,-
2019_Mar_27,1,001,0,source,5,USING,HF,target,right,yellow,imageability,liberal,no,None,-1,-1,-,-
2019_Mar_27,1,001,0,source,6,COUNCIL,HF,target,right,yellow,imageability,conservative,no,None,-1,-1,-,-
2019_Mar_27,1,001,0,source,7,GIVEN,HF,target,right,yellow,imageability,liberal,no,None,-1,-1,-,-
2019_Mar_27,1,001,0,source,8,LAUNCHER,LF,target,right,yellow,imageability,liberal,no,2,0,6.34419338543,-,-
2019_Mar_27,1,001,0,source,9,CAKED,LF,target,right,yellow,imageability,liberal,no,2,0,1.85298273219,-,-
2019_Mar_27,1,001,0,source,10,HESITATES,LF,target,left,aqua,pleasantness,conservative,no,2,1,1.06664469483,-,-
2019_Mar_27,1,001,0,source,11,OMELETTE,LF,target,left,aqua,pleasantness,liberal,no,2,1,0.653464743995,-,-
2019_Mar_27,1,001,0,source,12,THEORY,HF,target,right,yellow,imageability,liberal,no,8,1,1.73300952366,-,-
2019_Mar_27,1,001,0,source,13,PLEASE,HF,target,left,aqua,pleasantness,liberal,no,9,0,3.63892996898,-,-
2019_Mar_27,1,001,0,source,14,ROYALS,LF,target,left,aqua,pleasantness,liberal,no,1,1,2.71904738512,-,-
2019_Mar_27,1,001,0,source,15,FARAWAY,LF,target,left,aqua,pleasantness,conservative,no,9,0,2.18591035636,-,-
2019_Mar_27,1,001,0,source,16,DRINK,HF,target,right,yellow,imageability,liberal,no,9,1,1.26685446602,-,-
2019_Mar_27,1,001,0,source,17,YEARN,LF,target,right,yellow,imageability,conservative,no,8,1,2.27944330349,-,-
2019_Mar_27,1,001,0,source,18,AEGIS,LF,target,left,aqua,pleasantness,liberal,no,1,1,1.67948414325,-,-
2019_Mar_27,1,001,0,source,19,EITHER,HF,target,left,aqua,pleasantness,liberal,no,1,1,1.30634512016,-,-
2019_Mar_27,1,001,0,source,20,DINER,LF,target,right,yellow,imageability,liberal,no,9,1,1.26651608991,-,-
2019_Mar_27,1,001,0,source,21,TOOTHACHE,LF,target,right,yellow,imageability,liberal,no,9,1,0.866928740119,-,-
2019_Mar_27,1,001,0,source,22,TRYING,HF,target,left,aqua,pleasantness,liberal,no,1,1,1.2799000929,-,-
2019_Mar_27,1,001,0,source,23,PROBABLY,HF,target,left,aqua,pleasantness,liberal,yes,2,1,2.74594260291,-,-
2019_Mar_27,1,001,0,source,24,DOSSIERS,LF,target,left,aqua,pleasantness,conservative,no,1,1,1.63981935189,-,-
2019_Mar_27,1,001,0,source,25,SOVIET,HF,target,left,aqua,pleasantness,conservative,no,1,1,1.14645892891,-,-
2019_Mar_27,1,001,0,source,26,FAKING,LF,target,right,yellow,imageability,conservative,no,9,1,2.3460392399,-,-
2019_Mar_27,1,001,0,source,27,ADDED,HF,target,right,yellow,imageability,conservative,no,9,1,1.05325849221,-,-
2019_Mar_27,1,001,0,source,28,NUANCE,LF,target,left,aqua,pleasantness,liberal,no,8,0,2.13300490444,-,-
2019_Mar_27,1,001,0,source,29,WHATEVER,HF,target,right,yellow,imageability,conservative,no,2,0,3.51898718863,-,-
2019_Mar_27,1,001,0,source,30,HEEDED,LF,target,left,aqua,pleasantness,liberal,no,1,1,1.83938206585,-,-
2019_Mar_27,1,001,0,source,31,QUALITY,HF,target,left,aqua,pleasantness,conservative,no,2,1,1.49316025683,-,-
2019_Mar_27,1,001,0,source,32,SOMEONE,HF,target,right,yellow,imageability,liberal,no,9,1,1.33321797507,-,-
2019_Mar_27,1,001,0,source,33,CONCERNED,HF,target,right,yellow,imageability,conservative,yes,8,1,1.45312482815,-,-
2019_Mar_27,1,001,0,source,34,DISARMED,LF,target,left,aqua,pleasantness,liberal,no,1,1,2.2128568988,-,-
2019_Mar_27,1,001,0,source,35,FASCINATE,LF,target,right,yellow,imageability,conservative,no,9,1,1.7863644329,-,-
2019_Mar_27,1,001,0,source,36,AGNOSTIC,LF,target,right,yellow,imageability,liberal,no,1,0,1.30658341319,-,-
2019_Mar_27,1,001,0,source,37,BUILDING,HF,target,left,aqua,pleasantness,conservative,no,1,1,0.840093645495,-,-
2019_Mar_27,1,001,0,source,38,WEEKS,HF,target,left,aqua,pleasantness,liberal,no,1,1,0.74686131419,-,-
2019_Mar_27,1,001,0,source,39,BRACES,LF,target,left,aqua,pleasantness,conservative,no,1,1,0.866711343555,-,-
2019_Mar_27,1,001,0,source,40,SIZZLING,LF,target,right,yellow,imageability,liberal,no,2,0,2.11979027281,-,-
2019_Mar_27,1,001,0,source,41,WOMAN,HF,target,right,yellow,imageability,conservative,no,8,1,2.01293051302,-,-
2019_Mar_27,1,001,0,source,42,ROUND,HF,target,right,yellow,imageability,conservative,no,8,1,1.03974544439,-,-
2019_Mar_27,1,001,0,source,43,GUARDSMEN,LF,target,right,yellow,imageability,conservative,no,9,1,1.07975154469,-,-
2019_Mar_27,1,001,0,source,44,CHURCH,HF,target,left,aqua,pleasantness,conservative,no,1,1,1.01335284159,-,-
2019_Mar_27,1,001,0,source,45,TUMBLER,LF,target,right,yellow,imageability,conservative,no,8,1,1.39984140682,-,-
2019_Mar_27,1,001,0,source,46,OLDER,HF,target,left,aqua,pleasantness,liberal,no,8,0,1.1330177356,-,-
2019_Mar_27,1,001,0,source,47,YELLOWED,LF,target,left,aqua,pleasantness,conservative,no,2,1,3.26603107194,-,-
2019_Mar_27,1,001,0,recog,0,COUNCIL,HF,target,right,yellow,imageability,conservative,no,m,0,2.47909510238,-1,-1
2019_Mar_27,1,001,0,recog,1,TOOTHACHE,LF,target,right,yellow,imageability,liberal,no,m,0,3.89216617163,-3,-4
2019_Mar_27,1,001,0,recog,2,ADDED,HF,target,right,yellow,imageability,conservative,no,z,1,4.27870349528,1,-3
2019_Mar_27,1,001,0,recog,3,SIZZLING,LF,target,right,yellow,imageability,liberal,no,z,1,2.89253277629,3,0
2019_Mar_27,1,001,0,recog,4,MENFOLK,LF,lure,-,-,-,conservative,no,z,0,3.22573572056,-3,-3
2019_Mar_27,1,001,0,recog,5,TOUSLED,LF,lure,-,-,-,conservative,no,m,1,1.34660161145,3,0
2019_Mar_27,1,001,0,recog,6,TOWARDS,HF,lure,-,-,-,conservative,no,m,1,2.35942214307,3,3
2019_Mar_27,1,001,0,recog,7,AIRBED,LF,lure,-,-,-,liberal,no,m,1,1.67968724223,1,4
2019_Mar_27,1,001,0,recog,8,QUALITY,HF,target,left,aqua,pleasantness,conservative,no,m,0,2.21279127657,-1,3
2019_Mar_27,1,001,0,recog,9,NETTLE,LF,lure,-,-,-,conservative,no,z,0,2.43939255074,-3,0
2019_Mar_27,1,001,0,recog,10,GEOLOGIST,LF,lure,-,-,-,conservative,no,m,1,1.3199142585,3,3
2019_Mar_27,1,001,0,recog,11,TEACUP,LF,lure,-,-,-,liberal,no,m,1,1.15986786102,1,4
2019_Mar_27,1,001,0,recog,12,ORIGINALS,LF,lure,-,-,-,conservative,no,m,1,1.08007562321,3,7
2019_Mar_27,1,001,0,recog,13,IGNOBLE,LF,lure,-,-,-,liberal,no,m,1,1.30650642621,1,8
2019_Mar_27,1,001,0,recog,14,LETTER,HF,lure,-,-,-,liberal,no,m,1,1.09340573531,1,9
2019_Mar_27,1,001,0,recog,15,DINER,LF,target,right,yellow,imageability,liberal,no,m,0,0.880142271937,-3,6
2019_Mar_27,1,001,0,recog,16,CONCERNED,HF,target,right,yellow,imageability,conservative,no,m,0,1.86607528447,-1,5
2019_Mar_27,1,001,0,recog,17,WHATEVER,HF,target,right,yellow,imageability,conservative,no,z,1,1.67969604074,1,6
2019_Mar_27,1,001,0,recog,18,BEYOND,HF,lure,-,-,-,conservative,no,z,0,2.43938998451,-3,3
2019_Mar_27,1,001,0,recog,19,SLYLY,LF,lure,-,-,-,liberal,no,m,1,1.13323366575,1,4
2019_Mar_27,1,001,0,recog,20,NUANCE,LF,target,left,aqua,pleasantness,liberal,no,m,0,0.853355935733,-3,1
2019_Mar_27,1,001,0,recog,21,TABLE,HF,lure,-,-,-,conservative,no,m,1,1.11995084565,3,4
2019_Mar_27,1,001,0,recog,22,CUPID,LF,lure,-,-,-,conservative,no,z,0,1.91962669381,-3,1
2019_Mar_27,1,001,0,recog,23,SPACE,HF,lure,-,-,-,liberal,no,m,1,0.800058583425,1,2
2019_Mar_27,1,001,0,recog,24,FAKING,LF,target,right,yellow,imageability,conservative,no,m,0,0.760216355407,-1,1
2019_Mar_27,1,001,0,recog,25,ACIDITY,LF,lure,-,-,-,liberal,no,m,1,0.800163065755,1,2
2019_Mar_27,1,001,0,recog,26,AEGIS,LF,target,left,aqua,pleasantness,liberal,no,m,0,3.59893999928,-3,-1
2019_Mar_27,1,001,0,recog,27,VALUE,HF,lure,-,-,-,conservative,no,z,0,0.706758430259,-3,-4
2019_Mar_27,1,001,0,recog,28,THANK,HF,target,left,aqua,pleasantness,conservative,no,m,0,0.786494944155,-1,-5
2019_Mar_27,1,001,0,recog,29,BEHIND,HF,lure,-,-,-,liberal,no,m,1,0.906421593894,1,-4
2019_Mar_27,1,001,0,recog,30,SYSTEM,HF,lure,-,-,-,conservative,no,m,1,0.320253001209,3,-1
2019_Mar_27,1,001,0,recog,31,ROUND,HF,target,right,yellow,imageability,conservative,no,m,0,0.933295548612,-1,-2
2019_Mar_27,1,001,0,recog,32,UNDER,HF,lure,-,-,-,conservative,no,z,0,1.46645567346,-3,-5
2019_Mar_27,1,001,0,recog,33,DOSSIERS,LF,target,left,aqua,pleasantness,conservative,no,z,1,0.853292879732,1,-4
2019_Mar_27,1,001,0,recog,34,CIVILITY,LF,target,left,aqua,pleasantness,conservative,no,m,0,1.46678011859,-1,-5
2019_Mar_27,1,001,0,recog,35,SANDAL,LF,lure,-,-,-,conservative,no,m,1,1.15994448139,3,-2
2019_Mar_27,1,001,0,recog,36,NIGHT,HF,lure,-,-,-,conservative,no,z,0,2.95908545335,-3,-5
2019_Mar_27,1,001,0,recog,37,DISARMED,LF,target,left,aqua,pleasantness,liberal,no,m,0,1.33318534725,-3,-8
2019_Mar_27,1,001,0,recog,38,CENTRAL,HF,lure,-,-,-,liberal,no,z,0,2.25283697017,-1,-9
2019_Mar_27,1,001,0,recog,39,LANGUAGE,HF,lure,-,-,-,liberal,no,z,0,1.43986657057,-1,-10
2019_Mar_27,1,001,0,recog,40,SOVIET,HF,target,left,aqua,pleasantness,conservative,no,m,0,1.30650349338,-1,-11
2019_Mar_27,1,001,0,recog,41,BUILDING,HF,target,left,aqua,pleasantness,conservative,no,m,0,0.266973979134,-1,-12
2019_Mar_27,1,001,0,recog,42,DRINK,HF,target,right,yellow,imageability,liberal,no,z,1,1.70634050094,3,-9
2019_Mar_27,1,001,0,recog,43,ROYALS,LF,target,left,aqua,pleasantness,liberal,no,z,1,1.01298843655,3,-6
2019_Mar_27,1,001,0,recog,44,RUDIMENTS,LF,lure,-,-,-,liberal,no,z,0,1.53313152969,-1,-7
2019_Mar_27,1,001,0,recog,45,TROUBLE,HF,lure,-,-,-,liberal,no,m,1,1.62639502239,1,-6
2019_Mar_27,1,001,0,recog,46,USING,HF,target,right,yellow,imageability,liberal,no,m,0,1.53294529452,-3,-9
2019_Mar_27,1,001,0,recog,47,EITHER,HF,target,left,aqua,pleasantness,liberal,no,z,1,1.2932536677,3,-6
2019_Mar_27,1,001,0,recog,48,CHURCH,HF,target,left,aqua,pleasantness,conservative,no,z,1,1.49282957942,1,-5
2019_Mar_27,1,001,0,recog,49,OLDER,HF,target,left,aqua,pleasantness,liberal,no,z,1,1.13326702677,3,-2
2019_Mar_27,1,001,0,recog,50,SPRATS,LF,lure,-,-,-,conservative,no,m,1,1.54649940207,3,1
2019_Mar_27,1,001,0,recog,51,MAKES,HF,lure,-,-,-,conservative,no,m,1,1.58615649473,3,4
2019_Mar_27,1,001,0,recog,52,NADIR,LF,lure,-,-,-,conservative,no,z,0,1.26685593243,-3,1
2019_Mar_27,1,001,0,recog,53,OOZED,LF,lure,-,-,-,liberal,no,m,1,1.07993191418,1,2
2019_Mar_27,1,001,0,recog,54,GREATER,HF,lure,-,-,-,conservative,no,m,1,1.1600790253,3,5
2019_Mar_27,1,001,0,recog,55,YEARN,LF,target,right,yellow,imageability,conservative,no,m,0,1.33319854502,-1,4
2019_Mar_27,1,001,0,recog,56,LIVED,HF,target,left,aqua,pleasantness,conservative,no,z,1,1.54652213156,1,5
2019_Mar_27,1,001,0,recog,57,FARAWAY,LF,target,left,aqua,pleasantness,conservative,no,z,1,1.79961169234,1,6
2019_Mar_27,1,001,0,recog,58,BRACES,LF,target,left,aqua,pleasantness,conservative,no,m,0,1.51975375898,-1,5
2019_Mar_27,1,001,0,recog,59,YELLOWED,LF,target,left,aqua,pleasantness,conservative,no,z,1,1.08038723717,1,6
2019_Mar_27,1,001,0,recog,60,LUCERNE,LF,lure,-,-,-,conservative,no,z,0,3.11920333874,-3,3
2019_Mar_27,1,001,0,recog,61,SUBJECT,HF,target,right,yellow,imageability,liberal,no,m,0,1.06665276013,-3,0
2019_Mar_27,1,001,0,recog,62,DUELLING,LF,lure,-,-,-,liberal,no,m,1,1.23987749539,1,1
2019_Mar_27,1,001,0,recog,63,MONEY,HF,lure,-,-,-,liberal,no,m,1,1.21351788701,1,2
2019_Mar_27,1,001,0,recog,64,HESITATES,LF,target,left,aqua,pleasantness,conservative,no,m,0,0.973029628256,-1,1
2019_Mar_27,1,001,0,recog,65,SITTING,HF,lure,-,-,-,liberal,no,m,1,0.893553037062,1,2
2019_Mar_27,1,001,0,recog,66,GUARDSMEN,LF,target,right,yellow,imageability,conservative,yes,m,0,2.46596662285,-1,1
2019_Mar_27,1,001,0,recog,67,FELLS,LF,lure,-,-,-,conservative,yes,z,0,0.826475015525,-3,-2
2019_Mar_27,1,001,0,recog,68,ATTACK,HF,lure,-,-,-,liberal,no,m,1,1.41318141725,1,-1
2019_Mar_27,1,001,0,recog,69,HEEDED,LF,target,left,aqua,pleasantness,liberal,no,m,0,1.77281252497,-3,-4
2019_Mar_27,1,001,0,recog,70,AGNOSTIC,LF,target,right,yellow,imageability,liberal,no,m,0,0.946994831607,-3,-7
2019_Mar_27,1,001,0,recog,71,PEEKED,LF,lure,-,-,-,liberal,no,z,0,0.773419988898,-1,-8
2019_Mar_27,1,001,0,recog,72,WOMAN,HF,target,right,yellow,imageability,conservative,no,z,1,1.25335424935,1,-7
2019_Mar_27,1,001,0,recog,73,UNCANNILY,LF,lure,-,-,-,liberal,no,z,0,1.90635817129,-1,-8
2019_Mar_27,1,001,0,recog,74,OMELETTE,LF,target,left,aqua,pleasantness,liberal,no,m,0,1.16007425944,-3,-11
2019_Mar_27,1,001,0,recog,75,THOUSAND,HF,lure,-,-,-,liberal,no,m,1,0.92006185354,1,-10
2019_Mar_27,1,001,0,recog,76,VANDALS,LF,lure,-,-,-,liberal,no,m,1,1.51983037935,1,-9
2019_Mar_27,1,001,0,recog,77,SOMEONE,HF,target,right,yellow,imageability,liberal,no,m,0,1.22646856328,-3,-12
2019_Mar_27,1,001,0,recog,78,EMPATHY,LF,lure,-,-,-,conservative,yes,z,0,1.46650406528,-3,-15
2019_Mar_27,1,001,0,recog,79,TRYING,HF,target,left,aqua,pleasantness,liberal,no,m,0,1.62632243467,-3,-18
2019_Mar_27,1,001,0,recog,80,THEORY,HF,target,right,yellow,imageability,liberal,no,z,1,1.49309976706,3,-15
2019_Mar_27,1,001,0,recog,81,PEACEABLY,LF,target,right,yellow,imageability,conservative,no,m,0,4.5585031385,-1,-16
2019_Mar_27,1,001,0,recog,82,VIBRATE,LF,lure,-,-,-,liberal,no,z,0,1.54639381992,-1,-17
2019_Mar_27,1,001,0,recog,83,BUSINESS,HF,lure,-,-,-,conservative,no,m,1,1.47981108129,3,-14
2019_Mar_27,1,001,0,recog,84,SOCIAL,HF,lure,-,-,-,conservative,no,m,1,1.17356384457,3,-11
2019_Mar_27,1,001,0,recog,85,ALLOWED,HF,lure,-,-,-,liberal,yes,m,1,1.63973833226,1,-10
2019_Mar_27,1,001,0,recog,86,TUMBLER,LF,target,right,yellow,imageability,conservative,no,m,0,3.87886355488,-1,-11
2019_Mar_27,1,001,0,recog,87,LAUNCHER,LF,target,right,yellow,imageability,liberal,no,m,0,2.57271603463,-3,-14
2019_Mar_27,1,001,0,recog,88,WEEKS,HF,target,left,aqua,pleasantness,liberal,no,z,1,2.01269661925,3,-11
2019_Mar_27,1,001,0,recog,89,CAKED,LF,target,right,yellow,imageability,liberal,no,z,1,1.21332138691,3,-8
2019_Mar_27,1,001,0,recog,90,PROBABLY,HF,target,left,aqua,pleasantness,liberal,no,z,1,1.42651592861,3,-5
2019_Mar_27,1,001,0,recog,91,PLEASE,HF,target,left,aqua,pleasantness,liberal,no,m,0,1.38630856235,-3,-8
2019_Mar_27,1,001,0,recog,92,ANSWER,HF,lure,-,-,-,liberal,no,z,0,1.6530402158,-1,-9
2019_Mar_27,1,001,0,recog,93,FASCINATE,LF,target,right,yellow,imageability,conservative,no,m,0,1.07991505037,-1,-10
2019_Mar_27,1,001,0,recog,94,GIVEN,HF,target,right,yellow,imageability,liberal,no,z,1,2.5327311974,3,-7
2019_Mar_27,1,001,0,recog,95,BASIC,HF,lure,-,-,-,conservative,no,z,0,1.70635809797,-3,-10
2019_Mar_27,1,001,1,source,0,ANNALS,LF,target,left,aqua,pleasantness,conservative,no,8,0,2.38610143071,-,-
2019_Mar_27,1,001,1,source,1,SAYING,HF,target,right,yellow,imageability,liberal,no,9,1,1.73306671398,-,-
2019_Mar_27,1,001,1,source,2,TEMERITY,LF,target,left,aqua,pleasantness,liberal,yes,8,0,1.38652192626,-,-
2019_Mar_27,1,001,1,source,3,CUBED,LF,target,right,yellow,imageability,conservative,no,9,1,2.43939145093,-,-
2019_Mar_27,1,001,1,source,4,STOOD,HF,target,left,aqua,pleasantness,conservative,no,2,1,2.47917685522,-,-
2019_Mar_27,1,001,1,source,5,UNPACK,LF,target,right,yellow,imageability,liberal,no,8,1,2.95927242172,-,-
2019_Mar_27,1,001,1,source,6,DEGREE,HF,target,left,aqua,pleasantness,liberal,no,1,1,1.46643184416,-,-
2019_Mar_27,1,001,1,source,7,ELICIT,LF,target,left,aqua,pleasantness,conservative,no,1,1,1.34623427358,-,-
2019_Mar_27,1,001,1,source,8,EARLIER,HF,target,left,aqua,pleasantness,conservative,no,1,1,1.13321313588,-,-
2019_Mar_27,1,001,1,source,9,WHOLE,HF,target,right,yellow,imageability,conservative,no,8,1,2.14594054992,-,-
2019_Mar_27,1,001,1,source,10,AUGMENT,LF,target,left,aqua,pleasantness,conservative,yes,8,0,1.45314205857,-,-
2019_Mar_27,1,001,1,source,11,GYMKHANA,LF,target,right,yellow,imageability,conservative,no,9,1,1.27990412555,-,-
2019_Mar_27,1,001,1,source,12,FATHER,HF,target,left,aqua,pleasantness,conservative,no,1,1,1.50653252846,-,-
2019_Mar_27,1,001,1,source,13,DUCHY,LF,target,left,aqua,pleasantness,conservative,no,2,1,2.33188316749,-,-
2019_Mar_27,1,001,1,source,14,GALACTIC,LF,target,right,yellow,imageability,liberal,no,9,1,1.31991719134,-,-
2019_Mar_27,1,001,1,source,15,GANGWAY,LF,target,right,yellow,imageability,liberal,yes,8,1,2.02621773237,-,-
2019_Mar_27,1,001,1,source,16,OFFER,HF,target,left,aqua,pleasantness,conservative,no,8,0,2.66596009728,-,-
2019_Mar_27,1,001,1,source,17,SCOFFED,LF,target,left,aqua,pleasantness,liberal,no,1,1,1.81297479886,-,-
2019_Mar_27,1,001,1,source,18,ENVIRONS,LF,target,right,yellow,imageability,liberal,no,9,1,1.37327246718,-,-
2019_Mar_27,1,001,1,source,19,MOTHER,HF,target,right,yellow,imageability,liberal,no,9,1,0.720054448124,-,-
2019_Mar_27,1,001,1,source,20,DIFFERENT,HF,target,right,yellow,imageability,conservative,no,9,1,1.54656795714,-,-
2019_Mar_27,1,001,1,source,21,APPEARED,HF,target,left,aqua,pleasantness,liberal,no,1,1,0.919994764885,-,-
2019_Mar_27,1,001,1,source,22,HANDS,HF,target,right,yellow,imageability,conservative,no,9,1,0.813413624643,-,-
2019_Mar_27,1,001,1,source,23,TAILED,LF,target,left,aqua,pleasantness,conservative,no,1,1,2.09265162952,-,-
2019_Mar_27,1,001,1,source,24,KITCHEN,HF,target,right,yellow,imageability,conservative,no,9,1,0.746492876504,-,-
2019_Mar_27,1,001,1,source,25,MATERIAL,HF,target,left,aqua,pleasantness,liberal,no,1,1,0.866718675648,-,-
2019_Mar_27,1,001,1,source,26,EXHALED,LF,target,left,aqua,pleasantness,liberal,no,1,1,0.906533041711,-,-
2019_Mar_27,1,001,1,source,27,NUCLEAR,HF,target,right,yellow,imageability,conservative,no,9,1,2.14634711449,-,-
2019_Mar_27,1,001,1,source,28,ALMOST,HF,target,left,aqua,pleasantness,conservative,no,8,0,1.95964122601,-,-
2019_Mar_27,1,001,1,source,29,PAYOFF,LF,target,right,yellow,imageability,liberal,no,9,1,0.706459280853,-,-
2019_Mar_27,1,001,1,source,30,NIBBLE,LF,target,right,yellow,imageability,conservative,no,9,1,0.759831420512,-,-
2019_Mar_27,1,001,1,source,31,EVENING,HF,target,right,yellow,imageability,liberal,no,9,1,0.706641849976,-,-
2019_Mar_27,1,001,1,source,32,NIPPED,LF,target,right,yellow,imageability,conservative,no,9,1,0.733221787756,-,-
2019_Mar_27,1,001,1,source,33,GULLIBLE,LF,target,right,yellow,imageability,liberal,no,9,1,0.906389332684,-,-
2019_Mar_27,1,001,1,source,34,ABOVE,HF,target,left,aqua,pleasantness,liberal,no,1,1,1.77300829186,-,-
2019_Mar_27,1,001,1,source,35,MODERN,HF,target,left,aqua,pleasantness,liberal,no,1,1,0.760047717264,-,-
2019_Mar_27,1,001,1,source,36,FIGURE,HF,target,left,aqua,pleasantness,liberal,no,1,1,0.760066047496,-,-
2019_Mar_27,1,001,1,source,37,WEAKENS,LF,target,right,yellow,imageability,conservative,yes,2,0,1.17302310269,-,-
2019_Mar_27,1,001,1,source,38,HIVES,LF,target,left,aqua,pleasantness,conservative,no,8,0,3.09245476282,-,-
2019_Mar_27,1,001,1,source,39,TODAY,HF,target,right,yellow,imageability,liberal,no,9,1,0.920009062467,-,-
2019_Mar_27,1,001,1,source,40,REQUIRED,HF,target,right,yellow,imageability,conservative,no,8,1,2.35935542102,-,-
2019_Mar_27,1,001,1,source,41,NEITHER,HF,target,left,aqua,pleasantness,conservative,no,1,1,0.999943542882,-,-
2019_Mar_27,1,001,1,source,42,WEDGES,LF,target,left,aqua,pleasantness,liberal,no,1,1,1.2532083407,-,-
2019_Mar_27,1,001,1,source,43,SAWDUST,LF,target,right,yellow,imageability,conservative,no,8,1,2.1593945744,-,-
2019_Mar_27,1,001,1,source,44,BICEPS,LF,target,left,aqua,pleasantness,liberal,no,8,0,1.58650256953,-,-
2019_Mar_27,1,001,1,source,45,FRONT,HF,target,right,yellow,imageability,liberal,no,8,1,1.49305650771,-,-
2019_Mar_27,1,001,1,source,46,PRACTICE,HF,target,right,yellow,imageability,liberal,no,9,1,0.973263155425,-,-
2019_Mar_27,1,001,1,source,47,SQUADRONS,LF,target,left,aqua,pleasantness,liberal,no,1,1,1.63968004212,-,-
2019_Mar_27,1,001,1,recog,0,PRACTICE,HF,target,right,yellow,imageability,liberal,no,m,0,1.91966152125,-3,-13
2019_Mar_27,1,001,1,recog,1,RECENT,HF,lure,-,-,-,conservative,no,z,0,4.66499959307,-3,-16
2019_Mar_27,1,001,1,recog,2,DUCHY,LF,target,left,aqua,pleasantness,conservative,no,None,-1,-1,-1,-17
2019_Mar_27,1,001,1,recog,3,NIPPED,LF,target,right,yellow,imageability,conservative,no,z,1,2.99923196323,1,-16
2019_Mar_27,1,001,1,recog,4,KITCHEN,HF,target,right,yellow,imageability,conservative,no,m,0,0.880060152493,-1,-17
2019_Mar_27,1,001,1,recog,5,ABOVE,HF,target,left,aqua,pleasantness,liberal,no,m,0,1.39980254673,-3,-20
2019_Mar_27,1,001,1,recog,6,ANNALS,LF,target,left,aqua,pleasantness,conservative,no,m,0,1.75941899027,-1,-21
2019_Mar_27,1,001,1,recog,7,WHOLE,HF,target,right,yellow,imageability,conservative,no,z,1,1.07972221632,1,-20
2019_Mar_27,1,001,1,recog,8,POUNDS,HF,lure,-,-,-,conservative,no,z,0,0.853514675551,-3,-23
2019_Mar_27,1,001,1,recog,9,ALREADY,HF,lure,-,-,-,liberal,no,m,1,1.10660313652,1,-22
2019_Mar_27,1,001,1,recog,10,OFFER,HF,target,left,aqua,pleasantness,conservative,no,m,0,0.999970671628,-1,-23
2019_Mar_27,1,001,1,recog,11,BICEPS,LF,target,left,aqua,pleasantness,liberal,no,m,0,0.906689215297,-3,-26
2019_Mar_27,1,001,1,recog,12,HIVES,LF,target,left,aqua,pleasantness,conservative,yes,m,0,1.59978832247,-1,-27
2019_Mar_27,1,001,1,recog,13,AUGMENT,LF,target,left,aqua,pleasantness,conservative,no,m,0,2.07949968729,-1,-28
2019_Mar_27,1,001,1,recog,14,NEITHER,HF,target,left,aqua,pleasantness,conservative,no,z,1,1.11992738295,1,-27
2019_Mar_27,1,001,1,recog,15,SCOFFED,LF,target,left,aqua,pleasantness,liberal,no,z,1,1.36005490271,3,-24
2019_Mar_27,1,001,1,recog,16,LOOKED,HF,lure,-,-,-,conservative,no,z,0,1.17298240958,-3,-27
2019_Mar_27,1,001,1,recog,17,NUMBER,HF,lure,-,-,-,conservative,no,m,1,1.19996121323,3,-24
2019_Mar_27,1,001,1,recog,18,CYNIC,LF,lure,-,-,-,conservative,no,m,1,1.29305166853,3,-21
2019_Mar_27,1,001,1,recog,19,JOURNEYED,LF,lure,-,-,-,conservative,no,m,1,1.21297164606,3,-18
2019_Mar_27,1,001,1,recog,20,GALACTIC,LF,target,right,yellow,imageability,liberal,no,m,0,1.0932477287,-3,-21
2019_Mar_27,1,001,1,recog,21,VULTURE,LF,lure,-,-,-,conservative,no,z,0,1.33316408418,-3,-24
2019_Mar_27,1,001,1,recog,22,FURTHER,HF,lure,-,-,-,liberal,no,m,1,0.973091951048,1,-23
2019_Mar_27,1,001,1,recog,23,PASSED,HF,lure,-,-,-,liberal,no,m,1,0.880019825981,1,-22
2019_Mar_27,1,001,1,recog,24,MODERN,HF,target,left,aqua,pleasantness,liberal,no,m,0,0.879957136583,-3,-25
2019_Mar_27,1,001,1,recog,25,UNPACK,LF,target,right,yellow,imageability,liberal,no,m,0,0.933350905916,-3,-28
2019_Mar_27,1,001,1,recog,26,ARRIVED,HF,lure,-,-,-,conservative,no,m,1,0.773525571041,3,-25
2019_Mar_27,1,001,1,recog,27,BEAUTIFUL,HF,lure,-,-,-,conservative,no,z,0,0.693426118529,-3,-28
2019_Mar_27,1,001,1,recog,28,FIGURE,HF,target,left,aqua,pleasantness,liberal,no,z,1,1.59976266014,3,-25
2019_Mar_27,1,001,1,recog,29,DAUGHTER,HF,lure,-,-,-,liberal,no,z,0,1.01350938178,-1,-26
2019_Mar_27,1,001,1,recog,30,GYMKHANA,LF,target,right,yellow,imageability,conservative,no,m,0,1.2796647327,-1,-27
2019_Mar_27,1,001,1,recog,31,ANVIL,LF,lure,-,-,-,liberal,no,z,0,1.11994901262,-1,-28
2019_Mar_27,1,001,1,recog,32,TEMERITY,LF,target,left,aqua,pleasantness,liberal,yes,m,0,1.13329562193,-3,-31
2019_Mar_27,1,001,1,recog,33,DIFFERENT,HF,target,right,yellow,imageability,conservative,no,z,1,3.8122067621,1,-30
2019_Mar_27,1,001,1,recog,34,PAPER,HF,lure,-,-,-,liberal,no,m,1,1.53313592894,1,-29
2019_Mar_27,1,001,1,recog,35,GULLIBLE,LF,target,right,yellow,imageability,liberal,no,m,0,1.22653381891,-3,-32
2019_Mar_27,1,001,1,recog,36,STOOD,HF,target,left,aqua,pleasantness,conservative,no,z,1,1.41320524655,1,-31
2019_Mar_27,1,001,1,recog,37,BUOYANCY,LF,lure,-,-,-,liberal,no,m,1,1.94626052247,1,-30
2019_Mar_27,1,001,1,recog,38,HOURS,HF,lure,-,-,-,conservative,no,z,0,0.933387199779,-3,-33
2019_Mar_27,1,001,1,recog,39,ARDENTLY,LF,lure,-,-,-,liberal,no,m,1,1.43955898926,1,-32
2019_Mar_27,1,001,1,recog,40,NUCLEAR,HF,target,right,yellow,imageability,conservative,no,m,0,1.39955985444,-1,-33
2019_Mar_27,1,001,1,recog,41,REQUIRED,HF,target,right,yellow,imageability,conservative,no,z,1,1.57307933985,1,-32
2019_Mar_27,1,001,1,recog,42,WAKED,LF,lure,-,-,-,liberal,no,z,0,2.85257946706,-1,-33
2019_Mar_27,1,001,1,recog,43,AXLES,LF,lure,-,-,-,conservative,no,m,1,1.09331225112,3,-30
2019_Mar_27,1,001,1,recog,44,DANDELION,LF,lure,-,-,-,liberal,no,m,1,1.45310649792,1,-29
2019_Mar_27,1,001,1,recog,45,MACARONI,LF,lure,-,-,-,conservative,no,z,0,1.07995134423,-3,-32
2019_Mar_27,1,001,1,recog,46,PAYOFF,LF,target,right,yellow,imageability,liberal,no,m,0,2.49268403737,-3,-35
2019_Mar_27,1,001,1,recog,47,HANDS,HF,target,right,yellow,imageability,conservative,no,z,1,1.97296473923,1,-34
2019_Mar_27,1,001,1,recog,48,ARTIFACTS,LF,lure,-,-,-,liberal,no,z,0,1.67950467311,-1,-35
2019_Mar_27,1,001,1,recog,49,BOGEY,LF,lure,-,-,-,liberal,no,m,1,0.893384032315,1,-34
2019_Mar_27,1,001,1,recog,50,MATERIAL,HF,target,left,aqua,pleasantness,liberal,no,z,1,3.38572676075,3,-31
2019_Mar_27,1,001,1,recog,51,DRYER,LF,lure,-,-,-,liberal,no,m,1,1.31987026594,1,-30
2019_Mar_27,1,001,1,recog,52,EARLIER,HF,target,left,aqua,pleasantness,conservative,no,m,0,1.30657278166,-1,-31
2019_Mar_27,1,001,1,recog,53,VOLITION,LF,lure,-,-,-,liberal,no,m,1,0.9598289276,1,-30
2019_Mar_27,1,001,1,recog,54,EVENING,HF,target,right,yellow,imageability,liberal,no,z,1,1.17328632484,3,-27
2019_Mar_27,1,001,1,recog,55,AHEAD,HF,lure,-,-,-,liberal,no,z,0,1.34658658066,-1,-28
2019_Mar_27,1,001,1,recog,56,MOTHER,HF,target,right,yellow,imageability,liberal,no,z,1,1.53318395415,3,-25
2019_Mar_27,1,001,1,recog,57,WEDGES,LF,target,left,aqua,pleasantness,liberal,no,z,1,1.23990865678,3,-22
2019_Mar_27,1,001,1,recog,58,SWEARS,LF,lure,-,-,-,conservative,no,z,0,1.2932382703,-3,-25
2019_Mar_27,1,001,1,recog,59,WEAKENS,LF,target,right,yellow,imageability,conservative,no,z,1,1.46627493737,1,-24
2019_Mar_27,1,001,1,recog,60,SABLE,LF,lure,-,-,-,conservative,no,m,1,1.21318904263,3,-21
2019_Mar_27,1,001,1,recog,61,BREAK,HF,lure,-,-,-,liberal,no,m,1,2.14621367039,1,-20
2019_Mar_27,1,001,1,recog,62,WRONG,HF,lure,-,-,-,liberal,no,m,1,1.34650152837,1,-19
2019_Mar_27,1,001,1,recog,63,ASSERTIVE,LF,lure,-,-,-,conservative,no,m,1,1.53316269108,3,-16
2019_Mar_27,1,001,1,recog,64,EXCEPT,HF,lure,-,-,-,liberal,no,z,0,1.95975340704,-1,-17
2019_Mar_27,1,001,1,recog,65,FATHER,HF,target,left,aqua,pleasantness,conservative,no,z,1,1.29293692127,1,-16
2019_Mar_27,1,001,1,recog,66,BANALITY,LF,lure,-,-,-,conservative,yes,m,1,1.18672091927,3,-13
2019_Mar_27,1,001,1,recog,67,FRONT,HF,target,right,yellow,imageability,liberal,no,z,1,1.89293714123,3,-10
2019_Mar_27,1,001,1,recog,68,ALMOST,HF,target,left,aqua,pleasantness,conservative,no,z,1,2.99912564788,1,-9
2019_Mar_27,1,001,1,recog,69,YONDER,LF,lure,-,-,-,liberal,no,m,1,1.31985633497,1,-8
2019_Mar_27,1,001,1,recog,70,DEGREE,HF,target,left,aqua,pleasantness,liberal,yes,m,0,1.07995940953,-3,-11
2019_Mar_27,1,001,1,recog,71,CLASS,HF,lure,-,-,-,liberal,no,m,1,3.03946682484,1,-10
2019_Mar_27,1,001,1,recog,72,SAWDUST,LF,target,right,yellow,imageability,conservative,no,m,0,1.29295085225,-1,-11
2019_Mar_27,1,001,1,recog,73,COVER,HF,lure,-,-,-,liberal,no,z,0,1.07978197287,-1,-12
2019_Mar_27,1,001,1,recog,74,MOVED,HF,lure,-,-,-,conservative,no,z,0,2.10596157837,-3,-15
2019_Mar_27,1,001,1,recog,75,BODICE,LF,lure,-,-,-,conservative,no,m,1,0.946655722297,3,-12
2019_Mar_27,1,001,1,recog,76,EXHALED,LF,target,left,aqua,pleasantness,liberal,no,z,1,1.4265467234,3,-9
2019_Mar_27,1,001,1,recog,77,TRADE,HF,lure,-,-,-,conservative,no,z,0,1.45313142704,-3,-12
2019_Mar_27,1,001,1,recog,78,CUBED,LF,target,right,yellow,imageability,conservative,no,m,0,2.47917318917,-1,-13
2019_Mar_27,1,001,1,recog,79,WATCH,HF,lure,-,-,-,conservative,no,z,0,1.57310426896,-3,-16
2019_Mar_27,1,001,1,recog,80,SQUADRONS,LF,target,left,aqua,pleasantness,liberal,no,z,1,0.986409965195,3,-13
2019_Mar_27,1,001,1,recog,81,APPEARED,HF,target,left,aqua,pleasantness,liberal,no,z,1,1.78607151577,3,-10
2019_Mar_27,1,001,1,recog,82,MORNING,HF,lure,-,-,-,liberal,no,z,0,1.0532654577,-1,-11
2019_Mar_27,1,001,1,recog,83,MAPPED,LF,lure,-,-,-,liberal,no,z,0,1.91983602507,-1,-12
2019_Mar_27,1,001,1,recog,84,NIBBLE,LF,target,right,yellow,imageability,conservative,no,m,0,1.10665409457,-1,-13
2019_Mar_27,1,001,1,recog,85,PIECE,HF,lure,-,-,-,conservative,no,z,0,0.920160836797,-3,-16
2019_Mar_27,1,001,1,recog,86,TAILED,LF,target,left,aqua,pleasantness,conservative,no,m,0,1.4798279451,-1,-17
2019_Mar_27,1,001,1,recog,87,LAXATIVE,LF,lure,-,-,-,liberal,no,m,1,1.05325189333,1,-16
2019_Mar_27,1,001,1,recog,88,ELICIT,LF,target,left,aqua,pleasantness,conservative,no,m,0,1.08003456349,-1,-17
2019_Mar_27,1,001,1,recog,89,GRUBS,LF,lure,-,-,-,conservative,no,m,1,0.813455417574,3,-14
2019_Mar_27,1,001,1,recog,90,GANGWAY,LF,target,right,yellow,imageability,liberal,no,m,0,1.54616799145,-3,-17
2019_Mar_27,1,001,1,recog,91,DECIDED,HF,lure,-,-,-,conservative,no,z,0,1.2532633314,-3,-20
2019_Mar_27,1,001,1,recog,92,ENVIRONS,LF,target,right,yellow,imageability,liberal,no,z,1,1.14658504092,3,-17
2019_Mar_27,1,001,1,recog,93,SAYING,HF,target,right,yellow,imageability,liberal,no,z,1,1.35982357517,3,-14
2019_Mar_27,1,001,1,recog,94,CAMPANILE,LF,lure,-,-,-,conservative,no,m,1,1.24016454684,3,-11
2019_Mar_27,1,001,1,recog,95,TODAY,HF,target,right,yellow,imageability,liberal,no,z,1,1.30650385998,3,-8
2019_Mar_27,1,001,2,source,0,HILLSIDES,LF,target,left,aqua,pleasantness,liberal,no,9,0,6.0512678289,-,-
2019_Mar_27,1,001,2,source,1,WESTERN,HF,target,right,yellow,imageability,conservative,no,9,1,1.05303889602,-,-
2019_Mar_27,1,001,2,source,2,GEYSER,LF,target,left,aqua,pleasantness,conservative,no,2,1,1.98623656119,-,-
2019_Mar_27,1,001,2,source,3,SHORT,HF,target,right,yellow,imageability,liberal,no,9,1,2.50605667561,-,-
2019_Mar_27,1,001,2,source,4,UNTIL,HF,target,left,aqua,pleasantness,liberal,no,1,1,1.33317581553,-,-
2019_Mar_27,1,001,2,source,5,BEDLAM,LF,target,left,aqua,pleasantness,conservative,no,1,1,0.746711739486,-,-
2019_Mar_27,1,001,2,source,6,HISTORY,HF,target,right,yellow,imageability,liberal,no,9,1,0.760096475682,-,-
2019_Mar_27,1,001,2,source,7,AFTERNOON,HF,target,left,aqua,pleasantness,conservative,no,9,0,1.05307518988,-,-
2019_Mar_27,1,001,2,source,8,EXACTLY,HF,target,right,yellow,imageability,liberal,no,1,0,2.06627332431,-,-
2019_Mar_27,1,001,2,source,9,AROUND,HF,target,right,yellow,imageability,conservative,no,9,1,1.22651585529,-,-
2019_Mar_27,1,001,2,source,10,REUNITED,LF,target,right,yellow,imageability,liberal,no,9,1,1.29298494648,-,-
2019_Mar_27,1,001,2,source,11,LEARN,HF,target,left,aqua,pleasantness,conservative,no,1,1,1.26651755633,-,-
2019_Mar_27,1,001,2,source,12,FRIEND,HF,target,left,aqua,pleasantness,liberal,yes,8,0,1.29302307337,-,-
2019_Mar_27,1,001,2,source,13,KIMONO,LF,target,left,aqua,pleasantness,conservative,no,1,1,0.840005293772,-,-
2019_Mar_27,1,001,2,source,14,DORMS,LF,target,left,aqua,pleasantness,liberal,no,1,1,0.840020691167,-,-
2019_Mar_27,1,001,2,source,15,HUMAN,HF,target,right,yellow,imageability,liberal,no,9,1,1.21299437555,-,-
2019_Mar_27,1,001,2,source,16,SIGNPOST,LF,target,right,yellow,imageability,liberal,no,9,1,1.02706605556,-,-
2019_Mar_27,1,001,2,source,17,DRAFTING,LF,target,left,aqua,pleasantness,liberal,no,1,1,0.906654387854,-,-
2019_Mar_27,1,001,2,source,18,PLACE,HF,target,right,yellow,imageability,conservative,yes,2,0,0.920058187492,-,-
2019_Mar_27,1,001,2,source,19,FIXTURE,LF,target,right,yellow,imageability,liberal,no,1,0,2.38614359025,-,-
2019_Mar_27,1,001,2,source,20,PAINTWORK,LF,target,right,yellow,imageability,liberal,no,9,1,0.946455922754,-,-
2019_Mar_27,1,001,2,source,21,INCLUDING,HF,target,right,yellow,imageability,conservative,no,2,0,2.47935685811,-,-
2019_Mar_27,1,001,2,source,22,COHESIVE,LF,target,right,yellow,imageability,conservative,no,9,1,2.91928098561,-,-
2019_Mar_27,1,001,2,source,23,ENTIRELY,HF,target,left,aqua,pleasantness,conservative,no,2,1,2.57268743946,-,-
2019_Mar_27,1,001,2,source,24,REACHED,HF,target,right,yellow,imageability,conservative,yes,8,1,1.29293838769,-,-
2019_Mar_27,1,001,2,source,25,SLACKEN,LF,target,right,yellow,imageability,conservative,no,2,0,2.95919286851,-,-
2019_Mar_27,1,001,2,source,26,PREPARED,HF,target,left,aqua,pleasantness,liberal,yes,2,1,0.973370203987,-,-
2019_Mar_27,1,001,2,source,27,PICTURE,HF,target,left,aqua,pleasantness,conservative,no,8,0,2.69261298939,-,-
2019_Mar_27,1,001,2,source,28,UNABATED,LF,target,right,yellow,imageability,conservative,no,9,1,1.66618079329,-,-
2019_Mar_27,1,001,2,source,29,JAMMING,LF,target,right,yellow,imageability,liberal,no,9,1,0.78684285198,-,-
2019_Mar_27,1,001,2,source,30,COERCION,LF,target,left,aqua,pleasantness,conservative,no,9,0,0.746738135023,-,-
2019_Mar_27,1,001,2,source,31,ACTION,HF,target,right,yellow,imageability,liberal,no,2,0,1.34649309647,-,-
2019_Mar_27,1,001,2,source,32,PHYSICAL,HF,target,left,aqua,pleasantness,liberal,no,2,1,1.26635221763,-,-
2019_Mar_27,1,001,2,source,33,PISTONS,LF,target,right,yellow,imageability,liberal,no,9,1,1.02660450029,-,-
2019_Mar_27,1,001,2,source,34,GURGLE,LF,target,left,aqua,pleasantness,liberal,no,2,1,2.02625769228,-,-
2019_Mar_27,1,001,2,source,35,AVOCADO,LF,target,right,yellow,imageability,conservative,no,9,1,0.773499908715,-,-
2019_Mar_27,1,001,2,source,36,GLASS,HF,target,left,aqua,pleasantness,conservative,no,1,1,1.14656744389,-,-
2019_Mar_27,1,001,2,source,37,EJECTED,LF,target,left,aqua,pleasantness,conservative,no,1,1,0.813187429567,-,-
2019_Mar_27,1,001,2,source,38,EDUCATION,HF,target,left,aqua,pleasantness,liberal,no,1,1,0.693387991645,-,-
2019_Mar_27,1,001,2,source,39,FIELD,HF,target,left,aqua,pleasantness,conservative,no,2,1,1.39975892077,-,-
2019_Mar_27,1,001,2,source,40,LONGER,HF,target,left,aqua,pleasantness,liberal,no,1,1,1.07998213902,-,-
2019_Mar_27,1,001,2,source,41,TIDILY,LF,target,right,yellow,imageability,conservative,no,8,1,2.10530828886,-,-
2019_Mar_27,1,001,2,source,42,RAIDER,LF,target,left,aqua,pleasantness,conservative,no,8,0,1.26659674294,-,-
2019_Mar_27,1,001,2,source,43,BOWER,LF,target,right,yellow,imageability,conservative,no,9,1,1.27960754238,-,-
2019_Mar_27,1,001,2,source,44,DEBACLE,LF,target,left,aqua,pleasantness,liberal,no,8,0,1.03995990811,-,-
2019_Mar_27,1,001,2,source,45,CARRIED,HF,target,right,yellow,imageability,conservative,no,8,1,2.10618667363,-,-
2019_Mar_27,1,001,2,source,46,TWINE,LF,target,left,aqua,pleasantness,liberal,no,1,1,1.35959957973,-,-
2019_Mar_27,1,001,2,source,47,POWER,HF,target,right,yellow,imageability,liberal,no,9,1,1.35981880931,-,-
2019_Mar_27,1,001,2,recog,0,PLACE,HF,target,right,yellow,imageability,conservative,no,m,0,5.15804583585,-1,-9
2019_Mar_27,1,001,2,recog,1,SERIOUS,HF,lure,-,-,-,conservative,no,z,0,3.46544201157,-3,-12
2019_Mar_27,1,001,2,recog,2,SORRY,HF,lure,-,-,-,liberal,no,z,0,4.21202947208,-1,-13
2019_Mar_27,1,001,2,recog,3,TELEPHONE,HF,lure,-,-,-,liberal,no,m,1,0.880083981796,1,-12
2019_Mar_27,1,001,2,recog,4,UNTIL,HF,target,left,aqua,pleasantness,liberal,no,m,0,0.985067092321,-3,-15
2019_Mar_27,1,001,2,recog,5,EJECTED,LF,target,left,aqua,pleasantness,conservative,no,m,0,0.866419526244,-1,-16
2019_Mar_27,1,001,2,recog,6,REUNITED,LF,target,right,yellow,imageability,liberal,no,m,0,0.813389795338,-3,-19
2019_Mar_27,1,001,2,recog,7,PREPARED,HF,target,left,aqua,pleasantness,liberal,no,z,1,0.706631585046,3,-16
2019_Mar_27,1,001,2,recog,8,HUMAN,HF,target,right,yellow,imageability,liberal,no,z,1,1.83959176371,3,-13
2019_Mar_27,1,001,2,recog,9,ZEBRA,LF,lure,-,-,-,conservative,no,z,0,1.14679840483,-3,-16
2019_Mar_27,1,001,2,recog,10,PINAFORE,LF,lure,-,-,-,conservative,no,m,1,1.19954035108,3,-13
2019_Mar_27,1,001,2,recog,11,HOBBLE,LF,lure,-,-,-,liberal,no,m,1,0.880028991096,1,-12
2019_Mar_27,1,001,2,recog,12,PHYSICAL,HF,target,left,aqua,pleasantness,liberal,no,z,1,0.960070886678,3,-9
2019_Mar_27,1,001,2,recog,13,LAVISHED,LF,lure,-,-,-,liberal,no,m,1,1.21299290913,1,-8
2019_Mar_27,1,001,2,recog,14,TWINE,LF,target,left,aqua,pleasantness,liberal,yes,m,0,1.61305464536,-3,-11
2019_Mar_27,1,001,2,recog,15,FLOOR,HF,lure,-,-,-,liberal,no,z,0,4.06548732391,-1,-12
2019_Mar_27,1,001,2,recog,16,WESTERN,HF,target,right,yellow,imageability,conservative,no,m,0,1.14648495784,-1,-13
2019_Mar_27,1,001,2,recog,17,LITANY,LF,lure,-,-,-,liberal,no,m,1,0.933310946009,1,-12
2019_Mar_27,1,001,2,recog,18,NARRATOR,LF,lure,-,-,-,conservative,no,m,1,0.959993899698,3,-9
2019_Mar_27,1,001,2,recog,19,PETERED,LF,lure,-,-,-,conservative,no,m,1,0.946671486296,3,-6
2019_Mar_27,1,001,2,recog,20,KIMONO,LF,target,left,aqua,pleasantness,conservative,no,m,0,0.920159370378,-1,-7
2019_Mar_27,1,001,2,recog,21,AMEND,LF,lure,-,-,-,conservative,no,m,1,1.01346575582,3,-4
2019_Mar_27,1,001,2,recog,22,REPORT,HF,lure,-,-,-,conservative,no,m,1,1.06665495976,3,-1
2019_Mar_27,1,001,2,recog,23,OPENED,HF,lure,-,-,-,conservative,no,z,0,2.03967798913,-3,-4
2019_Mar_27,1,001,2,recog,24,DORMS,LF,target,left,aqua,pleasantness,liberal,no,m,0,1.21313845118,-3,-7
2019_Mar_27,1,001,2,recog,25,ENERGY,HF,lure,-,-,-,conservative,no,z,0,1.41312312711,-3,-10
2019_Mar_27,1,001,2,recog,26,FAMILY,HF,lure,-,-,-,liberal,no,z,0,1.2398866605,-1,-11
2019_Mar_27,1,001,2,recog,27,EPIDEMICS,LF,lure,-,-,-,liberal,no,m,1,1.47973702714,1,-10
2019_Mar_27,1,001,2,recog,28,FRIEND,HF,target,left,aqua,pleasantness,liberal,no,z,1,1.33321724186,3,-7
2019_Mar_27,1,001,2,recog,29,ALTHOUGH,HF,lure,-,-,-,liberal,no,m,1,1.59950567027,1,-6
2019_Mar_27,1,001,2,recog,30,EXPECT,HF,lure,-,-,-,conservative,no,m,1,2.03955920922,3,-3
2019_Mar_27,1,001,2,recog,31,AROUND,HF,target,right,yellow,imageability,conservative,no,m,0,1.71972780337,-1,-4
2019_Mar_27,1,001,2,recog,32,FIELD,HF,target,left,aqua,pleasantness,conservative,no,z,1,1.22642750356,1,-3
2019_Mar_27,1,001,2,recog,33,SUDDENLY,HF,lure,-,-,-,liberal,no,m,1,1.12003553132,1,-2
2019_Mar_27,1,001,2,recog,34,AFTERNOON,HF,target,left,aqua,pleasantness,conservative,no,z,1,1.27990962462,1,-1
2019_Mar_27,1,001,2,recog,35,SHORT,HF,target,right,yellow,imageability,liberal,no,z,1,1.89292907593,3,2
2019_Mar_27,1,001,2,recog,36,PICTURE,HF,target,left,aqua,pleasantness,conservative,yes,m,0,1.77311130777,-1,1
2019_Mar_27,1,001,2,recog,37,SLACKEN,LF,target,right,yellow,imageability,conservative,no,m,0,1.83967901562,-1,0
2019_Mar_27,1,001,2,recog,38,LIKELY,HF,lure,-,-,-,liberal,no,m,1,1.60115649107,1,1
2019_Mar_27,1,001,2,recog,39,HISTORY,HF,target,right,yellow,imageability,liberal,no,z,1,1.07998177241,3,4
2019_Mar_27,1,001,2,recog,40,EFFECT,HF,lure,-,-,-,conservative,no,z,0,3.35879341607,-3,1
2019_Mar_27,1,001,2,recog,41,ENTIRELY,HF,target,left,aqua,pleasantness,conservative,no,m,0,1.19998064327,-1,0
2019_Mar_27,1,001,2,recog,42,BELIEVE,HF,lure,-,-,-,conservative,no,z,0,1.86624685545,-3,-3
2019_Mar_27,1,001,2,recog,43,MIGHTILY,LF,lure,-,-,-,liberal,no,m,1,1.07994584516,1,-2
2019_Mar_27,1,001,2,recog,44,RAIDER,LF,target,left,aqua,pleasantness,conservative,no,m,0,1.09328585559,-1,-3
2019_Mar_27,1,001,2,recog,45,POWER,HF,target,right,yellow,imageability,liberal,no,z,1,1.45311456322,3,0
2019_Mar_27,1,001,2,recog,46,ROCKER,LF,lure,-,-,-,liberal,no,m,1,2.41272792728,1,1
2019_Mar_27,1,001,2,recog,47,OBTAINS,LF,lure,-,-,-,conservative,no,m,1,1.06639980291,3,4
2019_Mar_27,1,001,2,recog,48,INDEED,HF,lure,-,-,-,conservative,no,m,1,1.17325443023,3,7
2019_Mar_27,1,001,2,recog,49,HEALTH,HF,lure,-,-,-,conservative,no,m,1,1.09324662889,3,10
2019_Mar_27,1,001,2,recog,50,UPSTART,LF,lure,-,-,-,liberal,no,m,1,1.53310843359,1,11
2019_Mar_27,1,001,2,recog,51,DITTO,LF,lure,-,-,-,conservative,no,m,1,1.08031354964,3,14
2019_Mar_27,1,001,2,recog,52,GURGLE,LF,target,left,aqua,pleasantness,liberal,no,m,0,0.880078116121,-3,11
2019_Mar_27,1,001,2,recog,53,SINCE,HF,lure,-,-,-,liberal,no,z,0,1.37315955295,-1,10
2019_Mar_27,1,001,2,recog,54,TIDILY,LF,target,right,yellow,imageability,conservative,no,m,0,0.89330117966,-1,9
2019_Mar_27,1,001,2,recog,55,GEYSER,LF,target,left,aqua,pleasantness,conservative,no,m,0,1.00012867824,-1,8
2019_Mar_27,1,001,2,recog,56,COERCION,LF,target,left,aqua,pleasantness,conservative,no,m,0,1.77271390832,-1,7
2019_Mar_27,1,001,2,recog,57,BOWER,LF,target,right,yellow,imageability,conservative,no,z,1,0.679848914888,1,8
2019_Mar_27,1,001,2,recog,58,COHESIVE,LF,target,right,yellow,imageability,conservative,no,m,0,1.2665153567,-1,7
2019_Mar_27,1,001,2,recog,59,PISTONS,LF,target,right,yellow,imageability,liberal,no,z,1,0.680192423455,3,10
2019_Mar_27,1,001,2,recog,60,NERVY,LF,lure,-,-,-,conservative,no,m,1,1.17325333042,3,13
2019_Mar_27,1,001,2,recog,61,INCLUDING,HF,target,right,yellow,imageability,conservative,no,m,0,2.17289075841,-1,12
2019_Mar_27,1,001,2,recog,62,ACTION,HF,target,right,yellow,imageability,liberal,no,z,1,2.91919043426,3,15
2019_Mar_27,1,001,2,recog,63,LONGER,HF,target,left,aqua,pleasantness,liberal,no,z,1,1.11967699196,3,18
2019_Mar_27,1,001,2,recog,64,FIXTURE,LF,target,right,yellow,imageability,liberal,no,m,0,1.17339190698,-3,15
2019_Mar_27,1,001,2,recog,65,NECESSARY,HF,lure,-,-,-,liberal,no,z,0,1.54643231342,-1,14
2019_Mar_27,1,001,2,recog,66,PAINTWORK,LF,target,right,yellow,imageability,liberal,no,m,0,1.49308253664,-3,11
2019_Mar_27,1,001,2,recog,67,ZEALOTS,LF,lure,-,-,-,conservative,no,m,1,6.69112604088,3,14
2019_Mar_27,1,001,2,recog,68,CLICKS,LF,lure,-,-,-,liberal,yes,z,0,1.04002736337,-1,13
2019_Mar_27,1,001,2,recog,69,UNABATED,LF,target,right,yellow,imageability,conservative,no,m,0,2.25260637584,-1,12
2019_Mar_27,1,001,2,recog,70,BEDLAM,LF,target,left,aqua,pleasantness,conservative,no,m,0,1.50642108065,-1,11
2019_Mar_27,1,001,2,recog,71,SIGNPOST,LF,target,right,yellow,imageability,liberal,no,m,0,1.07994694497,-3,8
2019_Mar_27,1,001,2,recog,72,APART,HF,lure,-,-,-,liberal,no,m,1,0.906709378552,1,9
2019_Mar_27,1,001,2,recog,73,TERMS,HF,lure,-,-,-,conservative,no,m,1,0.866741771742,3,12
2019_Mar_27,1,001,2,recog,74,POSITION,HF,lure,-,-,-,liberal,no,z,0,1.79972167374,-1,11
2019_Mar_27,1,001,2,recog,75,CARRIED,HF,target,right,yellow,imageability,conservative,no,m,0,0.813446985667,-1,10
2019_Mar_27,1,001,2,recog,76,LEARN,HF,target,left,aqua,pleasantness,conservative,no,m,0,1.01332901229,-1,9
2019_Mar_27,1,001,2,recog,77,WADDLED,LF,lure,-,-,-,liberal,no,z,0,0.813492444644,-1,8
2019_Mar_27,1,001,2,recog,78,DRAFTING,LF,target,left,aqua,pleasantness,liberal,no,m,0,0.999986802231,-3,5
2019_Mar_27,1,001,2,recog,79,GLASS,HF,target,left,aqua,pleasantness,conservative,no,z,1,2.37278195015,1,6
2019_Mar_27,1,001,2,recog,80,HILLSIDES,LF,target,left,aqua,pleasantness,liberal,no,z,1,1.33319084632,3,9
2019_Mar_27,1,001,2,recog,81,AVOCADO,LF,target,right,yellow,imageability,conservative,no,z,1,1.09302409986,1,10
2019_Mar_27,1,001,2,recog,82,BRING,HF,lure,-,-,-,liberal,no,z,0,1.53308460429,-1,9
2019_Mar_27,1,001,2,recog,83,REACHED,HF,target,right,yellow,imageability,conservative,no,m,0,0.920019694002,-1,8
2019_Mar_27,1,001,2,recog,84,EDUCATION,HF,target,left,aqua,pleasantness,liberal,yes,m,0,1.0665871379,-3,5
2019_Mar_27,1,001,2,recog,85,SIMILAR,HF,lure,-,-,-,conservative,no,m,1,1.85301022754,3,8
2019_Mar_27,1,001,2,recog,86,PATCHY,LF,lure,-,-,-,conservative,no,m,1,0.81317899766,3,11
2019_Mar_27,1,001,2,recog,87,JAMMING,LF,target,right,yellow,imageability,liberal,no,m,0,1.23962527138,-3,8
2019_Mar_27,1,001,2,recog,88,BYPASS,LF,lure,-,-,-,liberal,no,m,1,1.05333364617,1,9
2019_Mar_27,1,001,2,recog,89,SHALL,HF,lure,-,-,-,conservative,no,m,1,0.826670782415,3,12
2019_Mar_27,1,001,2,recog,90,EXACTLY,HF,target,right,yellow,imageability,liberal,no,m,0,0.84001299247,-3,9
2019_Mar_27,1,001,2,recog,91,AMBIENCE,LF,lure,-,-,-,liberal,no,m,1,0.866438589686,1,10
2019_Mar_27,1,001,2,recog,92,REOPEN,LF,lure,-,-,-,liberal,no,m,1,1.02663712811,1,11
2019_Mar_27,1,001,2,recog,93,MUGGING,LF,lure,-,-,-,conservative,no,m,1,0.853344570989,3,14
2019_Mar_27,1,001,2,recog,94,DEBACLE,LF,target,left,aqua,pleasantness,liberal,no,m,0,1.37316065276,-3,11
2019_Mar_27,1,001,2,recog,95,FLAGGED,LF,lure,-,-,-,conservative,no,m,1,1.10676517578,3,14
2019_Mar_27,1,001,3,source,0,CLOSE,HF,target,right,yellow,imageability,liberal,no,8,1,2.98584942667,-,-
2019_Mar_27,1,001,3,source,1,NOTHING,HF,target,left,aqua,pleasantness,liberal,no,2,1,1.27967499764,-,-
2019_Mar_27,1,001,3,source,2,SEVEN,HF,target,right,yellow,imageability,liberal,no,9,1,1.19998210969,-,-
2019_Mar_27,1,001,3,source,3,WINDOW,HF,target,left,aqua,pleasantness,liberal,no,1,1,1.47975939003,-,-
2019_Mar_27,1,001,3,source,4,CHAIR,HF,target,right,yellow,imageability,liberal,no,9,1,0.853116542889,-,-
2019_Mar_27,1,001,3,source,5,REIGNING,LF,target,left,aqua,pleasantness,conservative,no,1,1,1.87950584625,-,-
2019_Mar_27,1,001,3,source,6,CHOICE,HF,target,left,aqua,pleasantness,conservative,yes,2,1,0.973319612543,-,-
2019_Mar_27,1,001,3,source,7,TIPSY,LF,target,left,aqua,pleasantness,conservative,no,1,1,0.786482479596,-,-
2019_Mar_27,1,001,3,source,8,AREAS,HF,target,right,yellow,imageability,conservative,no,9,1,0.946631159784,-,-
2019_Mar_27,1,001,3,source,9,CACOPHONY,LF,target,left,aqua,pleasantness,conservative,no,1,1,1.53322611369,-,-
2019_Mar_27,1,001,3,source,10,VIGILANT,LF,target,right,yellow,imageability,liberal,no,9,1,0.880009194445,-,-
2019_Mar_27,1,001,3,source,11,CEASELESS,LF,target,left,aqua,pleasantness,liberal,no,1,1,1.21327189528,-,-
2019_Mar_27,1,001,3,source,12,TOTAL,HF,target,left,aqua,pleasantness,liberal,no,8,0,1.39964160728,-,-
2019_Mar_27,1,001,3,source,13,APRICOT,LF,target,right,yellow,imageability,liberal,no,9,1,0.906850887954,-,-
2019_Mar_27,1,001,3,source,14,BOLDNESS,LF,target,right,yellow,imageability,conservative,no,9,1,0.999982402976,-,-
2019_Mar_27,1,001,3,source,15,ORBITAL,LF,target,left,aqua,pleasantness,liberal,no,2,1,2.18618421004,-,-
2019_Mar_27,1,001,3,source,16,GARDEN,HF,target,right,yellow,imageability,conservative,no,9,1,0.786718206395,-,-
2019_Mar_27,1,001,3,source,17,ALABASTER,LF,target,left,aqua,pleasantness,liberal,no,1,1,1.42619368311,-,-
2019_Mar_27,1,001,3,source,18,ITSELF,HF,target,left,aqua,pleasantness,liberal,no,1,1,0.853365100849,-,-
2019_Mar_27,1,001,3,source,19,OSTRACISM,LF,target,right,yellow,imageability,liberal,no,1,0,1.06646359213,-,-
2019_Mar_27,1,001,3,source,20,JUMBO,LF,target,left,aqua,pleasantness,conservative,no,1,1,0.640108236361,-,-
2019_Mar_27,1,001,3,source,21,MUSIC,HF,target,right,yellow,imageability,conservative,no,9,1,0.880038522817,-,-
2019_Mar_27,1,001,3,source,22,BUMBLING,LF,target,left,aqua,pleasantness,liberal,no,1,1,0.85336033499,-,-
2019_Mar_27,1,001,3,source,23,JOWLS,LF,target,left,aqua,pleasantness,conservative,no,1,1,0.919877818,-,-
2019_Mar_27,1,001,3,source,24,WAITING,HF,target,left,aqua,pleasantness,conservative,yes,2,1,1.21322680291,-,-
2019_Mar_27,1,001,3,source,25,HEMMED,LF,target,left,aqua,pleasantness,liberal,yes,8,0,0.86677696579,-,-
2019_Mar_27,1,001,3,source,26,HEDGED,LF,target,right,yellow,imageability,conservative,no,1,0,1.26638411223,-,-
2019_Mar_27,1,001,3,source,27,TOGETHER,HF,target,right,yellow,imageability,conservative,no,9,1,1.43977565261,-,-
2019_Mar_27,1,001,3,source,28,SPEAK,HF,target,left,aqua,pleasantness,liberal,no,1,1,0.906774267578,-,-
2019_Mar_27,1,001,3,source,29,DEVELOPED,HF,target,right,yellow,imageability,conservative,no,9,1,0.94681262909,-,-
2019_Mar_27,1,001,3,source,30,SILENCER,LF,target,right,yellow,imageability,liberal,no,9,1,0.800210724359,-,-
2019_Mar_27,1,001,3,source,31,TILTS,LF,target,left,aqua,pleasantness,liberal,no,1,1,1.0132905188,-,-
2019_Mar_27,1,001,3,source,32,UMBILICAL,LF,target,right,yellow,imageability,conservative,no,9,1,0.826772331906,-,-
2019_Mar_27,1,001,3,source,33,NORTH,HF,target,left,aqua,pleasantness,conservative,no,1,1,1.29283647159,-,-
2019_Mar_27,1,001,3,source,34,LATER,HF,target,left,aqua,pleasantness,conservative,no,1,1,1.33320551051,-,-
2019_Mar_27,1,001,3,source,35,AGELESS,LF,target,right,yellow,imageability,conservative,no,9,1,1.98624792593,-,-
2019_Mar_27,1,001,3,source,36,HASSLE,LF,target,right,yellow,imageability,liberal,no,9,1,1.21334558282,-,-
2019_Mar_27,1,001,3,source,37,OTHERS,HF,target,right,yellow,imageability,conservative,no,9,1,0.919987066187,-,-
2019_Mar_27,1,001,3,source,38,TRUTH,HF,target,right,yellow,imageability,liberal,no,9,1,0.853342004757,-,-
2019_Mar_27,1,001,3,source,39,POINT,HF,target,right,yellow,imageability,liberal,no,9,1,0.906697280599,-,-
2019_Mar_27,1,001,3,source,40,BUNGALOWS,LF,target,right,yellow,imageability,liberal,no,9,1,1.49461897678,-,-
2019_Mar_27,1,001,3,source,41,ANIMAL,HF,target,left,aqua,pleasantness,conservative,no,1,1,1.15993275004,-,-
2019_Mar_27,1,001,3,source,42,NEEDED,HF,target,right,yellow,imageability,liberal,yes,2,0,1.26627193121,-,-
2019_Mar_27,1,001,3,source,43,JOBLESS,LF,target,right,yellow,imageability,conservative,no,9,1,0.866675416297,-,-
2019_Mar_27,1,001,3,source,44,PELTED,LF,target,left,aqua,pleasantness,conservative,no,8,0,1.9194613551,-,-
2019_Mar_27,1,001,3,source,45,QUICKLY,HF,target,left,aqua,pleasantness,liberal,no,1,1,0.99981449804,-,-
2019_Mar_27,1,001,3,source,46,GUESSWORK,LF,target,right,yellow,imageability,conservative,no,9,1,1.18657024475,-,-
2019_Mar_27,1,001,3,source,47,CASES,HF,target,left,aqua,pleasantness,conservative,no,1,1,0.960008930489,-,-
2019_Mar_27,1,001,3,recog,0,CLOSE,HF,target,right,yellow,imageability,liberal,no,z,1,5.0650378666,3,17
2019_Mar_27,1,001,3,recog,1,PELTED,LF,target,left,aqua,pleasantness,conservative,no,m,0,2.78595896814,-1,16
2019_Mar_27,1,001,3,recog,2,INNATELY,LF,lure,-,-,-,conservative,no,z,0,1.89295877091,-3,13
2019_Mar_27,1,001,3,recog,3,REIGNING,LF,target,left,aqua,pleasantness,conservative,no,m,0,0.786754133651,-1,12
2019_Mar_27,1,001,3,recog,4,MUSIC,HF,target,right,yellow,imageability,conservative,no,z,1,0.920175134379,1,13
2019_Mar_27,1,001,3,recog,5,CHLORIDE,LF,lure,-,-,-,liberal,no,z,0,1.03995990812,-1,12
2019_Mar_27,1,001,3,recog,6,ABATED,LF,lure,-,-,-,conservative,no,m,1,0.813398227247,3,15
2019_Mar_27,1,001,3,recog,7,QUICKLY,HF,target,left,aqua,pleasantness,liberal,no,z,1,0.946641424713,3,18
2019_Mar_27,1,001,3,recog,8,JUMBO,LF,target,left,aqua,pleasantness,conservative,no,m,0,1.21317767788,-1,17
2019_Mar_27,1,001,3,recog,9,NEEDED,HF,target,right,yellow,imageability,liberal,no,z,1,1.17334938084,3,20
2019_Mar_27,1,001,3,recog,10,TESTIFIES,LF,lure,-,-,-,liberal,no,m,1,1.19963456847,1,21
2019_Mar_27,1,001,3,recog,11,CHAIR,HF,target,right,yellow,imageability,liberal,no,m,0,0.85341165964,-3,18
2019_Mar_27,1,001,3,recog,12,BUNGALOWS,LF,target,right,yellow,imageability,liberal,no,z,1,1.11998200704,3,21
2019_Mar_27,1,001,3,recog,13,SLIGHTLY,HF,lure,-,-,-,liberal,no,m,1,1.41292516059,1,22
2019_Mar_27,1,001,3,recog,14,TURNED,HF,lure,-,-,-,liberal,no,z,0,1.45309220034,-1,21
2019_Mar_27,1,001,3,recog,15,CHOICE,HF,target,left,aqua,pleasantness,conservative,no,m,0,1.29319427774,-1,20
2019_Mar_27,1,001,3,recog,16,SPOKE,HF,lure,-,-,-,liberal,no,z,0,1.13328938965,-1,19
2019_Mar_27,1,001,3,recog,17,APTLY,LF,lure,-,-,-,liberal,no,m,1,0.760066780706,1,20
2019_Mar_27,1,001,3,recog,18,GARDEN,HF,target,right,yellow,imageability,conservative,no,z,1,4.35865117346,1,21
2019_Mar_27,1,001,3,recog,19,FINAL,HF,lure,-,-,-,liberal,no,z,0,1.74633853594,-1,20
2019_Mar_27,1,001,3,recog,20,STRAIGHT,HF,lure,-,-,-,liberal,no,m,1,0.946446391034,1,21
2019_Mar_27,1,001,3,recog,21,MEDDLE,LF,lure,-,-,-,conservative,yes,m,1,0.973297616263,3,24
2019_Mar_27,1,001,3,recog,22,DOUBT,HF,lure,-,-,-,liberal,no,z,0,3.21242687154,-1,23
2019_Mar_27,1,001,3,recog,23,SNUBBED,LF,lure,-,-,-,liberal,no,m,1,0.853336505686,1,24
2019_Mar_27,1,001,3,recog,24,UNVEILED,LF,lure,-,-,-,conservative,no,z,0,1.34633692288,-3,21
2019_Mar_27,1,001,3,recog,25,NOTHING,HF,target,left,aqua,pleasantness,liberal,no,z,1,1.17320640502,3,24
2019_Mar_27,1,001,3,recog,26,INTEREST,HF,lure,-,-,-,conservative,no,z,0,1.37297221797,-3,21
2019_Mar_27,1,001,3,recog,27,ORBITAL,LF,target,left,aqua,pleasantness,liberal,no,m,0,1.27998037932,-3,18
2019_Mar_27,1,001,3,recog,28,GABLE,LF,lure,-,-,-,conservative,no,m,1,0.666754896189,3,21
2019_Mar_27,1,001,3,recog,29,CEASELESS,LF,target,left,aqua,pleasantness,liberal,no,m,0,0.773419988898,-3,18
2019_Mar_27,1,001,3,recog,30,ACCORDING,HF,lure,-,-,-,conservative,yes,z,0,1.26651132405,-3,15
2019_Mar_27,1,001,3,recog,31,TOGETHER,HF,target,right,yellow,imageability,conservative,no,z,1,4.30529736404,1,16
2019_Mar_27,1,001,3,recog,32,EMULATION,LF,lure,-,-,-,conservative,no,m,1,4.23848256465,3,19
2019_Mar_27,1,001,3,recog,33,SAVOURED,LF,lure,-,-,-,conservative,no,z,0,1.90627678505,-3,16
2019_Mar_27,1,001,3,recog,34,VIGILANT,LF,target,right,yellow,imageability,liberal,no,z,1,3.45229593501,3,19
2019_Mar_27,1,001,3,recog,35,TIPSY,LF,target,left,aqua,pleasantness,conservative,no,m,0,1.51962251451,-1,18
2019_Mar_27,1,001,3,recog,36,BLIGHTED,LF,lure,-,-,-,conservative,no,m,1,1.69305144856,3,21
2019_Mar_27,1,001,3,recog,37,AGELESS,LF,target,right,yellow,imageability,conservative,no,m,0,1.59953646507,-1,20
2019_Mar_27,1,001,3,recog,38,FILAMENTS,LF,lure,-,-,-,liberal,no,z,0,1.2531775459,-1,19
2019_Mar_27,1,001,3,recog,39,ALABASTER,LF,target,left,aqua,pleasantness,liberal,no,m,0,0.800092311054,-3,16
2019_Mar_27,1,001,3,recog,40,SPEAK,HF,target,left,aqua,pleasantness,liberal,no,z,1,1.05326802393,3,19
2019_Mar_27,1,001,3,recog,41,TILTS,LF,target,left,aqua,pleasantness,liberal,no,z,1,1.03996467398,3,22
2019_Mar_27,1,001,3,recog,42,MAJOR,HF,lure,-,-,-,liberal,no,m,1,1.84010647666,1,23
2019_Mar_27,1,001,3,recog,43,MARKET,HF,lure,-,-,-,conservative,no,m,1,0.986944108186,3,26
2019_Mar_27,1,001,3,recog,44,ENSCONCED,LF,lure,-,-,-,liberal,no,m,1,1.46653302705,1,27
2019_Mar_27,1,001,3,recog,45,NORTH,HF,target,left,aqua,pleasantness,conservative,no,z,1,0.920016394561,1,28
2019_Mar_27,1,001,3,recog,46,SKATES,LF,lure,-,-,-,liberal,no,m,1,2.67930890622,1,29
2019_Mar_27,1,001,3,recog,47,UMBILICAL,LF,target,right,yellow,imageability,conservative,no,z,1,1.23983423604,1,30
2019_Mar_27,1,001,3,recog,48,CACOPHONY,LF,target,left,aqua,pleasantness,conservative,no,m,0,1.63983694891,-1,29
2019_Mar_27,1,001,3,recog,49,SEVEN,HF,target,right,yellow,imageability,liberal,no,z,1,1.0263695067,3,32
2019_Mar_27,1,001,3,recog,50,POINT,HF,target,right,yellow,imageability,liberal,no,z,1,1.87972837527,3,35
2019_Mar_27,1,001,3,recog,51,TRUTH,HF,target,right,yellow,imageability,liberal,no,z,1,1.01343019517,3,38
2019_Mar_27,1,001,3,recog,52,GOBBLE,LF,lure,-,-,-,liberal,no,m,1,1.25322997037,1,39
2019_Mar_27,1,001,3,recog,53,HAPPEN,HF,lure,-,-,-,conservative,no,z,0,2.1062083033,-3,36
2019_Mar_27,1,001,3,recog,54,WINDOW,HF,target,left,aqua,pleasantness,liberal,no,m,0,1.05325372635,-3,33
2019_Mar_27,1,001,3,recog,55,TALKING,HF,lure,-,-,-,liberal,no,z,0,1.02652751331,-1,32
2019_Mar_27,1,001,3,recog,56,HASSLE,LF,target,right,yellow,imageability,liberal,no,m,0,1.1600632613,-3,29
2019_Mar_27,1,001,3,recog,57,ANIMAL,HF,target,left,aqua,pleasantness,conservative,no,z,1,0.90675630395,1,30
2019_Mar_27,1,001,3,recog,58,AREAS,HF,target,right,yellow,imageability,conservative,no,z,1,1.81300339403,1,31
2019_Mar_27,1,001,3,recog,59,THWART,LF,lure,-,-,-,liberal,no,m,1,1.0666267312,1,32
2019_Mar_27,1,001,3,recog,60,SIDED,LF,lure,-,-,-,liberal,no,m,1,1.45306910425,1,33
2019_Mar_27,1,001,3,recog,61,MERELY,HF,lure,-,-,-,liberal,no,m,1,1.66654189888,1,34
2019_Mar_27,1,001,3,recog,62,DOCTOR,HF,lure,-,-,-,conservative,yes,m,1,1.05342529734,3,37
2019_Mar_27,1,001,3,recog,63,WRITE,HF,lure,-,-,-,conservative,no,m,1,1.69305878066,3,40
2019_Mar_27,1,001,3,recog,64,COMES,HF,lure,-,-,-,conservative,no,m,1,1.35980487834,3,43
2019_Mar_27,1,001,3,recog,65,HEMMED,LF,target,left,aqua,pleasantness,liberal,yes,m,0,0.880012493888,-3,40
2019_Mar_27,1,001,3,recog,66,APRICOT,LF,target,right,yellow,imageability,liberal,no,z,1,1.11996917588,3,43
2019_Mar_27,1,001,3,recog,67,SILENCER,LF,target,right,yellow,imageability,liberal,no,z,1,1.38655125463,3,46
2019_Mar_27,1,001,3,recog,68,UTILIZE,LF,lure,-,-,-,conservative,no,m,1,2.57274243016,3,49
2019_Mar_27,1,001,3,recog,69,DEVELOPED,HF,target,right,yellow,imageability,conservative,no,m,0,0.77343648611,-1,48
2019_Mar_27,1,001,3,recog,70,HEDGED,LF,target,right,yellow,imageability,conservative,no,m,0,0.760128370288,-1,47
2019_Mar_27,1,001,3,recog,71,BOLDNESS,LF,target,right,yellow,imageability,conservative,no,m,0,1.39972482654,-1,46
2019_Mar_27,1,001,3,recog,72,BIRCHES,LF,lure,-,-,-,conservative,no,m,1,0.626591522487,3,49
2019_Mar_27,1,001,3,recog,73,TETHER,LF,lure,-,-,-,conservative,no,m,1,0.759985761075,3,52
2019_Mar_27,1,001,3,recog,74,BECAME,HF,lure,-,-,-,conservative,no,m,1,1.07990368562,3,55
2019_Mar_27,1,001,3,recog,75,WAITING,HF,target,left,aqua,pleasantness,conservative,no,z,1,1.42555469118,1,56
2019_Mar_27,1,001,3,recog,76,OUTSIDE,HF,lure,-,-,-,liberal,no,z,0,1.75943768711,-1,55
2019_Mar_27,1,001,3,recog,77,OUGHT,HF,lure,-,-,-,conservative,no,m,1,0.879923408955,3,58
2019_Mar_27,1,001,3,recog,78,ITSELF,HF,target,left,aqua,pleasantness,liberal,no,m,0,1.29327639718,-3,55
2019_Mar_27,1,001,3,recog,79,SARDINES,LF,lure,-,-,-,conservative,no,m,1,0.773436852713,3,58
2019_Mar_27,1,001,3,recog,80,CASES,HF,target,left,aqua,pleasantness,conservative,no,m,0,0.959725545086,-1,57
2019_Mar_27,1,001,3,recog,81,OTHERS,HF,target,right,yellow,imageability,conservative,no,m,0,0.900402678561,-1,56
2019_Mar_27,1,001,3,recog,82,TAKEN,HF,lure,-,-,-,liberal,no,m,1,1.6530321505,1,57
2019_Mar_27,1,001,3,recog,83,THING,HF,lure,-,-,-,conservative,no,m,1,1.15989535637,3,60
2019_Mar_27,1,001,3,recog,84,ERUDITE,LF,lure,-,-,-,liberal,no,m,1,1.2267295858,1,61
2019_Mar_27,1,001,3,recog,85,OSTRACISM,LF,target,right,yellow,imageability,liberal,no,m,0,1.19963823452,-3,58
2019_Mar_27,1,001,3,recog,86,EVIDENCE,HF,lure,-,-,-,liberal,no,z,0,1.2400120393,-1,57
2019_Mar_27,1,001,3,recog,87,TOTAL,HF,target,left,aqua,pleasantness,liberal,no,z,1,0.906432592035,3,60
2019_Mar_27,1,001,3,recog,88,CAUGHT,HF,lure,-,-,-,conservative,no,z,0,2.07981606711,-3,57
2019_Mar_27,1,001,3,recog,89,LATER,HF,target,left,aqua,pleasantness,conservative,no,z,1,1.15989535637,1,58
2019_Mar_27,1,001,3,recog,90,BUMBLING,LF,target,left,aqua,pleasantness,liberal,no,m,0,1.06665935901,-3,55
2019_Mar_27,1,001,3,recog,91,TOPICAL,LF,lure,-,-,-,liberal,no,m,1,1.46646887123,1,56
2019_Mar_27,1,001,3,recog,92,JOBLESS,LF,target,right,yellow,imageability,conservative,no,m,0,1.1465601118,-1,55
2019_Mar_27,1,001,3,recog,93,JOWLS,LF,target,left,aqua,pleasantness,conservative,no,z,1,1.23997757846,1,56
2019_Mar_27,1,001,3,recog,94,GUESSWORK,LF,target,right,yellow,imageability,conservative,no,m,0,1.70623051954,-1,55
2019_Mar_27,1,001,3,recog,95,CAPITAL,HF,lure,-,-,-,conservative,no,z,0,1.06639393724,-3,52
2019_Mar_27,1,001,4,source,0,AFFABLE,LF,target,right,yellow,imageability,conservative,no,2,0,3.85193717569,-,-
2019_Mar_27,1,001,4,source,1,POOLED,LF,target,right,yellow,imageability,conservative,no,8,1,3.43899001882,-,-
2019_Mar_27,1,001,4,source,2,EBULLIENT,LF,target,left,aqua,pleasantness,liberal,no,8,0,1.00011181442,-,-
2019_Mar_27,1,001,4,source,3,BETTER,HF,target,right,yellow,imageability,conservative,no,2,0,3.11909995623,-,-
2019_Mar_27,1,001,4,source,4,YOUNG,HF,target,left,aqua,pleasantness,conservative,no,9,0,1.97284559272,-,-
2019_Mar_27,1,001,4,source,5,OBNOXIOUS,LF,target,right,yellow,imageability,liberal,no,2,0,1.06758210295,-,-
2019_Mar_27,1,001,4,source,6,AGONIZED,LF,target,left,aqua,pleasantness,conservative,no,1,1,0.893158570447,-,-
2019_Mar_27,1,001,4,source,7,RIVER,HF,target,right,yellow,imageability,liberal,no,9,1,0.800090844636,-,-
2019_Mar_27,1,001,4,source,8,DIETING,LF,target,left,aqua,pleasantness,liberal,no,1,1,1.25342830349,-,-
2019_Mar_27,1,001,4,source,9,WANTED,HF,target,right,yellow,imageability,conservative,no,9,1,1.06666302506,-,-
2019_Mar_27,1,001,4,source,10,DOING,HF,target,left,aqua,pleasantness,conservative,no,1,1,0.999976537301,-,-
2019_Mar_27,1,001,4,source,11,HIGHER,HF,target,left,aqua,pleasantness,conservative,no,2,1,1.82605342017,-,-
2019_Mar_27,1,001,4,source,12,VIVACIOUS,LF,target,left,aqua,pleasantness,conservative,yes,2,1,0.880008094631,-,-
2019_Mar_27,1,001,4,source,13,SECOND,HF,target,right,yellow,imageability,liberal,no,8,1,2.06596134374,-,-
2019_Mar_27,1,001,4,source,14,RAKING,LF,target,left,aqua,pleasantness,conservative,no,8,0,1.05328268812,-,-
2019_Mar_27,1,001,4,source,15,SEEMED,HF,target,left,aqua,pleasantness,liberal,no,8,0,1.02632771377,-,-
2019_Mar_27,1,001,4,source,16,INSIDE,HF,target,left,aqua,pleasantness,liberal,no,8,0,1.33313072316,-,-
2019_Mar_27,1,001,4,source,17,REWRITE,LF,target,left,aqua,pleasantness,conservative,no,1,1,0.906393731941,-,-
2019_Mar_27,1,001,4,source,18,HIMSELF,HF,target,right,yellow,imageability,liberal,no,9,1,0.880059785888,-,-
2019_Mar_27,1,001,4,source,19,MOGUL,LF,target,right,yellow,imageability,liberal,no,9,1,0.840064317123,-,-
2019_Mar_27,1,001,4,source,20,JADED,LF,target,left,aqua,pleasantness,conservative,no,1,1,0.999987168838,-,-
2019_Mar_27,1,001,4,source,21,BALDING,LF,target,right,yellow,imageability,liberal,no,2,0,1.77301232451,-,-
2019_Mar_27,1,001,4,source,22,BEGAN,HF,target,left,aqua,pleasantness,conservative,no,9,0,1.51956569079,-,-
2019_Mar_27,1,001,4,source,23,REFECTORY,LF,target,left,aqua,pleasantness,liberal,no,8,0,1.34653049014,-,-
2019_Mar_27,1,001,4,source,24,TREES,HF,target,left,aqua,pleasantness,conservative,no,1,1,0.906716344043,-,-
2019_Mar_27,1,001,4,source,25,STUDENT,HF,target,right,yellow,imageability,liberal,no,9,1,1.66650743804,-,-
2019_Mar_27,1,001,4,source,26,POACHED,LF,target,right,yellow,imageability,conservative,no,9,1,1.06659483659,-,-
2019_Mar_27,1,001,4,source,27,GETTING,HF,target,left,aqua,pleasantness,liberal,yes,8,0,0.733397024784,-,-
2019_Mar_27,1,001,4,source,28,VOICE,HF,target,right,yellow,imageability,conservative,no,9,1,0.786724072068,-,-
2019_Mar_27,1,001,4,source,29,VISCOUS,LF,target,left,aqua,pleasantness,liberal,no,2,1,1.83938059943,-,-
2019_Mar_27,1,001,4,source,30,LOTTERY,LF,target,right,yellow,imageability,conservative,no,9,1,1.03992984653,-,-
2019_Mar_27,1,001,4,source,31,BOILERS,LF,target,right,yellow,imageability,conservative,no,9,1,0.948068983265,-,-
2019_Mar_27,1,001,4,source,32,OBVIOUSLY,HF,target,right,yellow,imageability,conservative,no,9,1,0.999773804924,-,-
2019_Mar_27,1,001,4,source,33,PIVOT,LF,target,right,yellow,imageability,liberal,no,9,1,0.679899506331,-,-
2019_Mar_27,1,001,4,source,34,DALES,LF,target,left,aqua,pleasantness,conservative,no,2,1,1.10673694722,-,-
2019_Mar_27,1,001,4,source,35,MOLARS,LF,target,right,yellow,imageability,conservative,no,9,1,0.853493779086,-,-
2019_Mar_27,1,001,4,source,36,STAFF,HF,target,left,aqua,pleasantness,liberal,no,8,0,1.46658838435,-,-
2019_Mar_27,1,001,4,source,37,SUPPORT,HF,target,left,aqua,pleasantness,conservative,no,8,0,1.11965316266,-,-
2019_Mar_27,1,001,4,source,38,VEGAN,LF,target,left,aqua,pleasantness,liberal,no,8,0,0.9864103318,-,-
2019_Mar_27,1,001,4,source,39,MALIGNED,LF,target,left,aqua,pleasantness,liberal,yes,8,0,1.29323460425,-,-
2019_Mar_27,1,001,4,source,40,RANGE,HF,target,right,yellow,imageability,conservative,no,9,1,0.840029123074,-,-
2019_Mar_27,1,001,4,source,41,MYSELF,HF,target,right,yellow,imageability,liberal,no,9,1,1.11992261709,-,-
2019_Mar_27,1,001,4,source,42,WHITE,HF,target,left,aqua,pleasantness,liberal,no,2,1,1.89292577649,-,-
2019_Mar_27,1,001,4,source,43,DIVAN,LF,target,right,yellow,imageability,liberal,no,9,1,1.09327815689,-,-
2019_Mar_27,1,001,4,source,44,OFTEN,HF,target,right,yellow,imageability,conservative,yes,8,1,0.906656587482,-,-
2019_Mar_27,1,001,4,source,45,SUCCESS,HF,target,right,yellow,imageability,liberal,no,9,1,0.800097076914,-,-
2019_Mar_27,1,001,4,source,46,GLUTINOUS,LF,target,right,yellow,imageability,liberal,no,9,1,1.39961264551,-,-
2019_Mar_27,1,001,4,source,47,HARDLY,HF,target,left,aqua,pleasantness,liberal,no,1,1,1.06635617696,-,-
2019_Mar_27,1,001,4,recog,0,INSIDE,HF,target,left,aqua,pleasantness,liberal,no,None,-1,-1,-3,49
2019_Mar_27,1,001,4,recog,1,EBULLIENT,LF,target,left,aqua,pleasantness,liberal,no,m,0,1.66634869822,-3,46
2019_Mar_27,1,001,4,recog,2,PARENTS,HF,lure,-,-,-,conservative,no,z,0,1.10663466452,-3,43
2019_Mar_27,1,001,4,recog,3,JOSTLED,LF,lure,-,-,-,conservative,yes,m,1,1.02653484541,3,46
2019_Mar_27,1,001,4,recog,4,MOLARS,LF,target,right,yellow,imageability,conservative,no,m,0,1.75970970776,-1,45
2019_Mar_27,1,001,4,recog,5,VARIOUS,HF,lure,-,-,-,conservative,no,m,1,0.986619296456,3,48
2019_Mar_27,1,001,4,recog,6,BENIGNLY,LF,lure,-,-,-,liberal,no,m,1,1.15988875748,1,49
2019_Mar_27,1,001,4,recog,7,AVAILABLE,HF,lure,-,-,-,conservative,no,m,1,1.03997383909,3,52
2019_Mar_27,1,001,4,recog,8,RANGE,HF,target,right,yellow,imageability,conservative,no,m,0,1.63973833226,-1,51
2019_Mar_27,1,001,4,recog,9,REFECTORY,LF,target,left,aqua,pleasantness,liberal,no,m,0,0.946777068439,-3,48
2019_Mar_27,1,001,4,recog,10,MYSELF,HF,target,right,yellow,imageability,liberal,no,z,1,1.66618482594,3,51
2019_Mar_27,1,001,4,recog,11,SNIGGERED,LF,lure,-,-,-,conservative,yes,z,0,0.866713176578,-3,48
2019_Mar_27,1,001,4,recog,12,AGONIZED,LF,target,left,aqua,pleasantness,conservative,no,m,0,1.5328650081,-1,47
2019_Mar_27,1,001,4,recog,13,OBNOXIOUS,LF,target,right,yellow,imageability,liberal,no,m,0,2.09306809242,-3,44
2019_Mar_27,1,001,4,recog,14,IDEAS,HF,lure,-,-,-,liberal,no,z,0,0.893358369989,-1,43
2019_Mar_27,1,001,4,recog,15,BOILERS,LF,target,right,yellow,imageability,conservative,no,z,1,1.33320807674,1,44
2019_Mar_27,1,001,4,recog,16,CHIEF,HF,lure,-,-,-,conservative,yes,z,0,0.906670151855,-3,41
2019_Mar_27,1,001,4,recog,17,ICILY,LF,lure,-,-,-,conservative,no,m,1,1.71966658039,3,44
2019_Mar_27,1,001,4,recog,18,NEBULOUS,LF,lure,-,-,-,conservative,no,m,1,0.866482948852,3,47
2019_Mar_27,1,001,4,recog,19,DOING,HF,target,left,aqua,pleasantness,conservative,no,z,1,0.933354205359,1,48
2019_Mar_27,1,001,4,recog,20,ORDER,HF,lure,-,-,-,liberal,no,z,0,1.54618375546,-1,47
2019_Mar_27,1,001,4,recog,21,NAGGED,LF,lure,-,-,-,conservative,no,m,1,0.959975202861,3,50
2019_Mar_27,1,001,4,recog,22,JADED,LF,target,left,aqua,pleasantness,conservative,no,m,0,0.973378269289,-1,49
2019_Mar_27,1,001,4,recog,23,MINISTER,HF,lure,-,-,-,liberal,no,m,1,0.746763430745,1,50
2019_Mar_27,1,001,4,recog,24,GLUTINOUS,LF,target,right,yellow,imageability,liberal,no,m,0,0.720073878172,-3,47
2019_Mar_27,1,001,4,recog,25,GENERAL,HF,lure,-,-,-,conservative,no,m,1,0.65367664149,3,50
2019_Mar_27,1,001,4,recog,26,MESSED,LF,lure,-,-,-,liberal,no,z,0,1.07997847297,-1,49
2019_Mar_27,1,001,4,recog,27,OBVIOUSLY,HF,target,right,yellow,imageability,conservative,no,m,0,0.840099877774,-1,48
2019_Mar_27,1,001,4,recog,28,HIMSELF,HF,target,right,yellow,imageability,liberal,no,z,1,1.01336493954,3,51
2019_Mar_27,1,001,4,recog,29,TULIPS,LF,lure,-,-,-,conservative,no,z,0,1.0263852707,-3,48
2019_Mar_27,1,001,4,recog,30,HUNDRED,HF,lure,-,-,-,liberal,no,m,1,0.813416190875,1,49
2019_Mar_27,1,001,4,recog,31,AFFABLE,LF,target,right,yellow,imageability,conservative,no,m,0,0.82673567144,-1,48
2019_Mar_27,1,001,4,recog,32,WANTED,HF,target,right,yellow,imageability,conservative,no,z,1,1.14660190473,1,49
2019_Mar_27,1,001,4,recog,33,EAVES,LF,lure,-,-,-,conservative,no,m,1,0.933305446939,3,52
2019_Mar_27,1,001,4,recog,34,MILES,HF,lure,-,-,-,conservative,no,m,1,1.23987896181,3,55
2019_Mar_27,1,001,4,recog,35,ALONE,HF,lure,-,-,-,conservative,no,z,0,1.05330541761,-3,52
2019_Mar_27,1,001,4,recog,36,OFTEN,HF,target,right,yellow,imageability,conservative,no,m,0,0.680099305871,-1,51
2019_Mar_27,1,001,4,recog,37,GETTING,HF,target,left,aqua,pleasantness,liberal,no,m,0,0.693518869508,-3,48
2019_Mar_27,1,001,4,recog,38,TIMES,HF,lure,-,-,-,liberal,no,z,0,1.0666190325,-1,47
2019_Mar_27,1,001,4,recog,39,SUCCESS,HF,target,right,yellow,imageability,liberal,no,m,0,1.78647588071,-3,44
2019_Mar_27,1,001,4,recog,40,POACHED,LF,target,right,yellow,imageability,conservative,no,m,0,1.33317581553,-1,43
2019_Mar_27,1,001,4,recog,41,MALIGNED,LF,target,left,aqua,pleasantness,liberal,no,m,0,0.65346181116,-3,40
2019_Mar_27,1,001,4,recog,42,CANNOT,HF,lure,-,-,-,conservative,no,z,0,1.62639538899,-3,37
2019_Mar_27,1,001,4,recog,43,BUTCHERED,LF,lure,-,-,-,liberal,no,m,1,0.800032921099,1,38
2019_Mar_27,1,001,4,recog,44,VEGAN,LF,target,left,aqua,pleasantness,liberal,no,m,0,1.30657938054,-3,35
2019_Mar_27,1,001,4,recog,45,VOICE,HF,target,right,yellow,imageability,conservative,no,z,1,1.74613726998,1,36
2019_Mar_27,1,001,4,recog,46,BEGAN,HF,target,left,aqua,pleasantness,conservative,no,z,1,1.18654458243,1,37
2019_Mar_27,1,001,4,recog,47,DIVAN,LF,target,right,yellow,imageability,liberal,no,z,1,1.47991226417,3,40
2019_Mar_27,1,001,4,recog,48,UPKEEP,LF,lure,-,-,-,liberal,no,m,1,1.21328545965,1,41
2019_Mar_27,1,001,4,recog,49,EIGHT,HF,lure,-,-,-,liberal,no,z,0,0.986429761846,-1,40
2019_Mar_27,1,001,4,recog,50,MOGUL,LF,target,right,yellow,imageability,liberal,no,m,0,1.49313202827,-3,37
2019_Mar_27,1,001,4,recog,51,AFRAID,HF,lure,-,-,-,liberal,no,m,1,0.826517908272,1,38
2019_Mar_27,1,001,4,recog,52,FUSELAGE,LF,lure,-,-,-,liberal,no,m,1,1.81297919812,1,39
2019_Mar_27,1,001,4,recog,53,BLEACH,LF,lure,-,-,-,liberal,no,m,1,1.18660653861,1,40
2019_Mar_27,1,001,4,recog,54,STUDENT,HF,target,right,yellow,imageability,liberal,no,m,0,0.760056515774,-3,37
2019_Mar_27,1,001,4,recog,55,ARBITER,LF,lure,-,-,-,conservative,no,m,1,1.30653355496,3,40
2019_Mar_27,1,001,4,recog,56,VISCOUS,LF,target,left,aqua,pleasantness,liberal,no,m,0,0.73356822916,-3,37
2019_Mar_27,1,001,4,recog,57,JANGLING,LF,lure,-,-,-,liberal,no,m,1,0.666894572565,1,38
2019_Mar_27,1,001,4,recog,58,HEIFERS,LF,lure,-,-,-,liberal,no,m,1,0.666506704832,1,39
2019_Mar_27,1,001,4,recog,59,LULLED,LF,lure,-,-,-,conservative,no,m,1,0.879990497608,3,42
2019_Mar_27,1,001,4,recog,60,WHITE,HF,target,left,aqua,pleasantness,liberal,no,z,1,1.14657954185,3,45
2019_Mar_27,1,001,4,recog,61,LOTTERY,LF,target,right,yellow,imageability,conservative,no,m,0,1.02667965425,-1,44
2019_Mar_27,1,001,4,recog,62,SEEMED,HF,target,left,aqua,pleasantness,liberal,no,z,1,1.01305882465,3,47
2019_Mar_27,1,001,4,recog,63,SECOND,HF,target,right,yellow,imageability,liberal,no,z,1,0.919770402834,3,50
2019_Mar_27,1,001,4,recog,64,STAFF,HF,target,left,aqua,pleasantness,liberal,no,m,0,0.893374867197,-3,47
2019_Mar_27,1,001,4,recog,65,NEMESIS,LF,lure,-,-,-,conservative,no,m,1,0.720195957525,3,50
2019_Mar_27,1,001,4,recog,66,WALKED,HF,lure,-,-,-,conservative,no,z,0,1.25326553102,-3,47
2019_Mar_27,1,001,4,recog,67,SUPPORT,HF,target,left,aqua,pleasantness,conservative,no,m,0,1.25332418777,-1,46
2019_Mar_27,1,001,4,recog,68,HARDLY,HF,target,left,aqua,pleasantness,liberal,no,z,1,1.58620268692,3,49
2019_Mar_27,1,001,4,recog,69,VIVACIOUS,LF,target,left,aqua,pleasantness,conservative,no,m,0,0.679831317862,-1,48
2019_Mar_27,1,001,4,recog,70,UNLESS,HF,lure,-,-,-,liberal,no,m,1,1.17333325024,1,49
2019_Mar_27,1,001,4,recog,71,POOLED,LF,target,right,yellow,imageability,conservative,no,m,0,0.906707545531,-1,48
2019_Mar_27,1,001,4,recog,72,BETTER,HF,target,right,yellow,imageability,conservative,no,z,1,1.26656521494,1,49
2019_Mar_27,1,001,4,recog,73,URBANE,LF,lure,-,-,-,liberal,no,z,0,0.973320345753,-1,48
2019_Mar_27,1,001,4,recog,74,RAKING,LF,target,left,aqua,pleasantness,conservative,no,m,0,0.693433450622,-1,47
2019_Mar_27,1,001,4,recog,75,RIVER,HF,target,right,yellow,imageability,liberal,no,z,1,0.97340429822,3,50
2019_Mar_27,1,001,4,recog,76,BALDING,LF,target,right,yellow,imageability,liberal,no,m,0,1.26653038749,-3,47
2019_Mar_27,1,001,4,recog,77,PUBLIC,HF,lure,-,-,-,liberal,no,m,1,1.61314776294,1,48
2019_Mar_27,1,001,4,recog,78,DIETING,LF,target,left,aqua,pleasantness,liberal,no,m,0,0.999927778883,-3,45
2019_Mar_27,1,001,4,recog,79,HOTEL,HF,lure,-,-,-,liberal,no,m,1,1.02701289789,1,46
2019_Mar_27,1,001,4,recog,80,ATROCITY,LF,lure,-,-,-,conservative,no,z,0,2.1196722261,-3,43
2019_Mar_27,1,001,4,recog,81,SUMMER,HF,lure,-,-,-,liberal,no,z,0,1.07993081437,-1,42
2019_Mar_27,1,001,4,recog,82,TREES,HF,target,left,aqua,pleasantness,conservative,no,z,1,0.946840491044,1,43
2019_Mar_27,1,001,4,recog,83,PIVOT,LF,target,right,yellow,imageability,liberal,no,m,0,4.45192933035,-3,40
2019_Mar_27,1,001,4,recog,84,GIRLS,HF,lure,-,-,-,conservative,no,z,0,0.826714408369,-3,37
2019_Mar_27,1,001,4,recog,85,SCHOOL,HF,lure,-,-,-,liberal,no,z,0,1.42643747521,-1,36
2019_Mar_27,1,001,4,recog,86,RADIAL,LF,lure,-,-,-,liberal,no,m,1,0.906660253529,1,37
2019_Mar_27,1,001,4,recog,87,SENSE,HF,lure,-,-,-,conservative,no,z,0,1.69302358661,-3,34
2019_Mar_27,1,001,4,recog,88,DAWDLING,LF,lure,-,-,-,liberal,no,m,1,0.706733134535,1,35
2019_Mar_27,1,001,4,recog,89,HIGHER,HF,target,left,aqua,pleasantness,conservative,no,z,1,0.879861452766,1,36
2019_Mar_27,1,001,4,recog,90,YOUNG,HF,target,left,aqua,pleasantness,conservative,no,z,1,0.946707780158,1,37
2019_Mar_27,1,001,4,recog,91,OATHS,LF,lure,-,-,-,liberal,yes,m,1,1.00010851498,1,38
2019_Mar_27,1,001,4,recog,92,TUSKS,LF,lure,-,-,-,conservative,no,m,1,1.05327095677,3,41
2019_Mar_27,1,001,4,recog,93,REWRITE,LF,target,left,aqua,pleasantness,conservative,no,m,0,2.70602448772,-1,40
2019_Mar_27,1,001,4,recog,94,USUAL,HF,lure,-,-,-,conservative,no,m,1,0.746743267489,3,43
2019_Mar_27,1,001,4,recog,95,DALES,LF,target,left,aqua,pleasantness,conservative,no,m,0,0.653540997766,-1,42
