date,subj,session,cycle,task,trial,item,wf,type,source,colour,encoding,bias,null,response,corr,rt,points,total
2019_Sep_30,10,001,0,source,0,TOILED,LF,target,right,aqua,imageability,liberal,no,8,1,3.53341943686,-,-
2019_Sep_30,10,001,0,source,1,CHIEF,HF,target,right,aqua,imageability,liberal,no,9,1,1.93355596094,-,-
2019_Sep_30,10,001,0,source,2,LIMELIGHT,LF,target,left,yellow,pleasantness,conservative,no,1,1,1.24997727043,-,-
2019_Sep_30,10,001,0,source,3,GETTING,HF,target,right,aqua,imageability,conservative,yes,3,0,0.984826544034,-,-
2019_Sep_30,10,001,0,source,4,SIBLINGS,LF,target,right,aqua,imageability,conservative,no,9,1,2.81683484106,-,-
2019_Sep_30,10,001,0,source,5,INSIDE,HF,target,right,aqua,imageability,liberal,no,8,1,2.5499339376,-,-
2019_Sep_30,10,001,0,source,6,ELUDE,LF,target,right,aqua,imageability,liberal,no,3,0,2.06694518947,-,-
2019_Sep_30,10,001,0,source,7,SAYING,HF,target,left,yellow,pleasantness,liberal,no,7,0,2.38341232471,-,-
2019_Sep_30,10,001,0,source,8,UNION,HF,target,left,yellow,pleasantness,conservative,no,2,1,2.71685075176,-,-
2019_Sep_30,10,001,0,source,9,JASMINE,LF,target,right,aqua,imageability,conservative,no,8,1,2.83347068838,-,-
2019_Sep_30,10,001,0,source,10,SPEAK,HF,target,left,yellow,pleasantness,liberal,no,7,0,1.93347017514,-,-
2019_Sep_30,10,001,0,source,11,EDUCATION,HF,target,left,yellow,pleasantness,liberal,yes,7,0,0.950239467043,-,-
2019_Sep_30,10,001,0,source,12,LOLLED,LF,target,left,yellow,pleasantness,liberal,no,1,1,2.16687392126,-,-
2019_Sep_30,10,001,0,source,13,UNRAVEL,LF,target,right,aqua,imageability,conservative,no,7,1,1.98346020345,-,-
2019_Sep_30,10,001,0,source,14,BASIC,HF,target,left,yellow,pleasantness,conservative,no,2,1,1.10018645581,-,-
2019_Sep_30,10,001,0,source,15,BUSINESS,HF,target,right,aqua,imageability,liberal,no,3,0,2.86676951187,-,-
2019_Sep_30,10,001,0,source,16,THING,HF,target,left,yellow,pleasantness,liberal,no,2,1,2.01666150974,-,-
2019_Sep_30,10,001,0,source,17,MOMENT,HF,target,right,aqua,imageability,liberal,no,7,1,1.2502624899,-,-
2019_Sep_30,10,001,0,source,18,LAUNCHER,LF,target,left,yellow,pleasantness,conservative,no,7,0,1.68363734747,-,-
2019_Sep_30,10,001,0,source,19,CESSATION,LF,target,left,yellow,pleasantness,liberal,no,7,0,1.70023983365,-,-
2019_Sep_30,10,001,0,source,20,PYJAMA,LF,target,left,yellow,pleasantness,liberal,no,1,1,1.60003798038,-,-
2019_Sep_30,10,001,0,source,21,HUNDRED,HF,target,right,aqua,imageability,conservative,no,9,1,1.20019510772,-,-
2019_Sep_30,10,001,0,source,22,PURCHASER,LF,target,left,yellow,pleasantness,conservative,no,8,0,2.38344971852,-,-
2019_Sep_30,10,001,0,source,23,HOTEL,HF,target,right,aqua,imageability,conservative,no,9,1,1.99997507079,-,-
2019_Sep_30,10,001,0,source,24,TYRANTS,LF,target,left,yellow,pleasantness,conservative,no,1,1,1.533329985,-,-
2019_Sep_30,10,001,0,source,25,CAPITAL,HF,target,right,aqua,imageability,conservative,no,9,1,1.43333489752,-,-
2019_Sep_30,10,001,0,source,26,UPTIGHT,LF,target,left,yellow,pleasantness,liberal,no,1,1,1.48329376433,-,-
2019_Sep_30,10,001,0,source,27,THYROID,LF,target,right,aqua,imageability,conservative,no,9,1,1.48327946669,-,-
2019_Sep_30,10,001,0,source,28,SUNBURN,LF,target,right,aqua,imageability,liberal,no,8,1,1.75023279481,-,-
2019_Sep_30,10,001,0,source,29,SUPPORT,HF,target,left,yellow,pleasantness,liberal,no,2,1,1.46692187333,-,-
2019_Sep_30,10,001,0,source,30,SIDED,LF,target,right,aqua,imageability,liberal,no,8,1,1.58342779548,-,-
2019_Sep_30,10,001,0,source,31,CICADAS,LF,target,left,yellow,pleasantness,conservative,no,1,1,1.63353293808,-,-
2019_Sep_30,10,001,0,source,32,TELEPHONE,HF,target,right,aqua,imageability,conservative,no,9,1,2.6167955409,-,-
2019_Sep_30,10,001,0,source,33,HORDE,LF,target,right,aqua,imageability,conservative,no,9,1,1.65020544601,-,-
2019_Sep_30,10,001,0,source,34,SLEEP,HF,target,left,yellow,pleasantness,conservative,no,1,1,1.33350991523,-,-
2019_Sep_30,10,001,0,source,35,LOITERING,LF,target,right,aqua,imageability,conservative,no,9,1,0.933368991878,-,-
2019_Sep_30,10,001,0,source,36,NEITHER,HF,target,left,yellow,pleasantness,liberal,no,1,1,2.45015844712,-,-
2019_Sep_30,10,001,0,source,37,VARIOUS,HF,target,right,aqua,imageability,liberal,no,8,1,2.31686673578,-,-
2019_Sep_30,10,001,0,source,38,CANNOT,HF,target,left,yellow,pleasantness,conservative,yes,3,1,0.833627229148,-,-
2019_Sep_30,10,001,0,source,39,MOVED,HF,target,right,aqua,imageability,liberal,no,8,1,2.23329889681,-,-
2019_Sep_30,10,001,0,source,40,MARKET,HF,target,left,yellow,pleasantness,conservative,no,3,1,1.41690984865,-,-
2019_Sep_30,10,001,0,source,41,AIDING,LF,target,left,yellow,pleasantness,liberal,yes,3,1,1.16688052017,-,-
2019_Sep_30,10,001,0,source,42,UNFAILING,LF,target,left,yellow,pleasantness,liberal,no,1,1,3.36681863708,-,-
2019_Sep_30,10,001,0,source,43,JUMBO,LF,target,left,yellow,pleasantness,conservative,no,1,1,1.28351512103,-,-
2019_Sep_30,10,001,0,source,44,EITHER,HF,target,left,yellow,pleasantness,conservative,no,1,1,0.63361029195,-,-
2019_Sep_30,10,001,0,source,45,JOWLS,LF,target,right,aqua,imageability,liberal,no,8,1,3.06678571586,-,-
2019_Sep_30,10,001,0,source,46,REPORT,HF,target,right,aqua,imageability,conservative,no,8,1,2.63348417948,-,-
2019_Sep_30,10,001,0,source,47,RAIDER,LF,target,right,aqua,imageability,liberal,no,7,1,2.31682897537,-,-
2019_Sep_30,10,001,0,recog,0,MARKET,HF,target,left,yellow,pleasantness,conservative,no,z,1,3.0667149609,1,1
2019_Sep_30,10,001,0,recog,1,BOOKS,HF,lure,-,-,-,liberal,no,m,1,3.11674604909,1,2
2019_Sep_30,10,001,0,recog,2,MOMENT,HF,target,right,aqua,imageability,liberal,no,z,1,2.75019943367,3,5
2019_Sep_30,10,001,0,recog,3,EITHER,HF,target,left,yellow,pleasantness,conservative,no,z,1,1.15022634255,1,6
2019_Sep_30,10,001,0,recog,4,SLACKEN,LF,lure,-,-,-,conservative,no,m,1,1.5169093354,3,9
2019_Sep_30,10,001,0,recog,5,THYROID,LF,target,right,aqua,imageability,conservative,no,z,1,1.0000304283,1,10
2019_Sep_30,10,001,0,recog,6,CESSATION,LF,target,left,yellow,pleasantness,liberal,no,z,1,0.983545256045,3,13
2019_Sep_30,10,001,0,recog,7,WRITE,HF,lure,-,-,-,liberal,yes,z,0,1.85018022351,-1,12
2019_Sep_30,10,001,0,recog,8,NEITHER,HF,target,left,yellow,pleasantness,liberal,no,z,1,1.51690236989,3,15
2019_Sep_30,10,001,0,recog,9,HUNDRED,HF,target,right,aqua,imageability,conservative,no,z,1,2.01688367298,1,16
2019_Sep_30,10,001,0,recog,10,VOWEL,LF,lure,-,-,-,conservative,no,m,1,0.817002380006,3,19
2019_Sep_30,10,001,0,recog,11,SINCE,HF,lure,-,-,-,conservative,no,m,1,2.38347721397,3,22
2019_Sep_30,10,001,0,recog,12,FEUDALISM,LF,lure,-,-,-,liberal,no,m,1,0.916866589142,1,23
2019_Sep_30,10,001,0,recog,13,TRUTH,HF,lure,-,-,-,liberal,no,m,1,1.4501577139,1,24
2019_Sep_30,10,001,0,recog,14,USUAL,HF,lure,-,-,-,liberal,no,m,1,0.650202146551,1,25
2019_Sep_30,10,001,0,recog,15,ELUDE,LF,target,right,aqua,imageability,liberal,no,z,1,1.51680411948,3,28
2019_Sep_30,10,001,0,recog,16,TAWNY,LF,lure,-,-,-,liberal,yes,m,1,0.766943063154,1,29
2019_Sep_30,10,001,0,recog,17,JASMINE,LF,target,right,aqua,imageability,conservative,no,z,1,1.0835634397,1,30
2019_Sep_30,10,001,0,recog,18,CICADAS,LF,target,left,yellow,pleasantness,conservative,no,z,1,0.800212558162,1,31
2019_Sep_30,10,001,0,recog,19,JUMBO,LF,target,left,yellow,pleasantness,conservative,no,z,1,0.683620483597,1,32
2019_Sep_30,10,001,0,recog,20,SLEEP,HF,target,left,yellow,pleasantness,conservative,no,z,1,0.56697268492,1,33
2019_Sep_30,10,001,0,recog,21,PROBABLY,HF,lure,-,-,-,liberal,no,m,1,1.36683146829,1,34
2019_Sep_30,10,001,0,recog,22,SIDED,LF,target,right,aqua,imageability,liberal,no,z,1,0.816696263992,3,37
2019_Sep_30,10,001,0,recog,23,WANTED,HF,lure,-,-,-,conservative,no,m,1,1.26684517935,3,40
2019_Sep_30,10,001,0,recog,24,HOTEL,HF,target,right,aqua,imageability,conservative,no,z,1,0.633593428074,1,41
2019_Sep_30,10,001,0,recog,25,ALKALINE,LF,lure,-,-,-,conservative,no,m,1,0.883415990767,3,44
2019_Sep_30,10,001,0,recog,26,JABBED,LF,lure,-,-,-,liberal,no,m,1,0.766873041407,1,45
2019_Sep_30,10,001,0,recog,27,UNION,HF,target,left,yellow,pleasantness,conservative,no,z,1,0.616921286758,1,46
2019_Sep_30,10,001,0,recog,28,RALLIED,LF,lure,-,-,-,liberal,no,m,1,1.00036330655,1,47
2019_Sep_30,10,001,0,recog,29,UPTIGHT,LF,target,left,yellow,pleasantness,liberal,no,z,1,1.53356131339,3,50
2019_Sep_30,10,001,0,recog,30,VALUE,HF,lure,-,-,-,conservative,no,m,1,1.06690669584,3,53
2019_Sep_30,10,001,0,recog,31,PYJAMA,LF,target,left,yellow,pleasantness,liberal,no,z,1,0.583579203761,3,56
2019_Sep_30,10,001,0,recog,32,HIMSELF,HF,lure,-,-,-,liberal,no,m,1,0.86693118512,1,57
2019_Sep_30,10,001,0,recog,33,DALES,LF,lure,-,-,-,liberal,no,m,1,0.766894304556,1,58
2019_Sep_30,10,001,0,recog,34,TOILED,LF,target,right,aqua,imageability,liberal,no,z,1,2.40024980533,3,61
2019_Sep_30,10,001,0,recog,35,SUNBURN,LF,target,right,aqua,imageability,liberal,no,z,1,0.683329031823,3,64
2019_Sep_30,10,001,0,recog,36,HIGHER,HF,lure,-,-,-,conservative,no,m,1,1.18352553264,3,67
2019_Sep_30,10,001,0,recog,37,LOLLED,LF,target,left,yellow,pleasantness,liberal,no,z,1,1.40016805219,3,70
2019_Sep_30,10,001,0,recog,38,VARIOUS,HF,target,right,aqua,imageability,liberal,no,z,1,1.16685045848,3,73
2019_Sep_30,10,001,0,recog,39,WOMAN,HF,lure,-,-,-,conservative,no,m,1,0.750196134213,3,76
2019_Sep_30,10,001,0,recog,40,BUDDIES,LF,lure,-,-,-,conservative,no,m,1,0.816916594201,3,79
2019_Sep_30,10,001,0,recog,41,BYGONE,LF,lure,-,-,-,liberal,no,m,1,2.10007830704,1,80
2019_Sep_30,10,001,0,recog,42,INVOLVED,HF,lure,-,-,-,liberal,no,m,1,1.55021219156,1,81
2019_Sep_30,10,001,0,recog,43,SYSTEM,HF,lure,-,-,-,conservative,no,m,1,0.733572384889,3,84
2019_Sep_30,10,001,0,recog,44,INDEED,HF,lure,-,-,-,conservative,no,m,1,0.950271361765,3,87
2019_Sep_30,10,001,0,recog,45,CAPITAL,HF,target,right,aqua,imageability,conservative,no,z,1,0.700195474322,1,88
2019_Sep_30,10,001,0,recog,46,POUNDS,HF,lure,-,-,-,conservative,no,m,1,0.817041240243,3,91
2019_Sep_30,10,001,0,recog,47,ORDER,HF,lure,-,-,-,conservative,no,m,1,1.20019584093,3,94
2019_Sep_30,10,001,0,recog,48,BUSINESS,HF,target,right,aqua,imageability,liberal,no,z,1,1.08352457947,3,97
2019_Sep_30,10,001,0,recog,49,REPORT,HF,target,right,aqua,imageability,conservative,no,z,1,1.9668470857,1,98
2019_Sep_30,10,001,0,recog,50,JOVIAL,LF,lure,-,-,-,liberal,no,m,1,0.799999926679,1,99
2019_Sep_30,10,001,0,recog,51,ADDED,HF,lure,-,-,-,conservative,no,m,1,0.98360904549,3,102
2019_Sep_30,10,001,0,recog,52,KITCHEN,HF,lure,-,-,-,liberal,no,m,1,0.983561753315,1,103
2019_Sep_30,10,001,0,recog,53,JOWLS,LF,target,right,aqua,imageability,liberal,no,z,1,0.78356937872,3,106
2019_Sep_30,10,001,0,recog,54,AWAITS,LF,lure,-,-,-,conservative,no,m,1,1.90018198322,3,109
2019_Sep_30,10,001,0,recog,55,SUPPORT,HF,target,left,yellow,pleasantness,liberal,no,z,1,0.83351688074,3,112
2019_Sep_30,10,001,0,recog,56,RAIDER,LF,target,right,aqua,imageability,liberal,no,z,1,1.13353623754,3,115
2019_Sep_30,10,001,0,recog,57,ADMIRALS,LF,lure,-,-,-,conservative,no,m,1,0.900187482311,3,118
2019_Sep_30,10,001,0,recog,58,LIMELIGHT,LF,target,left,yellow,pleasantness,conservative,no,z,1,0.816902663173,1,119
2019_Sep_30,10,001,0,recog,59,SPEAK,HF,target,left,yellow,pleasantness,liberal,no,z,1,0.73350712902,3,122
2019_Sep_30,10,001,0,recog,60,ANEMONES,LF,lure,-,-,-,liberal,no,m,1,0.700198773776,1,123
2019_Sep_30,10,001,0,recog,61,THING,HF,target,left,yellow,pleasantness,liberal,no,z,1,0.616867029069,3,126
2019_Sep_30,10,001,0,recog,62,AQUARIUM,LF,lure,-,-,-,liberal,yes,m,1,0.866645232436,1,127
2019_Sep_30,10,001,0,recog,63,LAUNCHER,LF,target,left,yellow,pleasantness,conservative,no,z,1,3.06663724042,1,128
2019_Sep_30,10,001,0,recog,64,AIDING,LF,target,left,yellow,pleasantness,liberal,no,z,1,1.25021849718,3,131
2019_Sep_30,10,001,0,recog,65,CANNOT,HF,target,left,yellow,pleasantness,conservative,no,z,1,0.733521426655,1,132
2019_Sep_30,10,001,0,recog,66,INSIDE,HF,target,right,aqua,imageability,liberal,no,z,1,0.683608018993,3,135
2019_Sep_30,10,001,0,recog,67,UNMADE,LF,lure,-,-,-,liberal,yes,m,1,0.916901783318,1,136
2019_Sep_30,10,001,0,recog,68,RATHER,HF,lure,-,-,-,liberal,no,m,1,2.16667082153,1,137
2019_Sep_30,10,001,0,recog,69,PURCHASER,LF,target,left,yellow,pleasantness,conservative,no,z,1,0.8336242963,1,138
2019_Sep_30,10,001,0,recog,70,UNFAILING,LF,target,left,yellow,pleasantness,liberal,no,z,1,0.900270701875,3,141
2019_Sep_30,10,001,0,recog,71,WEDGES,LF,lure,-,-,-,conservative,no,m,1,0.8168799336,3,144
2019_Sep_30,10,001,0,recog,72,AUDACIOUS,LF,lure,-,-,-,liberal,no,m,1,0.916733144556,1,145
2019_Sep_30,10,001,0,recog,73,SEDAN,LF,lure,-,-,-,conservative,no,m,1,0.750284852866,3,148
2019_Sep_30,10,001,0,recog,74,SAYING,HF,target,left,yellow,pleasantness,liberal,no,z,1,1.36671452097,3,151
2019_Sep_30,10,001,0,recog,75,CHIEF,HF,target,right,aqua,imageability,liberal,no,z,1,0.650288298963,3,154
2019_Sep_30,10,001,0,recog,76,SORRY,HF,lure,-,-,-,liberal,no,m,1,0.700040766588,1,155
2019_Sep_30,10,001,0,recog,77,GARDEN,HF,lure,-,-,-,conservative,no,m,1,1.06668379939,3,158
2019_Sep_30,10,001,0,recog,78,HORDE,LF,target,right,aqua,imageability,conservative,no,z,1,0.716855884246,1,159
2019_Sep_30,10,001,0,recog,79,BASIC,HF,target,left,yellow,pleasantness,conservative,no,z,1,0.700248265587,1,160
2019_Sep_30,10,001,0,recog,80,FUTURE,HF,lure,-,-,-,liberal,no,m,1,1.00018660246,1,161
2019_Sep_30,10,001,0,recog,81,UNSAVOURY,LF,lure,-,-,-,conservative,no,m,1,0.866799573564,3,164
2019_Sep_30,10,001,0,recog,82,MOVED,HF,target,right,aqua,imageability,liberal,no,z,1,1.15017061844,3,167
2019_Sep_30,10,001,0,recog,83,BOMBARDED,LF,lure,-,-,-,conservative,no,m,1,1.33352164662,3,170
2019_Sep_30,10,001,0,recog,84,GETTING,HF,target,right,aqua,imageability,conservative,no,z,1,1.06690083014,1,171
2019_Sep_30,10,001,0,recog,85,EASILY,HF,lure,-,-,-,conservative,no,m,1,1.000231695,3,174
2019_Sep_30,10,001,0,recog,86,SIBLINGS,LF,target,right,aqua,imageability,conservative,no,z,1,0.900198113885,1,175
2019_Sep_30,10,001,0,recog,87,OPPOSES,LF,lure,-,-,-,conservative,no,m,1,2.48348036678,3,178
2019_Sep_30,10,001,0,recog,88,BANALITY,LF,lure,-,-,-,conservative,no,m,1,0.700266229281,3,181
2019_Sep_30,10,001,0,recog,89,UNRAVEL,LF,target,right,aqua,imageability,conservative,no,z,1,0.750213364695,1,182
2019_Sep_30,10,001,0,recog,90,REBATE,LF,lure,-,-,-,liberal,no,m,1,0.700253764677,1,183
2019_Sep_30,10,001,0,recog,91,EDUCATION,HF,target,left,yellow,pleasantness,liberal,no,z,1,0.750268355596,3,186
2019_Sep_30,10,001,0,recog,92,LOITERING,LF,target,right,aqua,imageability,conservative,no,z,1,0.750267255778,1,187
2019_Sep_30,10,001,0,recog,93,CAUGHT,HF,lure,-,-,-,liberal,no,m,1,0.916915714346,1,188
2019_Sep_30,10,001,0,recog,94,TELEPHONE,HF,target,right,aqua,imageability,conservative,no,z,1,0.566820543427,1,189
2019_Sep_30,10,001,0,recog,95,TYRANTS,LF,target,left,yellow,pleasantness,conservative,no,z,1,0.750294018016,1,190
2019_Sep_30,10,001,1,source,0,PECKED,LF,target,right,aqua,imageability,liberal,no,7,1,2.48349833048,-,-
2019_Sep_30,10,001,1,source,1,FRUGAL,LF,target,right,aqua,imageability,conservative,no,8,1,2.21684305304,-,-
2019_Sep_30,10,001,1,source,2,THOUSAND,HF,target,left,yellow,pleasantness,conservative,no,2,1,1.99997360437,-,-
2019_Sep_30,10,001,1,source,3,VEILING,LF,target,left,yellow,pleasantness,liberal,no,2,1,1.91666385602,-,-
2019_Sep_30,10,001,1,source,4,ZOOLOGY,LF,target,right,aqua,imageability,conservative,yes,3,0,0.850235581019,-,-
2019_Sep_30,10,001,1,source,5,GYMKHANA,LF,target,left,yellow,pleasantness,conservative,no,1,1,0.983614177974,-,-
2019_Sep_30,10,001,1,source,6,ASTERN,LF,target,right,aqua,imageability,liberal,no,3,0,1.98353609089,-,-
2019_Sep_30,10,001,1,source,7,CUDDLE,LF,target,right,aqua,imageability,liberal,no,9,1,2.44995094812,-,-
2019_Sep_30,10,001,1,source,8,GIRLS,HF,target,right,aqua,imageability,conservative,yes,9,1,0.700243866315,-,-
2019_Sep_30,10,001,1,source,9,NUCLEAR,HF,target,right,aqua,imageability,conservative,no,9,1,1.4835423232,-,-
2019_Sep_30,10,001,1,source,10,ZENITH,LF,target,left,yellow,pleasantness,liberal,no,3,1,1.88354686911,-,-
2019_Sep_30,10,001,1,source,11,CUSTODIAN,LF,target,left,yellow,pleasantness,conservative,no,1,1,1.70030655594,-,-
2019_Sep_30,10,001,1,source,12,BINDINGS,LF,target,left,yellow,pleasantness,liberal,no,3,1,1.20026952874,-,-
2019_Sep_30,10,001,1,source,13,ITSELF,HF,target,right,aqua,imageability,liberal,no,9,1,1.45023800062,-,-
2019_Sep_30,10,001,1,source,14,TRIED,HF,target,left,yellow,pleasantness,liberal,no,1,1,1.43333269788,-,-
2019_Sep_30,10,001,1,source,15,PARENTS,HF,target,right,aqua,imageability,conservative,no,9,1,1.21687824721,-,-
2019_Sep_30,10,001,1,source,16,APTLY,LF,target,left,yellow,pleasantness,conservative,no,1,1,1.0668920316,-,-
2019_Sep_30,10,001,1,source,17,WEEKS,HF,target,left,yellow,pleasantness,conservative,no,1,1,1.45016028015,-,-
2019_Sep_30,10,001,1,source,18,TRYING,HF,target,left,yellow,pleasantness,liberal,no,1,1,1.63353513772,-,-
2019_Sep_30,10,001,1,source,19,KEENER,LF,target,right,aqua,imageability,conservative,no,7,1,1.85015126164,-,-
2019_Sep_30,10,001,1,source,20,LIKELY,HF,target,right,aqua,imageability,liberal,no,7,1,1.70020060681,-,-
2019_Sep_30,10,001,1,source,21,BIRCHES,LF,target,left,yellow,pleasantness,conservative,no,2,1,1.6334973773,-,-
2019_Sep_30,10,001,1,source,22,PERHAPS,HF,target,right,aqua,imageability,conservative,no,3,0,2.33352934534,-,-
2019_Sep_30,10,001,1,source,23,WAXEN,LF,target,right,aqua,imageability,liberal,no,7,1,1.20017751063,-,-
2019_Sep_30,10,001,1,source,24,VOUCH,LF,target,left,yellow,pleasantness,liberal,no,3,1,1.16685705739,-,-
2019_Sep_30,10,001,1,source,25,PEGGED,LF,target,left,yellow,pleasantness,conservative,no,3,1,1.48350199654,-,-
2019_Sep_30,10,001,1,source,26,DEMEANOUR,LF,target,left,yellow,pleasantness,conservative,no,2,1,1.58351248147,-,-
2019_Sep_30,10,001,1,source,27,LOCAL,HF,target,left,yellow,pleasantness,conservative,no,1,1,2.86675704727,-,-
2019_Sep_30,10,001,1,source,28,RUGGER,LF,target,right,aqua,imageability,liberal,yes,2,0,0.900276200965,-,-
2019_Sep_30,10,001,1,source,29,CALLED,HF,target,right,aqua,imageability,liberal,no,8,1,3.36674274963,-,-
2019_Sep_30,10,001,1,source,30,HUSBAND,HF,target,right,aqua,imageability,liberal,no,9,1,1.13355420123,-,-
2019_Sep_30,10,001,1,source,31,GIVEN,HF,target,left,yellow,pleasantness,liberal,no,7,0,2.70023726741,-,-
2019_Sep_30,10,001,1,source,32,NIGHT,HF,target,left,yellow,pleasantness,liberal,no,1,1,2.88346218312,-,-
2019_Sep_30,10,001,1,source,33,FAUCET,LF,target,left,yellow,pleasantness,liberal,no,2,1,2.75015030846,-,-
2019_Sep_30,10,001,1,source,34,YONDER,LF,target,right,aqua,imageability,conservative,no,8,1,1.33350698238,-,-
2019_Sep_30,10,001,1,source,35,YOUNG,HF,target,right,aqua,imageability,conservative,no,8,1,1.25030354977,-,-
2019_Sep_30,10,001,1,source,36,OTHERS,HF,target,right,aqua,imageability,liberal,no,9,1,1.1336557511,-,-
2019_Sep_30,10,001,1,source,37,VOYAGES,LF,target,left,yellow,pleasantness,liberal,no,1,1,1.54993577063,-,-
2019_Sep_30,10,001,1,source,38,THANK,HF,target,right,aqua,imageability,conservative,no,3,0,2.78342126989,-,-
2019_Sep_30,10,001,1,source,39,CLASS,HF,target,left,yellow,pleasantness,conservative,no,2,1,2.25019650082,-,-
2019_Sep_30,10,001,1,source,40,GROUND,HF,target,left,yellow,pleasantness,liberal,no,1,1,1.25017193822,-,-
2019_Sep_30,10,001,1,source,41,CHROMIUM,LF,target,right,aqua,imageability,conservative,no,9,1,0.900237707334,-,-
2019_Sep_30,10,001,1,source,42,BRACES,LF,target,right,aqua,imageability,liberal,yes,9,1,0.633634854553,-,-
2019_Sep_30,10,001,1,source,43,ALREADY,HF,target,right,aqua,imageability,liberal,no,8,1,1.95023030189,-,-
2019_Sep_30,10,001,1,source,44,WRONG,HF,target,left,yellow,pleasantness,conservative,no,1,1,1.3333801367,-,-
2019_Sep_30,10,001,1,source,45,WADDLED,LF,target,right,aqua,imageability,conservative,no,9,1,1.08340066664,-,-
2019_Sep_30,10,001,1,source,46,NUMBER,HF,target,left,yellow,pleasantness,liberal,no,1,1,1.11690039022,-,-
2019_Sep_30,10,001,1,source,47,BLOOD,HF,target,left,yellow,pleasantness,conservative,no,1,1,0.700245332739,-,-
2019_Sep_30,10,001,1,recog,0,ITSELF,HF,target,right,aqua,imageability,liberal,no,z,1,1.16687905375,3,193
2019_Sep_30,10,001,1,recog,1,ROSEBUD,LF,lure,-,-,-,conservative,no,m,1,0.716935804356,3,196
2019_Sep_30,10,001,1,recog,2,LETTER,HF,lure,-,-,-,conservative,no,m,1,0.733442239757,3,199
2019_Sep_30,10,001,1,recog,3,CHROMIUM,LF,target,right,aqua,imageability,conservative,no,z,1,0.716890711817,1,200
2019_Sep_30,10,001,1,recog,4,ALONE,HF,lure,-,-,-,liberal,no,m,1,0.783596507565,1,201
2019_Sep_30,10,001,1,recog,5,BROUGHT,HF,lure,-,-,-,liberal,no,m,1,1.05025215161,1,202
2019_Sep_30,10,001,1,recog,6,ZOOLOGY,LF,target,right,aqua,imageability,conservative,no,z,1,0.866970411962,1,203
2019_Sep_30,10,001,1,recog,7,IRISES,LF,lure,-,-,-,liberal,no,m,1,0.766885506012,1,204
2019_Sep_30,10,001,1,recog,8,YOUNG,HF,target,right,aqua,imageability,conservative,no,z,1,0.81685610421,1,205
2019_Sep_30,10,001,1,recog,9,PECKED,LF,target,right,aqua,imageability,liberal,no,z,1,0.650246139272,3,208
2019_Sep_30,10,001,1,recog,10,TRIED,HF,target,left,yellow,pleasantness,liberal,no,z,1,0.633493344635,3,211
2019_Sep_30,10,001,1,recog,11,STAFF,HF,lure,-,-,-,conservative,no,m,1,1.60024437956,3,214
2019_Sep_30,10,001,1,recog,12,HUMAN,HF,lure,-,-,-,liberal,no,m,1,1.81685720403,1,215
2019_Sep_30,10,001,1,recog,13,HARDLY,HF,lure,-,-,-,liberal,no,m,1,1.10025977702,1,216
2019_Sep_30,10,001,1,recog,14,KEENER,LF,target,right,aqua,imageability,conservative,no,z,1,0.850040180018,1,217
2019_Sep_30,10,001,1,recog,15,DAUGHTER,HF,lure,-,-,-,liberal,no,m,1,0.716929205448,1,218
2019_Sep_30,10,001,1,recog,16,SYMBOLIZE,LF,lure,-,-,-,liberal,no,m,1,0.650297464113,1,219
2019_Sep_30,10,001,1,recog,17,POLICE,HF,lure,-,-,-,conservative,no,m,1,0.833629062178,3,222
2019_Sep_30,10,001,1,recog,18,FLYWHEEL,LF,lure,-,-,-,conservative,no,m,1,1.64999904682,3,225
2019_Sep_30,10,001,1,recog,19,DOUBT,HF,lure,-,-,-,conservative,no,m,1,0.833620996846,3,228
2019_Sep_30,10,001,1,recog,20,APTLY,LF,target,left,yellow,pleasantness,conservative,no,z,1,0.716863949579,1,229
2019_Sep_30,10,001,1,recog,21,DROLL,LF,lure,-,-,-,liberal,no,m,1,0.849983356087,1,230
2019_Sep_30,10,001,1,recog,22,WRONG,HF,target,left,yellow,pleasantness,conservative,no,z,1,1.0666966306,1,231
2019_Sep_30,10,001,1,recog,23,CARRIED,HF,lure,-,-,-,conservative,no,m,1,0.783473327947,3,234
2019_Sep_30,10,001,1,recog,24,LANGUAGE,HF,lure,-,-,-,liberal,no,m,1,1.00026468954,1,235
2019_Sep_30,10,001,1,recog,25,VOYAGES,LF,target,left,yellow,pleasantness,liberal,no,z,1,0.716860650124,3,238
2019_Sep_30,10,001,1,recog,26,CUSTODIAN,LF,target,left,yellow,pleasantness,conservative,yes,m,0,0.850233014777,-1,237
2019_Sep_30,10,001,1,recog,27,TIDILY,LF,lure,-,-,-,liberal,no,m,1,1.66688638587,1,238
2019_Sep_30,10,001,1,recog,28,CUDDLE,LF,target,right,aqua,imageability,liberal,no,z,1,0.616969678751,3,241
2019_Sep_30,10,001,1,recog,29,EMPATHY,LF,lure,-,-,-,conservative,no,m,1,0.950186675778,3,244
2019_Sep_30,10,001,1,recog,30,GREATER,HF,lure,-,-,-,conservative,no,m,1,1.0335070557,3,247
2019_Sep_30,10,001,1,recog,31,DEMEANOUR,LF,target,left,yellow,pleasantness,conservative,no,z,1,0.783574511204,1,248
2019_Sep_30,10,001,1,recog,32,BETTER,HF,lure,-,-,-,conservative,no,m,1,3.0002382939,3,251
2019_Sep_30,10,001,1,recog,33,WADDLED,LF,target,right,aqua,imageability,conservative,no,z,1,0.633542836445,1,252
2019_Sep_30,10,001,1,recog,34,GROUND,HF,target,left,yellow,pleasantness,liberal,no,z,1,0.816742089742,3,255
2019_Sep_30,10,001,1,recog,35,BINDINGS,LF,target,left,yellow,pleasantness,liberal,no,z,1,0.733676134389,3,258
2019_Sep_30,10,001,1,recog,36,METABOLIC,LF,lure,-,-,-,liberal,no,m,1,0.883566665836,1,259
2019_Sep_30,10,001,1,recog,37,GIRLS,HF,target,right,aqua,imageability,conservative,no,z,1,0.800113941146,1,260
2019_Sep_30,10,001,1,recog,38,FRUGAL,LF,target,right,aqua,imageability,conservative,no,z,1,0.683615351113,1,261
2019_Sep_30,10,001,1,recog,39,PLEASE,HF,lure,-,-,-,liberal,no,m,1,0.833563806309,1,262
2019_Sep_30,10,001,1,recog,40,DYEING,LF,lure,-,-,-,liberal,no,m,1,0.750351208553,1,263
2019_Sep_30,10,001,1,recog,41,ASTERN,LF,target,right,aqua,imageability,liberal,no,z,1,0.833517613952,3,266
2019_Sep_30,10,001,1,recog,42,OTHERS,HF,target,right,aqua,imageability,liberal,no,z,1,0.733572384889,3,269
2019_Sep_30,10,001,1,recog,43,DANDELION,LF,lure,-,-,-,conservative,no,m,1,0.766927299096,3,272
2019_Sep_30,10,001,1,recog,44,ZENITH,LF,target,left,yellow,pleasantness,liberal,no,z,1,0.816899730325,3,275
2019_Sep_30,10,001,1,recog,45,WEEKS,HF,target,left,yellow,pleasantness,conservative,no,z,1,0.783528685453,1,276
2019_Sep_30,10,001,1,recog,46,EXACTLY,HF,lure,-,-,-,liberal,no,m,1,1.66689151835,1,277
2019_Sep_30,10,001,1,recog,47,NUMBER,HF,target,left,yellow,pleasantness,liberal,no,z,1,0.783371044871,3,280
2019_Sep_30,10,001,1,recog,48,OVARIES,LF,lure,-,-,-,liberal,no,m,1,1.06663467418,1,281
2019_Sep_30,10,001,1,recog,49,THANK,HF,target,right,aqua,imageability,conservative,no,z,1,0.767091538587,1,282
2019_Sep_30,10,001,1,recog,50,EMACIATED,LF,lure,-,-,-,conservative,no,m,1,0.833521280012,3,285
2019_Sep_30,10,001,1,recog,51,RUGGER,LF,target,right,aqua,imageability,liberal,no,z,1,0.683565492697,3,288
2019_Sep_30,10,001,1,recog,52,VOUCH,LF,target,left,yellow,pleasantness,liberal,no,z,1,1.00027312147,3,291
2019_Sep_30,10,001,1,recog,53,THOUSAND,HF,target,left,yellow,pleasantness,conservative,no,z,1,0.617006339351,1,292
2019_Sep_30,10,001,1,recog,54,HOLED,LF,lure,-,-,-,liberal,no,m,1,1.4168456926,1,293
2019_Sep_30,10,001,1,recog,55,CHURCH,HF,lure,-,-,-,liberal,no,m,1,1.03350742231,1,294
2019_Sep_30,10,001,1,recog,56,CALLED,HF,target,right,aqua,imageability,liberal,no,z,1,0.683595920995,3,297
2019_Sep_30,10,001,1,recog,57,GYMKHANA,LF,target,left,yellow,pleasantness,conservative,no,z,1,0.700276494249,1,298
2019_Sep_30,10,001,1,recog,58,VEILING,LF,target,left,yellow,pleasantness,liberal,no,z,1,1.30024995197,3,301
2019_Sep_30,10,001,1,recog,59,INACTION,LF,lure,-,-,-,conservative,no,m,1,1.11675228139,3,304
2019_Sep_30,10,001,1,recog,60,ASCEND,LF,lure,-,-,-,conservative,yes,z,0,1.0002624899,-3,301
2019_Sep_30,10,001,1,recog,61,ANSWER,HF,lure,-,-,-,conservative,no,m,1,1.63348967857,3,304
2019_Sep_30,10,001,1,recog,62,LOCAL,HF,target,left,yellow,pleasantness,conservative,no,z,1,0.833567472369,1,305
2019_Sep_30,10,001,1,recog,63,DAGGERS,LF,lure,-,-,-,liberal,no,m,1,2.50011328126,1,306
2019_Sep_30,10,001,1,recog,64,BIRCHES,LF,target,left,yellow,pleasantness,conservative,no,z,1,0.733526925745,1,307
2019_Sep_30,10,001,1,recog,65,LIKELY,HF,target,right,aqua,imageability,liberal,no,z,1,0.750270188626,3,310
2019_Sep_30,10,001,1,recog,66,PARENTS,HF,target,right,aqua,imageability,conservative,yes,m,0,0.866902589852,-1,309
2019_Sep_30,10,001,1,recog,67,DIVAN,LF,lure,-,-,-,liberal,no,m,1,1.90020397958,1,310
2019_Sep_30,10,001,1,recog,68,BELIEVE,HF,lure,-,-,-,conservative,no,m,1,2.21685845049,3,313
2019_Sep_30,10,001,1,recog,69,LEFTISTS,LF,lure,-,-,-,conservative,no,m,1,0.683601786691,3,316
2019_Sep_30,10,001,1,recog,70,FAUCET,LF,target,left,yellow,pleasantness,liberal,yes,z,1,0.866996074383,3,319
2019_Sep_30,10,001,1,recog,71,NUCLEAR,HF,target,right,aqua,imageability,conservative,no,z,1,0.81688909875,1,320
2019_Sep_30,10,001,1,recog,72,CLASS,HF,target,left,yellow,pleasantness,conservative,no,z,1,0.71669861027,1,321
2019_Sep_30,10,001,1,recog,73,ADOPTIVE,LF,lure,-,-,-,liberal,no,m,1,1.11691322143,1,322
2019_Sep_30,10,001,1,recog,74,GIVEN,HF,target,left,yellow,pleasantness,liberal,no,z,1,2.13350544263,3,325
2019_Sep_30,10,001,1,recog,75,ETHER,LF,lure,-,-,-,conservative,no,m,1,1.2835866092,3,328
2019_Sep_30,10,001,1,recog,76,DRINK,HF,lure,-,-,-,conservative,no,m,1,0.716903909633,3,331
2019_Sep_30,10,001,1,recog,77,TABLE,HF,lure,-,-,-,liberal,no,m,1,0.650282066661,1,332
2019_Sep_30,10,001,1,recog,78,GATEHOUSE,LF,lure,-,-,-,liberal,no,m,1,0.633545036081,1,333
2019_Sep_30,10,001,1,recog,79,HUSBAND,HF,target,right,aqua,imageability,liberal,no,z,1,0.666905815984,3,336
2019_Sep_30,10,001,1,recog,80,PEGGED,LF,target,left,yellow,pleasantness,conservative,no,z,1,2.1502292754,1,337
2019_Sep_30,10,001,1,recog,81,NIGHT,HF,target,left,yellow,pleasantness,liberal,no,z,1,0.616884626157,3,340
2019_Sep_30,10,001,1,recog,82,ALREADY,HF,target,right,aqua,imageability,liberal,no,z,1,0.933570625181,3,343
2019_Sep_30,10,001,1,recog,83,UNPACK,LF,lure,-,-,-,conservative,no,m,1,0.850190855087,3,346
2019_Sep_30,10,001,1,recog,84,OBVIOUSLY,HF,lure,-,-,-,liberal,no,m,1,2.08353337801,1,347
2019_Sep_30,10,001,1,recog,85,PERHAPS,HF,target,right,aqua,imageability,conservative,no,z,1,1.53363426798,1,348
2019_Sep_30,10,001,1,recog,86,TRYING,HF,target,left,yellow,pleasantness,liberal,no,z,1,1.05020669247,3,351
2019_Sep_30,10,001,1,recog,87,BRACES,LF,target,right,aqua,imageability,liberal,no,z,1,0.88356996529,3,354
2019_Sep_30,10,001,1,recog,88,FRONT,HF,lure,-,-,-,conservative,no,m,1,1.10022274981,3,357
2019_Sep_30,10,001,1,recog,89,SOMEONE,HF,lure,-,-,-,liberal,no,m,1,2.25018880209,1,358
2019_Sep_30,10,001,1,recog,90,SOCIAL,HF,lure,-,-,-,conservative,no,m,1,0.716866882427,3,361
2019_Sep_30,10,001,1,recog,91,YONDER,LF,target,right,aqua,imageability,conservative,no,z,1,0.800237120764,1,362
2019_Sep_30,10,001,1,recog,92,MIGHTILY,LF,lure,-,-,-,conservative,no,m,1,0.700218203894,3,365
2019_Sep_30,10,001,1,recog,93,NURTURING,LF,lure,-,-,-,conservative,no,m,1,0.667034128086,3,368
2019_Sep_30,10,001,1,recog,94,BLOOD,HF,target,left,yellow,pleasantness,conservative,no,z,1,0.583581036791,1,369
2019_Sep_30,10,001,1,recog,95,WAXEN,LF,target,right,aqua,imageability,liberal,no,z,1,0.916895551016,3,372
2019_Sep_30,10,001,2,source,0,FORCE,HF,target,left,yellow,pleasantness,conservative,no,1,1,2.36679664072,-,-
2019_Sep_30,10,001,2,source,1,SPRATS,LF,target,right,aqua,imageability,conservative,no,3,0,1.61685859713,-,-
2019_Sep_30,10,001,2,source,2,FINAL,HF,target,left,yellow,pleasantness,liberal,no,1,1,1.66678593582,-,-
2019_Sep_30,10,001,2,source,3,TALKING,HF,target,left,yellow,pleasantness,conservative,no,2,1,1.11687729404,-,-
2019_Sep_30,10,001,2,source,4,MORNING,HF,target,left,yellow,pleasantness,conservative,no,1,1,1.33357223825,-,-
2019_Sep_30,10,001,2,source,5,LIVED,HF,target,left,yellow,pleasantness,liberal,no,2,1,1.96684122001,-,-
2019_Sep_30,10,001,2,source,6,GENERAL,HF,target,left,yellow,pleasantness,conservative,no,2,1,1.75018000355,-,-
2019_Sep_30,10,001,2,source,7,CERTAIN,HF,target,left,yellow,pleasantness,conservative,no,2,1,2.63326201625,-,-
2019_Sep_30,10,001,2,source,8,POETICAL,LF,target,right,aqua,imageability,liberal,no,8,1,1.68351270143,-,-
2019_Sep_30,10,001,2,source,9,EDICT,LF,target,left,yellow,pleasantness,conservative,no,7,0,1.20020903874,-,-
2019_Sep_30,10,001,2,source,10,REACHED,HF,target,right,aqua,imageability,conservative,no,8,1,2.46686578261,-,-
2019_Sep_30,10,001,2,source,11,OUGHT,HF,target,right,aqua,imageability,liberal,yes,8,1,1.11693521779,-,-
2019_Sep_30,10,001,2,source,12,WATCH,HF,target,right,aqua,imageability,liberal,no,9,1,2.48323510736,-,-
2019_Sep_30,10,001,2,source,13,DOING,HF,target,left,yellow,pleasantness,liberal,no,1,1,1.01663987999,-,-
2019_Sep_30,10,001,2,source,14,GADGET,LF,target,left,yellow,pleasantness,conservative,no,1,1,0.883550535171,-,-
2019_Sep_30,10,001,2,source,15,HOSPITAL,HF,target,right,aqua,imageability,conservative,no,9,1,0.933559260395,-,-
2019_Sep_30,10,001,2,source,16,TODAY,HF,target,right,aqua,imageability,liberal,no,9,1,2.73343600746,-,-
2019_Sep_30,10,001,2,source,17,SOLEMNITY,LF,target,left,yellow,pleasantness,conservative,no,3,1,0.983634341304,-,-
2019_Sep_30,10,001,2,source,18,HAGGLING,LF,target,left,yellow,pleasantness,liberal,no,2,1,1.20021820389,-,-
2019_Sep_30,10,001,2,source,19,SITTING,HF,target,left,yellow,pleasantness,conservative,no,2,1,1.66698133682,-,-
2019_Sep_30,10,001,2,source,20,ENAMELLED,LF,target,left,yellow,pleasantness,liberal,yes,2,1,0.766962493273,-,-
2019_Sep_30,10,001,2,source,21,DUBIOUSLY,LF,target,left,yellow,pleasantness,conservative,no,2,1,3.25011511429,-,-
2019_Sep_30,10,001,2,source,22,DAPPER,LF,target,left,yellow,pleasantness,conservative,no,1,1,1.53357267817,-,-
2019_Sep_30,10,001,2,source,23,EIGHT,HF,target,left,yellow,pleasantness,liberal,no,1,1,1.03357121175,-,-
2019_Sep_30,10,001,2,source,24,BAGGY,LF,target,right,aqua,imageability,conservative,no,9,1,1.53352501939,-,-
2019_Sep_30,10,001,2,source,25,EMOTIVE,LF,target,left,yellow,pleasantness,liberal,no,1,1,1.33354620922,-,-
2019_Sep_30,10,001,2,source,26,CHAIR,HF,target,left,yellow,pleasantness,liberal,no,1,1,0.850079406861,-,-
2019_Sep_30,10,001,2,source,27,COLDEST,LF,target,left,yellow,pleasantness,liberal,no,1,1,1.46666341609,-,-
2019_Sep_30,10,001,2,source,28,TERMS,HF,target,right,aqua,imageability,liberal,no,9,1,1.70018960863,-,-
2019_Sep_30,10,001,2,source,29,SHORT,HF,target,right,aqua,imageability,conservative,no,8,1,1.30018103005,-,-
2019_Sep_30,10,001,2,source,30,LEDGES,LF,target,right,aqua,imageability,liberal,no,2,0,1.18355706076,-,-
2019_Sep_30,10,001,2,source,31,DOGMAS,LF,target,right,aqua,imageability,conservative,no,8,1,1.55027084852,-,-
2019_Sep_30,10,001,2,source,32,NIMBLE,LF,target,right,aqua,imageability,conservative,no,8,1,1.8335022165,-,-
2019_Sep_30,10,001,2,source,33,ROVERS,LF,target,right,aqua,imageability,liberal,no,8,1,2.85007060832,-,-
2019_Sep_30,10,001,2,source,34,UNTIL,HF,target,left,yellow,pleasantness,liberal,no,2,1,1.8666980237,-,-
2019_Sep_30,10,001,2,source,35,SKYLIGHT,LF,target,right,aqua,imageability,conservative,no,9,1,2.43348997186,-,-
2019_Sep_30,10,001,2,source,36,MIDDLE,HF,target,right,aqua,imageability,conservative,no,9,1,1.1168934247,-,-
2019_Sep_30,10,001,2,source,37,QUESTION,HF,target,right,aqua,imageability,conservative,no,7,1,2.56689349802,-,-
2019_Sep_30,10,001,2,source,38,MOISTENED,LF,target,left,yellow,pleasantness,liberal,no,1,1,2.48351336132,-,-
2019_Sep_30,10,001,2,source,39,JINGLE,LF,target,left,yellow,pleasantness,conservative,no,1,1,0.833622829876,-,-
2019_Sep_30,10,001,2,source,40,DEFEATING,LF,target,right,aqua,imageability,liberal,no,8,1,2.68347604083,-,-
2019_Sep_30,10,001,2,source,41,LODGERS,LF,target,left,yellow,pleasantness,liberal,yes,8,0,0.716918573873,-,-
2019_Sep_30,10,001,2,source,42,SCENARIOS,LF,target,right,aqua,imageability,conservative,yes,8,1,0.5002441596,-,-
2019_Sep_30,10,001,2,source,43,PLACE,HF,target,right,aqua,imageability,liberal,no,9,1,1.45025596431,-,-
2019_Sep_30,10,001,2,source,44,MILES,HF,target,right,aqua,imageability,conservative,no,9,1,1.05012567254,-,-
2019_Sep_30,10,001,2,source,45,UMPIRE,LF,target,right,aqua,imageability,liberal,no,9,1,2.533513288,-,-
2019_Sep_30,10,001,2,source,46,HISTORY,HF,target,right,aqua,imageability,liberal,no,9,1,1.26670733549,-,-
2019_Sep_30,10,001,2,source,47,DIOCESE,LF,target,right,aqua,imageability,liberal,no,7,1,3.48317901665,-,-
2019_Sep_30,10,001,2,recog,0,MIDDLE,HF,target,right,aqua,imageability,conservative,no,z,1,1.95016797887,1,373
2019_Sep_30,10,001,2,recog,1,CUISINE,LF,lure,-,-,-,conservative,no,m,1,0.833556474189,3,376
2019_Sep_30,10,001,2,recog,2,GUSHED,LF,lure,-,-,-,conservative,no,m,1,1.08361476454,3,379
2019_Sep_30,10,001,2,recog,3,UNNAMED,LF,lure,-,-,-,conservative,no,m,1,0.750271288444,3,382
2019_Sep_30,10,001,2,recog,4,EVENING,HF,lure,-,-,-,conservative,no,m,1,0.666915714346,3,385
2019_Sep_30,10,001,2,recog,5,COLDEST,LF,target,left,yellow,pleasantness,liberal,no,z,1,0.700243499709,3,388
2019_Sep_30,10,001,2,recog,6,ENAMELLED,LF,target,left,yellow,pleasantness,liberal,yes,m,0,1.03359614096,-3,385
2019_Sep_30,10,001,2,recog,7,HISTORY,HF,target,right,aqua,imageability,liberal,no,z,1,0.916893717986,3,388
2019_Sep_30,10,001,2,recog,8,SEEMED,HF,lure,-,-,-,conservative,no,m,1,0.850253178107,3,391
2019_Sep_30,10,001,2,recog,9,DOGMAS,LF,target,right,aqua,imageability,conservative,no,z,1,0.983610511914,1,392
2019_Sep_30,10,001,2,recog,10,FUNNILY,LF,lure,-,-,-,liberal,no,m,1,1.13356373299,1,393
2019_Sep_30,10,001,2,recog,11,SOLEMNITY,LF,target,left,yellow,pleasantness,conservative,no,z,1,0.800274881183,1,394
2019_Sep_30,10,001,2,recog,12,MILES,HF,target,right,aqua,imageability,conservative,no,z,1,0.783553248056,1,395
2019_Sep_30,10,001,2,recog,13,GADGET,LF,target,left,yellow,pleasantness,conservative,no,z,1,0.633574731168,1,396
2019_Sep_30,10,001,2,recog,14,USING,HF,lure,-,-,-,liberal,no,m,1,0.95019107505,1,397
2019_Sep_30,10,001,2,recog,15,WATCH,HF,target,right,aqua,imageability,liberal,no,z,1,0.666950908523,3,400
2019_Sep_30,10,001,2,recog,16,ENERGY,HF,lure,-,-,-,liberal,no,m,1,0.883601860012,1,401
2019_Sep_30,10,001,2,recog,17,EDICT,LF,target,left,yellow,pleasantness,conservative,no,z,1,2.45010308961,1,402
2019_Sep_30,10,001,2,recog,18,POETICAL,LF,target,right,aqua,imageability,liberal,no,z,1,0.700208672138,3,405
2019_Sep_30,10,001,2,recog,19,CONCERNED,HF,lure,-,-,-,conservative,no,m,1,0.733572751496,3,408
2019_Sep_30,10,001,2,recog,20,GENERAL,HF,target,left,yellow,pleasantness,conservative,no,z,1,0.65024174,1,409
2019_Sep_30,10,001,2,recog,21,AFRAID,HF,lure,-,-,-,liberal,no,m,1,1.26696872557,1,410
2019_Sep_30,10,001,2,recog,22,UNTIL,HF,target,left,yellow,pleasantness,liberal,no,z,1,0.666711881407,3,413
2019_Sep_30,10,001,2,recog,23,SITTING,HF,target,left,yellow,pleasantness,conservative,no,z,1,2.10015456109,1,414
2019_Sep_30,10,001,2,recog,24,ANCHORAGE,LF,lure,-,-,-,liberal,no,m,1,0.81669369775,1,415
2019_Sep_30,10,001,2,recog,25,ROVERS,LF,target,right,aqua,imageability,liberal,no,z,1,0.700242766497,3,418
2019_Sep_30,10,001,2,recog,26,OUGHT,HF,target,right,aqua,imageability,liberal,no,z,1,0.916938077313,3,421
2019_Sep_30,10,001,2,recog,27,HUBBUB,LF,lure,-,-,-,liberal,no,m,1,0.883541003415,1,422
2019_Sep_30,10,001,2,recog,28,AHEAD,HF,lure,-,-,-,liberal,no,m,1,1.45017164493,1,423
2019_Sep_30,10,001,2,recog,29,BUZZARD,LF,lure,-,-,-,conservative,no,m,1,0.850288372284,3,426
2019_Sep_30,10,001,2,recog,30,BAGGY,LF,target,right,aqua,imageability,conservative,no,z,1,0.716936904174,1,427
2019_Sep_30,10,001,2,recog,31,AMONG,HF,lure,-,-,-,conservative,no,m,1,2.86683403453,3,430
2019_Sep_30,10,001,2,recog,32,LODGERS,LF,target,left,yellow,pleasantness,liberal,no,z,1,2.93349583756,3,433
2019_Sep_30,10,001,2,recog,33,CRUCIALLY,LF,lure,-,-,-,liberal,no,m,1,0.933507568948,1,434
2019_Sep_30,10,001,2,recog,34,SCENARIOS,LF,target,right,aqua,imageability,conservative,no,z,1,0.966877514001,1,435
2019_Sep_30,10,001,2,recog,35,MORNING,HF,target,left,yellow,pleasantness,conservative,no,z,1,0.63361579104,1,436
2019_Sep_30,10,001,2,recog,36,GUESSWORK,LF,lure,-,-,-,conservative,no,m,1,2.26683894705,3,439
2019_Sep_30,10,001,2,recog,37,DIOCESE,LF,target,right,aqua,imageability,liberal,no,z,1,0.700221503349,3,442
2019_Sep_30,10,001,2,recog,38,DOING,HF,target,left,yellow,pleasantness,liberal,no,z,1,0.616941450088,3,445
2019_Sep_30,10,001,2,recog,39,MERELY,HF,lure,-,-,-,conservative,no,m,1,0.90023807394,3,448
2019_Sep_30,10,001,2,recog,40,DAPPER,LF,target,left,yellow,pleasantness,conservative,no,z,1,0.900235874304,1,449
2019_Sep_30,10,001,2,recog,41,LAWFUL,LF,lure,-,-,-,conservative,no,m,1,1.01692473285,3,452
2019_Sep_30,10,001,2,recog,42,QUESTION,HF,target,right,aqua,imageability,conservative,no,z,1,2.46678989517,1,453
2019_Sep_30,10,001,2,recog,43,EMOTIVE,LF,target,left,yellow,pleasantness,liberal,no,z,1,0.950224069591,3,456
2019_Sep_30,10,001,2,recog,44,NUANCE,LF,lure,-,-,-,liberal,no,m,1,0.916687318805,1,457
2019_Sep_30,10,001,2,recog,45,COERCION,LF,lure,-,-,-,conservative,no,m,1,0.983625909366,3,460
2019_Sep_30,10,001,2,recog,46,SHORT,HF,target,right,aqua,imageability,conservative,no,z,1,2.18350500271,1,461
2019_Sep_30,10,001,2,recog,47,TODAY,HF,target,right,aqua,imageability,liberal,no,z,1,0.633584262924,3,464
2019_Sep_30,10,001,2,recog,48,LUXURIANT,LF,lure,-,-,-,liberal,no,m,1,0.733581183433,1,465
2019_Sep_30,10,001,2,recog,49,PLACE,HF,target,right,aqua,imageability,liberal,no,z,1,0.65024174,3,468
2019_Sep_30,10,001,2,recog,50,LIVED,HF,target,left,yellow,pleasantness,liberal,no,z,1,0.683566592514,3,471
2019_Sep_30,10,001,2,recog,51,VEHEMENCE,LF,lure,-,-,-,liberal,no,m,1,0.700238000619,1,472
2019_Sep_30,10,001,2,recog,52,CHAIR,HF,target,left,yellow,pleasantness,liberal,no,z,1,0.716916740843,3,475
2019_Sep_30,10,001,2,recog,53,EMIGRATED,LF,lure,-,-,-,conservative,no,m,1,0.90023440788,3,478
2019_Sep_30,10,001,2,recog,54,RAFTERS,LF,lure,-,-,-,conservative,no,m,1,1.35021175163,3,481
2019_Sep_30,10,001,2,recog,55,BAOBAB,LF,lure,-,-,-,conservative,no,m,1,1.00003152812,3,484
2019_Sep_30,10,001,2,recog,56,DEFEATING,LF,target,right,aqua,imageability,liberal,no,z,1,2.18350426949,3,487
2019_Sep_30,10,001,2,recog,57,THEORY,HF,lure,-,-,-,conservative,no,m,1,0.866904422881,3,490
2019_Sep_30,10,001,2,recog,58,LEDGES,LF,target,right,aqua,imageability,liberal,no,z,1,2.0668374073,3,493
2019_Sep_30,10,001,2,recog,59,UMPIRE,LF,target,right,aqua,imageability,liberal,no,z,1,0.60027774071,3,496
2019_Sep_30,10,001,2,recog,60,SPRATS,LF,target,right,aqua,imageability,conservative,no,z,1,0.883570331896,1,497
2019_Sep_30,10,001,2,recog,61,ROUND,HF,lure,-,-,-,liberal,no,m,1,1.08354071013,1,498
2019_Sep_30,10,001,2,recog,62,DUBIOUSLY,LF,target,left,yellow,pleasantness,conservative,no,z,1,2.16686842217,1,499
2019_Sep_30,10,001,2,recog,63,FINAL,HF,target,left,yellow,pleasantness,liberal,no,z,1,0.700085125914,3,502
2019_Sep_30,10,001,2,recog,64,BOWER,LF,lure,-,-,-,liberal,no,m,1,0.900186382493,1,503
2019_Sep_30,10,001,2,recog,65,CLOSE,HF,lure,-,-,-,conservative,no,m,1,0.800288445605,3,506
2019_Sep_30,10,001,2,recog,66,NIMBLE,LF,target,right,aqua,imageability,conservative,no,z,1,1.40036088695,1,507
2019_Sep_30,10,001,2,recog,67,RIVER,HF,lure,-,-,-,liberal,no,m,1,0.816900463537,1,508
2019_Sep_30,10,001,2,recog,68,OFFER,HF,lure,-,-,-,conservative,no,m,1,0.883521206691,3,511
2019_Sep_30,10,001,2,recog,69,CERTAIN,HF,target,left,yellow,pleasantness,conservative,no,z,1,1.43350206986,1,512
2019_Sep_30,10,001,2,recog,70,JINGLE,LF,target,left,yellow,pleasantness,conservative,no,z,1,0.600263809682,1,513
2019_Sep_30,10,001,2,recog,71,APRICOT,LF,lure,-,-,-,conservative,no,m,1,0.916652124628,3,516
2019_Sep_30,10,001,2,recog,72,MEMBERS,HF,lure,-,-,-,conservative,no,m,1,1.05033940384,3,519
2019_Sep_30,10,001,2,recog,73,TETHER,LF,lure,-,-,-,liberal,no,m,1,1.55010404278,1,520
2019_Sep_30,10,001,2,recog,74,MOISTENED,LF,target,left,yellow,pleasantness,liberal,no,z,1,0.733574951131,3,523
2019_Sep_30,10,001,2,recog,75,PICTURE,HF,lure,-,-,-,conservative,no,m,1,0.933401986418,3,526
2019_Sep_30,10,001,2,recog,76,BUILDING,HF,lure,-,-,-,liberal,no,m,1,2.36678820878,1,527
2019_Sep_30,10,001,2,recog,77,REACHED,HF,target,right,aqua,imageability,conservative,no,z,1,0.783597240777,1,528
2019_Sep_30,10,001,2,recog,78,PITCHER,LF,lure,-,-,-,liberal,no,m,1,0.91686585593,1,529
2019_Sep_30,10,001,2,recog,79,RETURN,HF,lure,-,-,-,liberal,no,m,1,3.76679458772,1,530
2019_Sep_30,10,001,2,recog,80,SKYLIGHT,LF,target,right,aqua,imageability,conservative,no,z,1,0.650196280855,1,531
2019_Sep_30,10,001,2,recog,81,PAYOFF,LF,lure,-,-,-,conservative,yes,m,1,0.866999740443,3,534
2019_Sep_30,10,001,2,recog,82,HOSPITAL,HF,target,right,aqua,imageability,conservative,no,z,1,1.43359298815,1,535
2019_Sep_30,10,001,2,recog,83,UNDER,HF,lure,-,-,-,conservative,no,m,1,2.03362143677,3,538
2019_Sep_30,10,001,2,recog,84,HAGGLING,LF,target,left,yellow,pleasantness,liberal,yes,z,1,0.933527365672,3,541
2019_Sep_30,10,001,2,recog,85,CEASELESS,LF,lure,-,-,-,liberal,no,m,1,3.76660688545,1,542
2019_Sep_30,10,001,2,recog,86,TALKING,HF,target,left,yellow,pleasantness,conservative,no,z,1,0.933533231368,1,543
2019_Sep_30,10,001,2,recog,87,GASEOUS,LF,lure,-,-,-,liberal,no,m,1,0.933613518083,1,544
2019_Sep_30,10,001,2,recog,88,ENOUGH,HF,lure,-,-,-,liberal,no,m,1,2.10014576255,1,545
2019_Sep_30,10,001,2,recog,89,EIGHT,HF,target,left,yellow,pleasantness,liberal,no,z,1,0.71683535431,3,548
2019_Sep_30,10,001,2,recog,90,TIMES,HF,lure,-,-,-,liberal,no,m,1,1.51687597426,1,549
2019_Sep_30,10,001,2,recog,91,WHITE,HF,lure,-,-,-,conservative,no,m,1,0.983577150767,3,552
2019_Sep_30,10,001,2,recog,92,TERMS,HF,target,right,aqua,imageability,liberal,no,z,1,1.2835499486,3,555
2019_Sep_30,10,001,2,recog,93,SLOWLY,HF,lure,-,-,-,liberal,no,m,1,0.966852584792,1,556
2019_Sep_30,10,001,2,recog,94,FORCE,HF,target,left,yellow,pleasantness,conservative,no,z,1,0.666928545557,1,557
2019_Sep_30,10,001,2,recog,95,SPOKE,HF,lure,-,-,-,liberal,yes,z,0,0.833593501395,-1,556
2019_Sep_30,10,001,3,source,0,FLUFF,LF,target,right,aqua,imageability,liberal,no,8,1,1.65001627731,-,-
2019_Sep_30,10,001,3,source,1,TROUBLE,HF,target,left,yellow,pleasantness,liberal,no,1,1,1.58343806045,-,-
2019_Sep_30,10,001,3,source,2,BEAUTIFUL,HF,target,right,aqua,imageability,liberal,no,9,1,1.23355075513,-,-
2019_Sep_30,10,001,3,source,3,UPLIFT,LF,target,right,aqua,imageability,conservative,no,9,1,1.23351116169,-,-
2019_Sep_30,10,001,3,source,4,ROMANCES,LF,target,left,yellow,pleasantness,conservative,no,2,1,1.73351556096,-,-
2019_Sep_30,10,001,3,source,5,BEYOND,HF,target,left,yellow,pleasantness,liberal,no,2,1,1.25022106342,-,-
2019_Sep_30,10,001,3,source,6,POOLED,LF,target,left,yellow,pleasantness,conservative,no,1,1,0.983633608092,-,-
2019_Sep_30,10,001,3,source,7,PUBLIC,HF,target,right,aqua,imageability,liberal,no,9,1,0.983558087255,-,-
2019_Sep_30,10,001,3,source,8,MONEY,HF,target,right,aqua,imageability,conservative,no,9,1,0.666936244283,-,-
2019_Sep_30,10,001,3,source,9,CASES,HF,target,right,aqua,imageability,conservative,no,8,1,3.51655995988,-,-
2019_Sep_30,10,001,3,source,10,TENABLE,LF,target,left,yellow,pleasantness,conservative,no,7,0,2.00028155341,-,-
2019_Sep_30,10,001,3,source,11,FEIGNED,LF,target,left,yellow,pleasantness,liberal,no,3,1,3.41685595757,-,-
2019_Sep_30,10,001,3,source,12,PIECE,HF,target,right,aqua,imageability,liberal,no,8,1,1.75022839554,-,-
2019_Sep_30,10,001,3,source,13,ERSTWHILE,LF,target,right,aqua,imageability,conservative,no,8,1,0.950240933467,-,-
2019_Sep_30,10,001,3,source,14,NOXIOUS,LF,target,right,aqua,imageability,conservative,no,8,1,0.783569012114,-,-
2019_Sep_30,10,001,3,source,15,MOUTH,HF,target,left,yellow,pleasantness,liberal,no,1,1,3.01674766215,-,-
2019_Sep_30,10,001,3,source,16,ACCORDING,HF,target,right,aqua,imageability,liberal,no,9,1,0.766707335493,-,-
2019_Sep_30,10,001,3,source,17,RELAXES,LF,target,left,yellow,pleasantness,conservative,no,1,1,2.25001466424,-,-
2019_Sep_30,10,001,3,source,18,OUTSIDE,HF,target,right,aqua,imageability,conservative,no,9,1,1.10005191141,-,-
2019_Sep_30,10,001,3,source,19,CEMENTED,LF,target,left,yellow,pleasantness,conservative,no,1,1,0.666660556567,-,-
2019_Sep_30,10,001,3,source,20,AMBIENCE,LF,target,left,yellow,pleasantness,liberal,no,1,1,0.716934704537,-,-
2019_Sep_30,10,001,3,source,21,WITHIN,HF,target,left,yellow,pleasantness,liberal,no,3,1,3.35008123989,-,-
2019_Sep_30,10,001,3,source,22,TWENTY,HF,target,left,yellow,pleasantness,conservative,no,1,1,1.00025992366,-,-
2019_Sep_30,10,001,3,source,23,CHOICE,HF,target,right,aqua,imageability,conservative,no,7,1,1.28351108837,-,-
2019_Sep_30,10,001,3,source,24,PETERED,LF,target,right,aqua,imageability,liberal,no,8,1,1.23357751737,-,-
2019_Sep_30,10,001,3,source,25,NOTHING,HF,target,left,yellow,pleasantness,liberal,no,2,1,1.63333093817,-,-
2019_Sep_30,10,001,3,source,26,DEGREE,HF,target,left,yellow,pleasantness,liberal,no,2,1,0.933581623361,-,-
2019_Sep_30,10,001,3,source,27,OBESE,LF,target,left,yellow,pleasantness,liberal,no,1,1,1.00022656251,-,-
2019_Sep_30,10,001,3,source,28,FLOOR,HF,target,right,aqua,imageability,liberal,no,9,1,1.2499695717,-,-
2019_Sep_30,10,001,3,source,29,DESERTER,LF,target,left,yellow,pleasantness,liberal,no,1,1,1.31695875389,-,-
2019_Sep_30,10,001,3,source,30,OLDER,HF,target,left,yellow,pleasantness,conservative,no,1,1,1.01690200328,-,-
2019_Sep_30,10,001,3,source,31,SWAGGER,LF,target,left,yellow,pleasantness,liberal,no,1,1,0.666924879496,-,-
2019_Sep_30,10,001,3,source,32,EATERS,LF,target,left,yellow,pleasantness,conservative,no,1,1,0.666933678041,-,-
2019_Sep_30,10,001,3,source,33,ACTION,HF,target,left,yellow,pleasantness,conservative,no,1,1,0.716867615639,-,-
2019_Sep_30,10,001,3,source,34,EFFECT,HF,target,left,yellow,pleasantness,conservative,no,1,1,1.08360743242,-,-
2019_Sep_30,10,001,3,source,35,EGOISM,LF,target,right,aqua,imageability,conservative,no,8,1,2.11680580587,-,-
2019_Sep_30,10,001,3,source,36,CRICKETER,LF,target,left,yellow,pleasantness,liberal,no,1,1,0.933403086236,-,-
2019_Sep_30,10,001,3,source,37,EVIDENCE,HF,target,left,yellow,pleasantness,conservative,no,2,1,2.25022362966,-,-
2019_Sep_30,10,001,3,source,38,INJECT,LF,target,right,aqua,imageability,liberal,yes,3,0,0.833560506855,-,-
2019_Sep_30,10,001,3,source,39,LEECH,LF,target,right,aqua,imageability,liberal,yes,3,0,0.566744289378,-,-
2019_Sep_30,10,001,3,source,40,PHYSICAL,HF,target,right,aqua,imageability,conservative,yes,3,0,0.433605086145,-,-
2019_Sep_30,10,001,3,source,41,PREPARED,HF,target,right,aqua,imageability,conservative,no,8,1,3.06675088829,-,-
2019_Sep_30,10,001,3,source,42,TREES,HF,target,right,aqua,imageability,liberal,no,9,1,1.30005235134,-,-
2019_Sep_30,10,001,3,source,43,LOBBIES,LF,target,right,aqua,imageability,conservative,no,8,1,1.89997228459,-,-
2019_Sep_30,10,001,3,source,44,RIPEN,LF,target,right,aqua,imageability,liberal,yes,8,1,0.733580450221,-,-
2019_Sep_30,10,001,3,source,45,MINISTER,HF,target,left,yellow,pleasantness,conservative,no,3,1,2.13329171133,-,-
2019_Sep_30,10,001,3,source,46,NOMAD,LF,target,right,aqua,imageability,liberal,no,8,1,3.41676760552,-,-
2019_Sep_30,10,001,3,source,47,UMBILICAL,LF,target,right,aqua,imageability,conservative,no,8,1,0.933573558029,-,-
2019_Sep_30,10,001,3,recog,0,OLDER,HF,target,left,yellow,pleasantness,conservative,no,z,1,2.28350009019,1,557
2019_Sep_30,10,001,3,recog,1,DESERTER,LF,target,left,yellow,pleasantness,liberal,no,z,1,1.33353704407,3,560
2019_Sep_30,10,001,3,recog,2,WHETHER,HF,lure,-,-,-,conservative,no,m,1,1.9502002402,3,563
2019_Sep_30,10,001,3,recog,3,SERIOUS,HF,lure,-,-,-,liberal,no,m,1,1.33357810394,1,564
2019_Sep_30,10,001,3,recog,4,WALKED,HF,lure,-,-,-,liberal,no,m,1,0.650215344368,1,565
2019_Sep_30,10,001,3,recog,5,SOVIET,HF,lure,-,-,-,liberal,no,m,1,0.800267182457,1,566
2019_Sep_30,10,001,3,recog,6,ENROLMENT,LF,lure,-,-,-,liberal,no,m,1,0.783577444052,1,567
2019_Sep_30,10,001,3,recog,7,EFFECT,HF,target,left,yellow,pleasantness,conservative,no,z,1,0.866923486394,1,568
2019_Sep_30,10,001,3,recog,8,OBESE,LF,target,left,yellow,pleasantness,liberal,no,z,1,0.666930378587,3,571
2019_Sep_30,10,001,3,recog,9,SULKED,LF,lure,-,-,-,conservative,no,m,1,0.650275101147,3,574
2019_Sep_30,10,001,3,recog,10,STUDENT,HF,lure,-,-,-,liberal,yes,m,1,1.15004523918,1,575
2019_Sep_30,10,001,3,recog,11,CHOICE,HF,target,right,aqua,imageability,conservative,no,z,1,2.50020493276,1,576
2019_Sep_30,10,001,3,recog,12,RELAXES,LF,target,left,yellow,pleasantness,conservative,no,z,1,0.600206985751,1,577
2019_Sep_30,10,001,3,recog,13,GEYSER,LF,lure,-,-,-,conservative,no,m,1,0.750246725842,3,580
2019_Sep_30,10,001,3,recog,14,INCLUDING,HF,lure,-,-,-,conservative,no,m,1,1.433547529,3,583
2019_Sep_30,10,001,3,recog,15,PLYWOOD,LF,lure,-,-,-,conservative,no,m,1,0.616961980024,3,586
2019_Sep_30,10,001,3,recog,16,ROMANCES,LF,target,left,yellow,pleasantness,conservative,no,z,1,0.666937710707,1,587
2019_Sep_30,10,001,3,recog,17,NATIONAL,HF,lure,-,-,-,conservative,no,m,1,1.03348139328,3,590
2019_Sep_30,10,001,3,recog,18,NEEDED,HF,lure,-,-,-,liberal,no,m,1,1.3166966306,1,591
2019_Sep_30,10,001,3,recog,19,CAIRN,LF,lure,-,-,-,liberal,no,m,1,0.633593428074,1,592
2019_Sep_30,10,001,3,recog,20,LONGER,HF,lure,-,-,-,liberal,no,m,1,0.683572091605,1,593
2019_Sep_30,10,001,3,recog,21,MODERN,HF,lure,-,-,-,liberal,yes,m,1,0.800208892102,1,594
2019_Sep_30,10,001,3,recog,22,URBANE,LF,lure,-,-,-,conservative,no,m,1,1.6668577906,3,597
2019_Sep_30,10,001,3,recog,23,IDEAS,HF,lure,-,-,-,conservative,no,m,1,0.883567032442,3,600
2019_Sep_30,10,001,3,recog,24,OUTSIDE,HF,target,right,aqua,imageability,conservative,no,z,1,0.766936097641,1,601
2019_Sep_30,10,001,3,recog,25,WINDOW,HF,lure,-,-,-,liberal,no,m,1,1.85016885873,1,602
2019_Sep_30,10,001,3,recog,26,JAUNDICE,LF,lure,-,-,-,conservative,no,m,1,0.733537923925,3,605
2019_Sep_30,10,001,3,recog,27,LABOUR,HF,lure,-,-,-,conservative,no,m,1,0.700231768316,3,608
2019_Sep_30,10,001,3,recog,28,MIXER,LF,lure,-,-,-,liberal,no,m,1,0.766747662154,1,609
2019_Sep_30,10,001,3,recog,29,PRIVATE,HF,lure,-,-,-,liberal,no,m,1,1.30024188664,1,610
2019_Sep_30,10,001,3,recog,30,TWENTY,HF,target,left,yellow,pleasantness,conservative,no,z,1,0.650231108426,1,611
2019_Sep_30,10,001,3,recog,31,FATHER,HF,lure,-,-,-,conservative,no,m,1,2.25020199991,3,614
2019_Sep_30,10,001,3,recog,32,TREES,HF,target,right,aqua,imageability,liberal,no,z,1,0.666905815984,3,617
2019_Sep_30,10,001,3,recog,33,SNUBBED,LF,lure,-,-,-,liberal,no,m,1,0.783672761614,1,618
2019_Sep_30,10,001,3,recog,34,BEAUTIFUL,HF,target,right,aqua,imageability,liberal,no,z,1,0.716922606539,3,621
2019_Sep_30,10,001,3,recog,35,RASCAL,LF,lure,-,-,-,liberal,no,m,1,0.850196720783,1,622
2019_Sep_30,10,001,3,recog,36,CEMENTED,LF,target,left,yellow,pleasantness,conservative,yes,z,1,0.966883379696,1,623
2019_Sep_30,10,001,3,recog,37,PIECE,HF,target,right,aqua,imageability,liberal,no,z,1,1.98350749563,3,626
2019_Sep_30,10,001,3,recog,38,MEANS,HF,lure,-,-,-,conservative,no,m,1,0.7002002402,3,629
2019_Sep_30,10,001,3,recog,39,LIGHT,HF,lure,-,-,-,conservative,no,m,1,1.13358792898,3,632
2019_Sep_30,10,001,3,recog,40,PINAFORE,LF,lure,-,-,-,conservative,no,m,1,0.61691468785,3,635
2019_Sep_30,10,001,3,recog,41,FRACTIONS,LF,lure,-,-,-,liberal,no,m,1,0.616870328523,1,636
2019_Sep_30,10,001,3,recog,42,ROLLERS,LF,lure,-,-,-,liberal,no,m,1,1.1003261327,1,637
2019_Sep_30,10,001,3,recog,43,PUBLIC,HF,target,right,aqua,imageability,liberal,no,z,1,0.700205739291,3,640
2019_Sep_30,10,001,3,recog,44,NEARLY,HF,lure,-,-,-,conservative,no,m,1,1.03352905206,3,643
2019_Sep_30,10,001,3,recog,45,EGOISM,LF,target,right,aqua,imageability,conservative,no,z,1,0.733571285071,1,644
2019_Sep_30,10,001,3,recog,46,NOTHING,HF,target,left,yellow,pleasantness,liberal,no,z,1,0.800241520037,3,647
2019_Sep_30,10,001,3,recog,47,TAUNTED,LF,lure,-,-,-,conservative,no,m,1,0.716709975056,3,650
2019_Sep_30,10,001,3,recog,48,DULLED,LF,lure,-,-,-,conservative,no,m,1,1.56682970858,3,653
2019_Sep_30,10,001,3,recog,49,AVAILABLE,HF,lure,-,-,-,conservative,no,m,1,0.783541150058,3,656
2019_Sep_30,10,001,3,recog,50,UPLIFT,LF,target,right,aqua,imageability,conservative,no,z,1,0.750283019836,1,657
2019_Sep_30,10,001,3,recog,51,FLECKED,LF,lure,-,-,-,conservative,no,m,1,0.666868055566,3,660
2019_Sep_30,10,001,3,recog,52,TROUBLE,HF,target,left,yellow,pleasantness,liberal,no,z,1,0.717005826103,3,663
2019_Sep_30,10,001,3,recog,53,EJECTED,LF,lure,-,-,-,conservative,no,m,1,1.68347127495,3,666
2019_Sep_30,10,001,3,recog,54,INJECT,LF,target,right,aqua,imageability,liberal,no,z,1,1.68356146003,3,669
2019_Sep_30,10,001,3,recog,55,FEIGNED,LF,target,left,yellow,pleasantness,liberal,no,z,1,2.6335582339,3,672
2019_Sep_30,10,001,3,recog,56,PETERED,LF,target,right,aqua,imageability,liberal,no,z,1,0.600260876834,3,675
2019_Sep_30,10,001,3,recog,57,CASES,HF,target,right,aqua,imageability,conservative,no,z,1,1.8501857226,1,676
2019_Sep_30,10,001,3,recog,58,EVIDENCE,HF,target,left,yellow,pleasantness,conservative,no,z,1,0.916905815984,1,677
2019_Sep_30,10,001,3,recog,59,ACTION,HF,target,left,yellow,pleasantness,conservative,no,z,1,0.600272974832,1,678
2019_Sep_30,10,001,3,recog,60,PASSED,HF,lure,-,-,-,liberal,no,m,1,1.44992895176,1,679
2019_Sep_30,10,001,3,recog,61,KRONOR,LF,lure,-,-,-,liberal,no,m,1,0.666666055657,1,680
2019_Sep_30,10,001,3,recog,62,UMBILICAL,LF,target,right,aqua,imageability,conservative,no,z,1,0.666829928541,1,681
2019_Sep_30,10,001,3,recog,63,FLOOR,HF,target,right,aqua,imageability,liberal,no,z,1,0.650039006879,3,684
2019_Sep_30,10,001,3,recog,64,RIPEN,LF,target,right,aqua,imageability,liberal,no,z,1,2.83351321468,3,687
2019_Sep_30,10,001,3,recog,65,BEHIND,HF,lure,-,-,-,liberal,no,m,1,1.90018711571,1,688
2019_Sep_30,10,001,3,recog,66,SWAGGER,LF,target,left,yellow,pleasantness,liberal,no,z,1,0.616952448268,3,691
2019_Sep_30,10,001,3,recog,67,LOBBIES,LF,target,right,aqua,imageability,conservative,yes,m,0,1.28364636598,-1,690
2019_Sep_30,10,001,3,recog,68,CRICKETER,LF,target,left,yellow,pleasantness,liberal,no,z,1,1.85028030695,3,693
2019_Sep_30,10,001,3,recog,69,WITHIN,HF,target,left,yellow,pleasantness,liberal,no,z,1,2.40012442608,3,696
2019_Sep_30,10,001,3,recog,70,MINISTER,HF,target,left,yellow,pleasantness,conservative,no,z,1,0.700195107716,1,697
2019_Sep_30,10,001,3,recog,71,AMBIENCE,LF,target,left,yellow,pleasantness,liberal,no,z,1,0.600259777016,3,700
2019_Sep_30,10,001,3,recog,72,ADHERE,LF,lure,-,-,-,liberal,no,m,1,1.04999296116,1,701
2019_Sep_30,10,001,3,recog,73,ASHEN,LF,lure,-,-,-,conservative,no,m,1,0.950257797343,3,704
2019_Sep_30,10,001,3,recog,74,BEYOND,HF,target,left,yellow,pleasantness,liberal,no,m,0,0.916844959388,-3,701
2019_Sep_30,10,001,3,recog,75,HYDRAULIC,LF,lure,-,-,-,conservative,no,m,1,3.13341232471,3,704
2019_Sep_30,10,001,3,recog,76,NOXIOUS,LF,target,right,aqua,imageability,conservative,no,z,1,0.916869155384,1,705
2019_Sep_30,10,001,3,recog,77,LEECH,LF,target,right,aqua,imageability,liberal,no,z,1,0.633361366473,3,708
2019_Sep_30,10,001,3,recog,78,HAVING,HF,lure,-,-,-,liberal,no,m,1,0.750262123294,1,709
2019_Sep_30,10,001,3,recog,79,ERSTWHILE,LF,target,right,aqua,imageability,conservative,no,z,1,0.733606112642,1,710
2019_Sep_30,10,001,3,recog,80,ACCORDING,HF,target,right,aqua,imageability,liberal,no,z,1,0.900077500509,3,713
2019_Sep_30,10,001,3,recog,81,EATERS,LF,target,left,yellow,pleasantness,conservative,no,z,1,0.88357363135,1,714
2019_Sep_30,10,001,3,recog,82,FLUFF,LF,target,right,aqua,imageability,liberal,no,z,1,0.600240346897,3,717
2019_Sep_30,10,001,3,recog,83,PHYSICAL,HF,target,right,aqua,imageability,conservative,no,z,1,0.816899363719,1,718
2019_Sep_30,10,001,3,recog,84,NOMAD,LF,target,right,aqua,imageability,liberal,no,z,1,0.750269455414,3,721
2019_Sep_30,10,001,3,recog,85,TENABLE,LF,target,left,yellow,pleasantness,conservative,no,z,1,1.05022172331,1,722
2019_Sep_30,10,001,3,recog,86,LOYALIST,LF,lure,-,-,-,liberal,no,m,1,1.38348821215,1,723
2019_Sep_30,10,001,3,recog,87,MONEY,HF,target,right,aqua,imageability,conservative,no,z,1,0.700143049663,1,724
2019_Sep_30,10,001,3,recog,88,DEGREE,HF,target,left,yellow,pleasantness,liberal,no,z,1,0.716921506721,3,727
2019_Sep_30,10,001,3,recog,89,SHALL,HF,lure,-,-,-,conservative,no,m,1,0.716703009542,3,730
2019_Sep_30,10,001,3,recog,90,MOUTH,HF,target,left,yellow,pleasantness,liberal,no,z,1,2.00027348808,3,733
2019_Sep_30,10,001,3,recog,91,RANGE,HF,lure,-,-,-,conservative,no,m,1,1.15027730078,3,736
2019_Sep_30,10,001,3,recog,92,UNHEEDED,LF,lure,-,-,-,liberal,no,m,1,0.950181543294,1,737
2019_Sep_30,10,001,3,recog,93,PREPARED,HF,target,right,aqua,imageability,conservative,no,z,1,2.40013835711,1,738
2019_Sep_30,10,001,3,recog,94,NUTSHELL,LF,lure,-,-,-,liberal,no,m,1,0.716981996712,1,739
2019_Sep_30,10,001,3,recog,95,POOLED,LF,target,left,yellow,pleasantness,conservative,no,z,1,0.683622683233,1,740
2019_Sep_30,10,001,4,source,0,TOGETHER,HF,target,left,yellow,pleasantness,liberal,no,7,0,2.76680925196,-,-
2019_Sep_30,10,001,4,source,1,FREEDOM,HF,target,left,yellow,pleasantness,conservative,no,1,1,0.850239613685,-,-
2019_Sep_30,10,001,4,source,2,GIPSY,LF,target,left,yellow,pleasantness,liberal,no,1,1,0.816890931781,-,-
2019_Sep_30,10,001,4,source,3,AFTERNOON,HF,target,right,aqua,imageability,liberal,no,8,1,1.70015844712,-,-
2019_Sep_30,10,001,4,source,4,SCHOOL,HF,target,left,yellow,pleasantness,conservative,no,1,1,1.53349642413,-,-
2019_Sep_30,10,001,4,source,5,TINGLING,LF,target,left,yellow,pleasantness,liberal,no,1,1,0.750228762147,-,-
2019_Sep_30,10,001,4,source,6,DIETING,LF,target,right,aqua,imageability,conservative,no,9,1,0.916872088232,-,-
2019_Sep_30,10,001,4,source,7,AREAS,HF,target,right,aqua,imageability,liberal,no,9,1,1.21691344139,-,-
2019_Sep_30,10,001,4,source,8,UNJUSTLY,LF,target,right,aqua,imageability,conservative,yes,7,1,0.850230081929,-,-
2019_Sep_30,10,001,4,source,9,HOWEVER,HF,target,left,yellow,pleasantness,liberal,yes,7,0,0.433594821177,-,-
2019_Sep_30,10,001,4,source,10,ATTACK,HF,target,right,aqua,imageability,conservative,no,8,1,1.53362363641,-,-
2019_Sep_30,10,001,4,source,11,MALIGNED,LF,target,left,yellow,pleasantness,conservative,no,2,1,1.91689591762,-,-
2019_Sep_30,10,001,4,source,12,FIELD,HF,target,right,aqua,imageability,liberal,no,8,1,0.81685977027,-,-
2019_Sep_30,10,001,4,source,13,CLICKS,LF,target,right,aqua,imageability,liberal,no,9,1,1.45000520581,-,-
2019_Sep_30,10,001,4,source,14,HOIST,LF,target,left,yellow,pleasantness,conservative,no,3,1,2.11687362798,-,-
2019_Sep_30,10,001,4,source,15,HANDS,HF,target,left,yellow,pleasantness,liberal,no,2,1,1.35020955199,-,-
2019_Sep_30,10,001,4,source,16,RAPACIOUS,LF,target,right,aqua,imageability,conservative,no,9,1,2.63348454609,-,-
2019_Sep_30,10,001,4,source,17,FAMILY,HF,target,right,aqua,imageability,liberal,no,8,1,1.43344561253,-,-
2019_Sep_30,10,001,4,source,18,SKATES,LF,target,left,yellow,pleasantness,liberal,no,2,1,1.58349561759,-,-
2019_Sep_30,10,001,4,source,19,FIGURE,HF,target,left,yellow,pleasantness,conservative,yes,3,1,0.75024049354,-,-
2019_Sep_30,10,001,4,source,20,ELICIT,LF,target,left,yellow,pleasantness,liberal,no,2,1,2.41685522436,-,-
2019_Sep_30,10,001,4,source,21,POINT,HF,target,left,yellow,pleasantness,liberal,no,2,1,1.05006371612,-,-
2019_Sep_30,10,001,4,source,22,RECENT,HF,target,left,yellow,pleasantness,liberal,no,3,1,2.60009590413,-,-
2019_Sep_30,10,001,4,source,23,OFTEN,HF,target,left,yellow,pleasantness,conservative,no,3,1,1.23360134676,-,-
2019_Sep_30,10,001,4,source,24,SACRAMENT,LF,target,right,aqua,imageability,liberal,yes,7,1,0.583592768183,-,-
2019_Sep_30,10,001,4,source,25,LYNCH,LF,target,right,aqua,imageability,conservative,no,8,1,2.55017039847,-,-
2019_Sep_30,10,001,4,source,26,ESCALATED,LF,target,left,yellow,pleasantness,conservative,no,2,1,2.0001466424,-,-
2019_Sep_30,10,001,4,source,27,JUDICIOUS,LF,target,right,aqua,imageability,liberal,no,8,1,2.70014671572,-,-
2019_Sep_30,10,001,4,source,28,LEVEL,HF,target,right,aqua,imageability,conservative,no,8,1,2.53358257654,-,-
2019_Sep_30,10,001,4,source,29,LIZARD,LF,target,left,yellow,pleasantness,liberal,no,2,1,0.850246579199,-,-
2019_Sep_30,10,001,4,source,30,MATERIAL,HF,target,right,aqua,imageability,conservative,no,8,1,0.900229275396,-,-
2019_Sep_30,10,001,4,source,31,BLEACH,LF,target,left,yellow,pleasantness,conservative,no,2,1,2.6501013299,-,-
2019_Sep_30,10,001,4,source,32,PAPER,HF,target,right,aqua,imageability,conservative,no,7,1,1.03357561102,-,-
2019_Sep_30,10,001,4,source,33,WAKED,LF,target,right,aqua,imageability,liberal,no,8,1,2.3832895117,-,-
2019_Sep_30,10,001,4,source,34,SUDDENLY,HF,target,right,aqua,imageability,liberal,no,8,1,2.43350133665,-,-
2019_Sep_30,10,001,4,source,35,APART,HF,target,right,aqua,imageability,conservative,no,8,1,2.38353330469,-,-
2019_Sep_30,10,001,4,source,36,MAJOR,HF,target,right,aqua,imageability,conservative,no,7,1,2.01684921202,-,-
2019_Sep_30,10,001,4,source,37,PALATABLE,LF,target,left,yellow,pleasantness,liberal,no,3,1,1.05006078328,-,-
2019_Sep_30,10,001,4,source,38,HEALTH,HF,target,left,yellow,pleasantness,liberal,no,8,0,2.75012574586,-,-
2019_Sep_30,10,001,4,source,39,DAILIES,LF,target,left,yellow,pleasantness,conservative,no,8,0,0.566707628778,-,-
2019_Sep_30,10,001,4,source,40,JUROR,LF,target,left,yellow,pleasantness,conservative,no,2,1,1.55018762895,-,-
2019_Sep_30,10,001,4,source,41,COOING,LF,target,right,aqua,imageability,liberal,no,8,1,2.03350119,-,-
2019_Sep_30,10,001,4,source,42,SADDER,LF,target,right,aqua,imageability,liberal,no,8,1,1.08354767564,-,-
2019_Sep_30,10,001,4,source,43,LOOKED,HF,target,right,aqua,imageability,liberal,no,2,0,0.916855590961,-,-
2019_Sep_30,10,001,4,source,44,BREAK,HF,target,left,yellow,pleasantness,conservative,no,2,1,3.83340176645,-,-
2019_Sep_30,10,001,4,source,45,TOTAL,HF,target,left,yellow,pleasantness,conservative,no,2,1,2.03348469273,-,-
2019_Sep_30,10,001,4,source,46,LINEAGE,LF,target,right,aqua,imageability,conservative,no,7,1,3.45005763046,-,-
2019_Sep_30,10,001,4,source,47,TOMBSTONE,LF,target,right,aqua,imageability,conservative,no,8,1,1.10020295308,-,-
2019_Sep_30,10,001,4,recog,0,TYCOONS,LF,lure,-,-,-,liberal,no,m,1,2.00014004349,1,741
2019_Sep_30,10,001,4,recog,1,COOING,LF,target,right,aqua,imageability,liberal,no,z,1,0.866932651544,3,744
2019_Sep_30,10,001,4,recog,2,POINT,HF,target,left,yellow,pleasantness,liberal,no,z,1,0.716942403264,3,747
2019_Sep_30,10,001,4,recog,3,BUCKED,LF,lure,-,-,-,liberal,no,m,1,0.633650252005,1,748
2019_Sep_30,10,001,4,recog,4,AGNOSTIC,LF,lure,-,-,-,liberal,no,m,1,0.600247312411,1,749
2019_Sep_30,10,001,4,recog,5,FAMILY,HF,target,right,aqua,imageability,liberal,no,z,1,0.65023440788,3,752
2019_Sep_30,10,001,4,recog,6,FIGURE,HF,target,left,yellow,pleasantness,conservative,no,z,1,0.766905669342,1,753
2019_Sep_30,10,001,4,recog,7,SENSE,HF,lure,-,-,-,liberal,no,m,1,0.733571651677,1,754
2019_Sep_30,10,001,4,recog,8,BLEACH,LF,target,left,yellow,pleasantness,conservative,no,z,1,0.616919820333,1,755
2019_Sep_30,10,001,4,recog,9,APART,HF,target,right,aqua,imageability,conservative,no,z,1,0.750200533485,1,756
2019_Sep_30,10,001,4,recog,10,SECOND,HF,lure,-,-,-,conservative,no,m,1,0.666917547376,3,759
2019_Sep_30,10,001,4,recog,11,UDDER,LF,lure,-,-,-,liberal,no,m,1,0.900304063021,1,760
2019_Sep_30,10,001,4,recog,12,QUICKLY,HF,lure,-,-,-,conservative,no,m,1,1.88352487275,3,763
2019_Sep_30,10,001,4,recog,13,YANKED,LF,lure,-,-,-,conservative,no,m,1,0.633579497046,3,766
2019_Sep_30,10,001,4,recog,14,TOGETHER,HF,target,left,yellow,pleasantness,liberal,no,z,1,0.716945702718,3,769
2019_Sep_30,10,001,4,recog,15,LOOKED,HF,target,right,aqua,imageability,liberal,no,z,1,0.716875314365,3,772
2019_Sep_30,10,001,4,recog,16,JOSTLED,LF,lure,-,-,-,conservative,no,m,1,0.783579643688,3,775
2019_Sep_30,10,001,4,recog,17,SCHOOL,HF,target,left,yellow,pleasantness,conservative,no,z,1,0.666946509251,1,776
2019_Sep_30,10,001,4,recog,18,LOWED,LF,lure,-,-,-,liberal,no,m,1,1.0168539779,1,777
2019_Sep_30,10,001,4,recog,19,SIMILAR,HF,lure,-,-,-,liberal,no,m,1,1.36690368967,1,778
2019_Sep_30,10,001,4,recog,20,FREEDOM,HF,target,left,yellow,pleasantness,conservative,no,z,1,0.650272168298,1,779
2019_Sep_30,10,001,4,recog,21,SACRAMENT,LF,target,right,aqua,imageability,liberal,no,z,1,1.16687722072,3,782
2019_Sep_30,10,001,4,recog,22,DIETING,LF,target,right,aqua,imageability,conservative,no,z,1,0.700243133103,1,783
2019_Sep_30,10,001,4,recog,23,JUDICIOUS,LF,target,right,aqua,imageability,liberal,no,z,1,0.616970778569,3,786
2019_Sep_30,10,001,4,recog,24,BLACK,HF,lure,-,-,-,liberal,no,m,1,0.783574144598,1,787
2019_Sep_30,10,001,4,recog,25,ARRIVED,HF,lure,-,-,-,conservative,no,m,1,2.25017193822,3,790
2019_Sep_30,10,001,4,recog,26,ALMOST,HF,lure,-,-,-,conservative,no,m,1,1.40023257485,3,793
2019_Sep_30,10,001,4,recog,27,STOOD,HF,lure,-,-,-,conservative,no,m,1,0.650198480491,3,796
2019_Sep_30,10,001,4,recog,28,RECENT,HF,target,left,yellow,pleasantness,liberal,no,z,1,2.25020053348,3,799
2019_Sep_30,10,001,4,recog,29,PIZZA,LF,lure,-,-,-,conservative,no,m,1,0.683543862942,3,802
2019_Sep_30,10,001,4,recog,30,ABOVE,HF,lure,-,-,-,liberal,no,m,1,0.850208085569,1,803
2019_Sep_30,10,001,4,recog,31,JUROR,LF,target,left,yellow,pleasantness,conservative,no,z,1,0.750074421019,1,804
2019_Sep_30,10,001,4,recog,32,OSTRACISM,LF,lure,-,-,-,conservative,no,m,1,0.833666089384,3,807
2019_Sep_30,10,001,4,recog,33,SUCCESS,HF,lure,-,-,-,conservative,no,m,1,0.716858450488,3,810
2019_Sep_30,10,001,4,recog,34,QUALITY,HF,lure,-,-,-,liberal,no,m,1,0.900186382493,1,811
2019_Sep_30,10,001,4,recog,35,DINER,LF,lure,-,-,-,conservative,no,m,1,1.25021849718,3,814
2019_Sep_30,10,001,4,recog,36,AREAS,HF,target,right,aqua,imageability,liberal,no,z,1,0.733642406637,3,817
2019_Sep_30,10,001,4,recog,37,ELLIPSE,LF,lure,-,-,-,liberal,no,m,1,1.16669355111,1,818
2019_Sep_30,10,001,4,recog,38,JOCKEYS,LF,lure,-,-,-,liberal,no,m,1,0.783469295281,1,819
2019_Sep_30,10,001,4,recog,39,WHOLE,HF,lure,-,-,-,conservative,no,m,1,0.716958533928,3,822
2019_Sep_30,10,001,4,recog,40,RAPACIOUS,LF,target,right,aqua,imageability,conservative,no,z,1,0.717010591981,1,823
2019_Sep_30,10,001,4,recog,41,CUCKOO,LF,lure,-,-,-,liberal,no,m,1,1.1002590438,1,824
2019_Sep_30,10,001,4,recog,42,SOUND,HF,lure,-,-,-,liberal,no,m,1,2.35017179157,1,825
2019_Sep_30,10,001,4,recog,43,ACQUIRES,LF,lure,-,-,-,conservative,no,m,1,1.9668346211,3,828
2019_Sep_30,10,001,4,recog,44,WAITING,HF,lure,-,-,-,liberal,no,m,1,1.26690420292,1,829
2019_Sep_30,10,001,4,recog,45,TINGLING,LF,target,left,yellow,pleasantness,liberal,no,z,1,0.666912781498,3,832
2019_Sep_30,10,001,4,recog,46,ATTACK,HF,target,right,aqua,imageability,conservative,yes,m,0,0.783559113752,-1,831
2019_Sep_30,10,001,4,recog,47,FAILINGS,LF,lure,-,-,-,conservative,no,m,1,3.36674788212,3,834
2019_Sep_30,10,001,4,recog,48,LIZARD,LF,target,left,yellow,pleasantness,liberal,no,z,1,0.616949882026,3,837
2019_Sep_30,10,001,4,recog,49,GIPSY,LF,target,left,yellow,pleasantness,liberal,yes,z,1,0.733541223379,3,840
2019_Sep_30,10,001,4,recog,50,SKATES,LF,target,left,yellow,pleasantness,liberal,no,z,1,0.68353579761,3,843
2019_Sep_30,10,001,4,recog,51,MUSIC,HF,lure,-,-,-,liberal,no,m,1,2.51679715396,1,844
2019_Sep_30,10,001,4,recog,52,LINEAGE,LF,target,right,aqua,imageability,conservative,no,z,1,0.833570405217,1,845
2019_Sep_30,10,001,4,recog,53,LYNCH,LF,target,right,aqua,imageability,conservative,no,z,1,0.683677307528,1,846
2019_Sep_30,10,001,4,recog,54,FIELD,HF,target,right,aqua,imageability,liberal,no,z,1,0.666937344101,3,849
2019_Sep_30,10,001,4,recog,55,SILENCER,LF,lure,-,-,-,conservative,no,m,1,1.03354334969,3,852
2019_Sep_30,10,001,4,recog,56,SLIGHTLY,HF,lure,-,-,-,liberal,no,z,0,1.56685097173,-1,851
2019_Sep_30,10,001,4,recog,57,AFTERNOON,HF,target,right,aqua,imageability,liberal,no,z,1,0.766906402554,3,854
2019_Sep_30,10,001,4,recog,58,DOCTOR,HF,lure,-,-,-,liberal,no,m,1,0.950233601347,1,855
2019_Sep_30,10,001,4,recog,59,BREAK,HF,target,left,yellow,pleasantness,conservative,no,z,1,0.750312348317,1,856
2019_Sep_30,10,001,4,recog,60,DAILIES,LF,target,left,yellow,pleasantness,conservative,no,z,1,0.966967699078,1,857
2019_Sep_30,10,001,4,recog,61,ESCALATED,LF,target,left,yellow,pleasantness,conservative,no,z,1,0.750006965514,1,858
2019_Sep_30,10,001,4,recog,62,HANDS,HF,target,left,yellow,pleasantness,liberal,no,z,1,0.683611318447,3,861
2019_Sep_30,10,001,4,recog,63,SADDER,LF,target,right,aqua,imageability,liberal,no,z,1,0.650040473303,3,864
2019_Sep_30,10,001,4,recog,64,ELICIT,LF,target,left,yellow,pleasantness,liberal,no,z,1,0.566927592381,3,867
2019_Sep_30,10,001,4,recog,65,HEALTH,HF,target,left,yellow,pleasantness,liberal,no,z,1,0.583586169275,3,870
2019_Sep_30,10,001,4,recog,66,LUCERNE,LF,lure,-,-,-,liberal,no,m,1,0.666908748833,1,871
2019_Sep_30,10,001,4,recog,67,PAPER,HF,target,right,aqua,imageability,conservative,no,z,1,0.916915714346,1,872
2019_Sep_30,10,001,4,recog,68,AROUND,HF,lure,-,-,-,conservative,no,m,1,1.06689386463,3,875
2019_Sep_30,10,001,4,recog,69,SUDDENLY,HF,target,right,aqua,imageability,liberal,no,z,1,1.13351167493,3,878
2019_Sep_30,10,001,4,recog,70,CORNER,HF,lure,-,-,-,conservative,no,m,1,0.716935071143,3,881
2019_Sep_30,10,001,4,recog,71,LARGE,HF,lure,-,-,-,liberal,no,m,1,0.80020815889,1,882
2019_Sep_30,10,001,4,recog,72,ARBITER,LF,lure,-,-,-,conservative,no,m,1,0.633601493406,3,885
2019_Sep_30,10,001,4,recog,73,UNJUSTLY,LF,target,right,aqua,imageability,conservative,no,m,0,0.666881986594,-1,884
2019_Sep_30,10,001,4,recog,74,MALIGNED,LF,target,left,yellow,pleasantness,conservative,no,z,1,0.700217104077,1,885
2019_Sep_30,10,001,4,recog,75,SWEARS,LF,lure,-,-,-,conservative,no,m,1,0.916939910343,3,888
2019_Sep_30,10,001,4,recog,76,CLICKS,LF,target,right,aqua,imageability,liberal,no,z,1,0.650246505878,3,891
2019_Sep_30,10,001,4,recog,77,FECKLESS,LF,lure,-,-,-,liberal,yes,z,0,1.08362026363,-1,890
2019_Sep_30,10,001,4,recog,78,ENTIRELY,HF,lure,-,-,-,liberal,no,m,1,1.41688088678,1,891
2019_Sep_30,10,001,4,recog,79,DEVELOPED,HF,lure,-,-,-,conservative,no,m,1,0.966785862499,3,894
2019_Sep_30,10,001,4,recog,80,MATERIAL,HF,target,right,aqua,imageability,conservative,no,z,1,0.950220403531,1,895
2019_Sep_30,10,001,4,recog,81,MAJOR,HF,target,right,aqua,imageability,conservative,no,z,1,0.633536970749,1,896
2019_Sep_30,10,001,4,recog,82,MOGUL,LF,lure,-,-,-,liberal,no,m,1,1.33354804225,1,897
2019_Sep_30,10,001,4,recog,83,HILLSIDES,LF,lure,-,-,-,conservative,no,m,1,0.683583456391,3,900
2019_Sep_30,10,001,4,recog,84,MAYBE,HF,lure,-,-,-,conservative,no,m,1,2.00017377125,3,903
2019_Sep_30,10,001,4,recog,85,LATER,HF,lure,-,-,-,conservative,no,m,1,1.11686592925,3,906
2019_Sep_30,10,001,4,recog,86,TOMBSTONE,LF,target,right,aqua,imageability,conservative,yes,z,1,0.633537337355,1,907
2019_Sep_30,10,001,4,recog,87,TOTAL,HF,target,left,yellow,pleasantness,conservative,no,z,1,0.616958313964,1,908
2019_Sep_30,10,001,4,recog,88,LEVEL,HF,target,right,aqua,imageability,conservative,no,z,1,2.63344531925,1,909
2019_Sep_30,10,001,4,recog,89,GAZELLE,LF,lure,-,-,-,conservative,no,m,1,1.05026095015,3,912
2019_Sep_30,10,001,4,recog,90,WAKED,LF,target,right,aqua,imageability,liberal,no,z,1,0.833560873461,3,915
2019_Sep_30,10,001,4,recog,91,PALATABLE,LF,target,left,yellow,pleasantness,liberal,no,z,1,1.68349510434,3,918
2019_Sep_30,10,001,4,recog,92,OFTEN,HF,target,left,yellow,pleasantness,conservative,no,z,1,0.650213144732,1,919
2019_Sep_30,10,001,4,recog,93,HOWEVER,HF,target,left,yellow,pleasantness,liberal,no,z,1,2.03356424624,3,922
2019_Sep_30,10,001,4,recog,94,HAMLETS,LF,lure,-,-,-,liberal,no,m,1,0.700272094977,1,923
2019_Sep_30,10,001,4,recog,95,HOIST,LF,target,left,yellow,pleasantness,conservative,no,z,1,2.58343769384,1,924
