date,subj,session,cycle,task,trial,item,wf,type,source,colour,encoding,bias,null,response,corr,rt,points,total
2019_Mar_27,101,001,0,source,0,OBVIOUSLY,HF,target,left,aqua,pleasantness,conservative,no,None,-1,-1,-,-
2019_Mar_27,101,001,0,source,1,HIVES,LF,target,left,aqua,pleasantness,conservative,no,1,1,3.2523988776,-,-
2019_Mar_27,101,001,0,source,2,MOTHER,HF,target,left,aqua,pleasantness,liberal,no,1,1,0.786478080341,-,-
2019_Mar_27,101,001,0,source,3,ANYONE,HF,target,right,yellow,imageability,conservative,no,9,1,1.91968388413,-,-
2019_Mar_27,101,001,0,source,4,INTEREST,HF,target,right,yellow,imageability,liberal,no,8,1,2.22596998094,-,-
2019_Mar_27,101,001,0,source,5,RIGGING,LF,target,left,aqua,pleasantness,liberal,no,8,0,2.39937618551,-,-
2019_Mar_27,101,001,0,source,6,SAGES,LF,target,left,aqua,pleasantness,conservative,no,8,0,2.75927491464,-,-
2019_Mar_27,101,001,0,source,7,DILATED,LF,target,left,aqua,pleasantness,conservative,no,1,1,2.85236646975,-,-
2019_Mar_27,101,001,0,source,8,GLASS,HF,target,right,yellow,imageability,conservative,no,9,1,2.41269126682,-,-
2019_Mar_27,101,001,0,source,9,SLEEP,HF,target,left,aqua,pleasantness,conservative,no,1,1,1.21321763779,-,-
2019_Mar_27,101,001,0,source,10,BUILDING,HF,target,left,aqua,pleasantness,liberal,no,9,0,1.65300685477,-,-
2019_Mar_27,101,001,0,source,11,EXCEPT,HF,target,right,yellow,imageability,liberal,no,8,1,2.15949209124,-,-
2019_Mar_27,101,001,0,source,12,AVUNCULAR,LF,target,left,aqua,pleasantness,liberal,no,1,1,1.91964245781,-,-
2019_Mar_27,101,001,0,source,13,AFTERNOON,HF,target,left,aqua,pleasantness,liberal,no,1,1,0.880003695376,-,-
2019_Mar_27,101,001,0,source,14,HUMAN,HF,target,right,yellow,imageability,liberal,no,9,1,1.34648943042,-,-
2019_Mar_27,101,001,0,source,15,MEMBERS,HF,target,right,yellow,imageability,conservative,no,9,1,0.826679947531,-,-
2019_Mar_27,101,001,0,source,16,APART,HF,target,left,aqua,pleasantness,liberal,no,1,1,2.94561089901,-,-
2019_Mar_27,101,001,0,source,17,HOTEL,HF,target,right,yellow,imageability,liberal,no,9,1,1.01308375377,-,-
2019_Mar_27,101,001,0,source,18,IDLING,LF,target,right,yellow,imageability,conservative,no,8,1,1.81305801812,-,-
2019_Mar_27,101,001,0,source,19,GIRLS,HF,target,left,aqua,pleasantness,liberal,yes,7,0,1.81306791645,-,-
2019_Mar_27,101,001,0,source,20,YOUNG,HF,target,right,yellow,imageability,conservative,no,3,0,3.932130479,-,-
2019_Mar_27,101,001,0,source,21,NOSTRIL,LF,target,left,aqua,pleasantness,liberal,no,1,1,1.41311212897,-,-
2019_Mar_27,101,001,0,source,22,TERMS,HF,target,right,yellow,imageability,liberal,no,9,1,1.99930895021,-,-
2019_Mar_27,101,001,0,source,23,BREAK,HF,target,left,aqua,pleasantness,liberal,no,1,1,1.71972450393,-,-
2019_Mar_27,101,001,0,source,24,LOANED,LF,target,left,aqua,pleasantness,conservative,no,1,1,1.15991881906,-,-
2019_Mar_27,101,001,0,source,25,TILTS,LF,target,left,aqua,pleasantness,liberal,no,9,0,2.14647066026,-,-
2019_Mar_27,101,001,0,source,26,ORPHANAGE,LF,target,left,aqua,pleasantness,conservative,no,1,1,0.919973501816,-,-
2019_Mar_27,101,001,0,source,27,ANSWER,HF,target,left,aqua,pleasantness,conservative,no,2,1,1.85263152492,-,-
2019_Mar_27,101,001,0,source,28,HIPPY,LF,target,right,yellow,imageability,conservative,no,7,1,3.23899947722,-,-
2019_Mar_27,101,001,0,source,29,CUCKOO,LF,target,right,yellow,imageability,conservative,no,8,1,4.42522877964,-,-
2019_Mar_27,101,001,0,source,30,HYDRAULIC,LF,target,right,yellow,imageability,liberal,no,8,1,2.6792363185,-,-
2019_Mar_27,101,001,0,source,31,AROUND,HF,target,right,yellow,imageability,conservative,yes,7,1,1.45306030573,-,-
2019_Mar_27,101,001,0,source,32,ABLAZE,LF,target,right,yellow,imageability,liberal,no,9,1,1.86604082363,-,-
2019_Mar_27,101,001,0,source,33,FURTHER,HF,target,right,yellow,imageability,conservative,no,9,1,1.46625110806,-,-
2019_Mar_27,101,001,0,source,34,CERTAIN,HF,target,left,aqua,pleasantness,conservative,no,8,0,2.73257876318,-,-
2019_Mar_27,101,001,0,source,35,OTHERS,HF,target,left,aqua,pleasantness,conservative,no,9,0,1.35998011536,-,-
2019_Mar_27,101,001,0,source,36,BEECHES,LF,target,left,aqua,pleasantness,liberal,no,1,1,1.34650702745,-,-
2019_Mar_27,101,001,0,source,37,SWAGGER,LF,target,right,yellow,imageability,liberal,no,9,1,1.22650192431,-,-
2019_Mar_27,101,001,0,source,38,FATHER,HF,target,left,aqua,pleasantness,conservative,no,1,1,0.893319876497,-,-
2019_Mar_27,101,001,0,source,39,TODAY,HF,target,right,yellow,imageability,liberal,no,9,1,1.5194956693,-,-
2019_Mar_27,101,001,0,source,40,GASEOUS,LF,target,right,yellow,imageability,liberal,no,9,1,1.35985803601,-,-
2019_Mar_27,101,001,0,source,41,ANEMONES,LF,target,left,aqua,pleasantness,conservative,no,2,1,1.83949937934,-,-
2019_Mar_27,101,001,0,source,42,SWEARS,LF,target,right,yellow,imageability,conservative,yes,3,0,1.10660826899,-,-
2019_Mar_27,101,001,0,source,43,ADENOIDS,LF,target,left,aqua,pleasantness,liberal,no,2,1,1.95961409727,-,-
2019_Mar_27,101,001,0,source,44,DALES,LF,target,right,yellow,imageability,conservative,no,2,0,1.46641681337,-,-
2019_Mar_27,101,001,0,source,45,KNUCKLE,LF,target,right,yellow,imageability,liberal,no,2,0,2.85257030194,-,-
2019_Mar_27,101,001,0,source,46,HITCHING,LF,target,right,yellow,imageability,liberal,no,8,1,2.06600313667,-,-
2019_Mar_27,101,001,0,source,47,YEARN,LF,target,right,yellow,imageability,conservative,yes,7,1,0.946661221366,-,-
2019_Mar_27,101,001,0,recog,0,GUMMED,LF,lure,-,-,-,conservative,no,m,1,6.46450240383,3,3
2019_Mar_27,101,001,0,recog,1,WOMAN,HF,lure,-,-,-,liberal,no,m,1,4.61182871937,1,4
2019_Mar_27,101,001,0,recog,2,MEMBERS,HF,target,right,yellow,imageability,conservative,no,z,1,2.0529347803,1,5
2019_Mar_27,101,001,0,recog,3,DOCTOR,HF,lure,-,-,-,conservative,no,m,1,1.43973862554,3,8
2019_Mar_27,101,001,0,recog,4,ORPHANAGE,LF,target,left,aqua,pleasantness,conservative,no,z,1,1.31982187413,1,9
2019_Mar_27,101,001,0,recog,5,NARRATOR,LF,lure,-,-,-,conservative,no,m,1,1.99987718744,3,12
2019_Mar_27,101,001,0,recog,6,AFTERNOON,HF,target,left,aqua,pleasantness,liberal,no,z,1,2.37244870651,3,15
2019_Mar_27,101,001,0,recog,7,TILTS,LF,target,left,aqua,pleasantness,liberal,no,z,1,1.5863507952,3,18
2019_Mar_27,101,001,0,recog,8,DALES,LF,target,right,yellow,imageability,conservative,no,z,1,0.973422995057,1,19
2019_Mar_27,101,001,0,recog,9,PURCHASER,LF,lure,-,-,-,liberal,no,m,1,0.800022656167,1,20
2019_Mar_27,101,001,0,recog,10,GLOBULAR,LF,lure,-,-,-,liberal,no,m,1,0.880110743938,1,21
2019_Mar_27,101,001,0,recog,11,ZOOLOGY,LF,lure,-,-,-,liberal,no,m,1,0.69341035453,1,22
2019_Mar_27,101,001,0,recog,12,HOTEL,HF,target,right,yellow,imageability,liberal,no,z,1,1.07991321735,3,25
2019_Mar_27,101,001,0,recog,13,BUSINESS,HF,lure,-,-,-,conservative,yes,m,1,2.47912919662,3,28
2019_Mar_27,101,001,0,recog,14,NEOLITHIC,LF,lure,-,-,-,conservative,no,m,1,2.55935329471,3,31
2019_Mar_27,101,001,0,recog,15,BREAK,HF,target,left,aqua,pleasantness,liberal,no,z,1,2.57268523984,3,34
2019_Mar_27,101,001,0,recog,16,SWEARS,LF,target,right,yellow,imageability,conservative,no,z,1,1.70631813806,1,35
2019_Mar_27,101,001,0,recog,17,TERMS,HF,target,right,yellow,imageability,liberal,yes,z,1,1.62615929559,3,38
2019_Mar_27,101,001,0,recog,18,ANSWER,HF,target,left,aqua,pleasantness,conservative,no,z,1,2.23950209221,1,39
2019_Mar_27,101,001,0,recog,19,WATCH,HF,lure,-,-,-,conservative,no,m,1,1.66613350129,3,42
2019_Mar_27,101,001,0,recog,20,ENZYME,LF,lure,-,-,-,liberal,no,m,1,3.10580100552,1,43
2019_Mar_27,101,001,0,recog,21,WRITE,HF,lure,-,-,-,conservative,no,m,1,1.39982747585,3,46
2019_Mar_27,101,001,0,recog,22,GOUGED,LF,lure,-,-,-,liberal,no,m,1,1.25318854404,1,47
2019_Mar_27,101,001,0,recog,23,MOTHER,HF,target,left,aqua,pleasantness,liberal,no,z,1,0.906608562271,3,50
2019_Mar_27,101,001,0,recog,24,SHALL,HF,lure,-,-,-,conservative,no,m,1,1.0932946541,3,53
2019_Mar_27,101,001,0,recog,25,GLASS,HF,target,right,yellow,imageability,conservative,no,z,1,1.01305112595,1,54
2019_Mar_27,101,001,0,recog,26,POLICE,HF,lure,-,-,-,liberal,no,m,1,0.839824557674,1,55
2019_Mar_27,101,001,0,recog,27,CESSATION,LF,lure,-,-,-,conservative,no,z,0,0.853394429221,-3,52
2019_Mar_27,101,001,0,recog,28,GASEOUS,LF,target,right,yellow,imageability,liberal,no,z,1,3.23904420299,3,55
2019_Mar_27,101,001,0,recog,29,HIPPY,LF,target,right,yellow,imageability,conservative,no,z,1,1.00004839182,1,56
2019_Mar_27,101,001,0,recog,30,KNUCKLE,LF,target,right,yellow,imageability,liberal,no,z,1,0.626762726863,3,59
2019_Mar_27,101,001,0,recog,31,NOSTRIL,LF,target,left,aqua,pleasantness,liberal,no,z,1,0.653340831619,3,62
2019_Mar_27,101,001,0,recog,32,GAZELLE,LF,lure,-,-,-,conservative,no,m,1,0.999989368465,3,65
2019_Mar_27,101,001,0,recog,33,BIRCHES,LF,lure,-,-,-,liberal,no,m,1,3.19884856808,1,66
2019_Mar_27,101,001,0,recog,34,HOURS,HF,lure,-,-,-,liberal,yes,z,0,1.27990339234,-1,65
2019_Mar_27,101,001,0,recog,35,YOUNG,HF,target,right,yellow,imageability,conservative,no,z,1,2.59928057501,1,66
2019_Mar_27,101,001,0,recog,36,ANYONE,HF,target,right,yellow,imageability,conservative,no,z,1,2.46584637652,1,67
2019_Mar_27,101,001,0,recog,37,EXCEPT,HF,target,right,yellow,imageability,liberal,no,z,1,1.65333239971,3,70
2019_Mar_27,101,001,0,recog,38,ANEMONES,LF,target,left,aqua,pleasantness,conservative,no,z,1,1.54654742728,1,71
2019_Mar_27,101,001,0,recog,39,FECKLESS,LF,lure,-,-,-,conservative,no,m,1,0.960060988351,3,74
2019_Mar_27,101,001,0,recog,40,LOANED,LF,target,left,aqua,pleasantness,conservative,no,z,1,1.94622056256,1,75
2019_Mar_27,101,001,0,recog,41,RIGGING,LF,target,left,aqua,pleasantness,liberal,no,z,1,1.09323306451,3,78
2019_Mar_27,101,001,0,recog,42,SWAGGER,LF,target,right,yellow,imageability,liberal,no,z,1,0.693245015826,3,81
2019_Mar_27,101,001,0,recog,43,ADMIRALS,LF,lure,-,-,-,conservative,no,m,1,1.1332457637,3,84
2019_Mar_27,101,001,0,recog,44,OPENED,HF,lure,-,-,-,liberal,no,m,1,1.11987715811,1,85
2019_Mar_27,101,001,0,recog,45,POINT,HF,lure,-,-,-,conservative,no,m,1,0.933379867685,3,88
2019_Mar_27,101,001,0,recog,46,TASSELS,LF,lure,-,-,-,liberal,no,z,0,2.57280658598,-1,87
2019_Mar_27,101,001,0,recog,47,IDLING,LF,target,right,yellow,imageability,conservative,no,z,1,1.14639550631,1,88
2019_Mar_27,101,001,0,recog,48,KIMONO,LF,lure,-,-,-,liberal,no,m,1,1.75965105102,1,89
2019_Mar_27,101,001,0,recog,49,APART,HF,target,left,aqua,pleasantness,liberal,no,z,1,1.4798041158,3,92
2019_Mar_27,101,001,0,recog,50,HITCHING,LF,target,right,yellow,imageability,liberal,no,z,1,1.06661683287,3,95
2019_Mar_27,101,001,0,recog,51,ADENOIDS,LF,target,left,aqua,pleasantness,liberal,no,z,1,1.22659247566,3,98
2019_Mar_27,101,001,0,recog,52,AROUND,HF,target,right,yellow,imageability,conservative,no,m,0,1.29316091672,-1,97
2019_Mar_27,101,001,0,recog,53,FURTHER,HF,target,right,yellow,imageability,conservative,no,z,1,1.07992018283,1,98
2019_Mar_27,101,001,0,recog,54,BICEPS,LF,lure,-,-,-,conservative,no,m,1,0.800004692541,3,101
2019_Mar_27,101,001,0,recog,55,GENERAL,HF,lure,-,-,-,liberal,no,m,1,2.2527999431,1,102
2019_Mar_27,101,001,0,recog,56,HYDRAULIC,LF,target,right,yellow,imageability,liberal,no,z,1,1.09334157949,3,105
2019_Mar_27,101,001,0,recog,57,FATHER,HF,target,left,aqua,pleasantness,conservative,no,z,1,0.987714344581,1,106
2019_Mar_27,101,001,0,recog,58,CLASS,HF,lure,-,-,-,conservative,no,m,1,2.49279841803,3,109
2019_Mar_27,101,001,0,recog,59,BUILDING,HF,target,left,aqua,pleasantness,liberal,no,z,1,1.1465289504,3,112
2019_Mar_27,101,001,0,recog,60,ITSELF,HF,lure,-,-,-,liberal,no,m,1,0.773381862015,1,113
2019_Mar_27,101,001,0,recog,61,TODAY,HF,target,right,yellow,imageability,liberal,no,z,1,1.0132589908,3,116
2019_Mar_27,101,001,0,recog,62,BEECHES,LF,target,left,aqua,pleasantness,liberal,no,z,1,0.69355992923,3,119
2019_Mar_27,101,001,0,recog,63,AVUNCULAR,LF,target,left,aqua,pleasantness,liberal,no,z,1,0.733432218831,3,122
2019_Mar_27,101,001,0,recog,64,VARIOUS,HF,lure,-,-,-,liberal,no,m,1,0.973320345753,1,123
2019_Mar_27,101,001,0,recog,65,LABOUR,HF,lure,-,-,-,conservative,no,m,1,1.02660120085,3,126
2019_Mar_27,101,001,0,recog,66,ABLAZE,LF,target,right,yellow,imageability,liberal,no,z,1,0.600118999873,3,129
2019_Mar_27,101,001,0,recog,67,OTHERS,HF,target,left,aqua,pleasantness,conservative,no,z,1,1.35984813768,1,130
2019_Mar_27,101,001,0,recog,68,INTEREST,HF,target,right,yellow,imageability,liberal,no,m,0,3.22574708531,-3,127
2019_Mar_27,101,001,0,recog,69,DENIALS,LF,lure,-,-,-,liberal,no,m,1,1.18655118131,1,128
2019_Mar_27,101,001,0,recog,70,YEARN,LF,target,right,yellow,imageability,conservative,no,m,0,0.919985599769,-1,127
2019_Mar_27,101,001,0,recog,71,SEEMED,HF,lure,-,-,-,conservative,no,m,1,1.05335050998,3,130
2019_Mar_27,101,001,0,recog,72,KNOWLEDGE,HF,lure,-,-,-,conservative,no,m,1,3.17245926472,3,133
2019_Mar_27,101,001,0,recog,73,HIVES,LF,target,left,aqua,pleasantness,conservative,no,m,0,3.13249385754,-1,132
2019_Mar_27,101,001,0,recog,74,GOADED,LF,lure,-,-,-,liberal,no,m,1,3.06574761322,1,133
2019_Mar_27,101,001,0,recog,75,TAILED,LF,lure,-,-,-,conservative,no,m,1,2.8392764837,3,136
2019_Mar_27,101,001,0,recog,76,SMEARING,LF,lure,-,-,-,liberal,no,m,1,1.54640188523,1,137
2019_Mar_27,101,001,0,recog,77,NEARLY,HF,lure,-,-,-,conservative,no,m,1,1.42657898461,3,140
2019_Mar_27,101,001,0,recog,78,HUMAN,HF,target,right,yellow,imageability,liberal,no,z,1,1.29316494937,3,143
2019_Mar_27,101,001,0,recog,79,CUCKOO,LF,target,right,yellow,imageability,conservative,no,z,1,1.34647329981,1,144
2019_Mar_27,101,001,0,recog,80,MOBILIZE,LF,lure,-,-,-,conservative,no,m,1,0.933116278933,3,147
2019_Mar_27,101,001,0,recog,81,DODGED,LF,lure,-,-,-,conservative,no,m,1,3.26571762496,3,150
2019_Mar_27,101,001,0,recog,82,BASIC,HF,lure,-,-,-,liberal,no,m,1,1.65301565329,1,151
2019_Mar_27,101,001,0,recog,83,DILATED,LF,target,left,aqua,pleasantness,conservative,no,z,1,1.06673158013,1,152
2019_Mar_27,101,001,0,recog,84,SLEEP,HF,target,left,aqua,pleasantness,conservative,no,z,1,0.693294140852,1,153
2019_Mar_27,101,001,0,recog,85,OBVIOUSLY,HF,target,left,aqua,pleasantness,conservative,no,z,1,0.680049447637,1,154
2019_Mar_27,101,001,0,recog,86,CERTAIN,HF,target,left,aqua,pleasantness,conservative,yes,m,0,2.54600961824,-1,153
2019_Mar_27,101,001,0,recog,87,ISOLATING,LF,lure,-,-,-,liberal,no,z,0,6.03794944815,-1,152
2019_Mar_27,101,001,0,recog,88,CHAIR,HF,lure,-,-,-,liberal,no,m,1,3.22575185117,1,153
2019_Mar_27,101,001,0,recog,89,SENSE,HF,lure,-,-,-,liberal,no,m,1,0.866716842625,1,154
2019_Mar_27,101,001,0,recog,90,LEVEL,HF,lure,-,-,-,liberal,no,m,1,1.05329771891,1,155
2019_Mar_27,101,001,0,recog,91,WRANGLING,LF,lure,-,-,-,conservative,no,m,1,1.61281928516,3,158
2019_Mar_27,101,001,0,recog,92,RIVER,HF,lure,-,-,-,liberal,no,m,1,1.09337823996,1,159
2019_Mar_27,101,001,0,recog,93,SAGES,LF,target,left,aqua,pleasantness,conservative,no,z,1,0.693390191273,1,160
2019_Mar_27,101,001,0,recog,94,POWER,HF,lure,-,-,-,conservative,no,m,1,1.07999863623,3,163
2019_Mar_27,101,001,0,recog,95,GIRLS,HF,target,left,aqua,pleasantness,liberal,no,z,1,1.93290401484,3,166
2019_Mar_27,101,001,1,source,0,LINEAGE,LF,target,right,yellow,imageability,conservative,no,9,1,2.90596077184,-,-
2019_Mar_27,101,001,1,source,1,CULINARY,LF,target,left,aqua,pleasantness,liberal,no,1,1,1.38643577416,-,-
2019_Mar_27,101,001,1,source,2,DOODLE,LF,target,left,aqua,pleasantness,conservative,no,1,1,0.853408726805,-,-
2019_Mar_27,101,001,1,source,3,WESTERN,HF,target,right,yellow,imageability,liberal,no,9,1,1.51950813386,-,-
2019_Mar_27,101,001,1,source,4,SOJOURN,LF,target,left,aqua,pleasantness,liberal,no,8,0,2.65261788723,-,-
2019_Mar_27,101,001,1,source,5,MYSELF,HF,target,left,aqua,pleasantness,liberal,no,1,1,0.919973501814,-,-
2019_Mar_27,101,001,1,source,6,TRIED,HF,target,right,yellow,imageability,conservative,no,2,0,4.38523990976,-,-
2019_Mar_27,101,001,1,source,7,NADIR,LF,target,left,aqua,pleasantness,liberal,no,1,1,1.15996317823,-,-
2019_Mar_27,101,001,1,source,8,RAFTERS,LF,target,left,aqua,pleasantness,conservative,no,1,1,1.14631412007,-,-
2019_Mar_27,101,001,1,source,9,LEARN,HF,target,right,yellow,imageability,conservative,no,9,1,1.65306991078,-,-
2019_Mar_27,101,001,1,source,10,WISPY,LF,target,left,aqua,pleasantness,liberal,no,1,1,1.05306345853,-,-
2019_Mar_27,101,001,1,source,11,INITIATES,LF,target,right,yellow,imageability,liberal,no,8,1,2.67906804696,-,-
2019_Mar_27,101,001,1,source,12,PIQUE,LF,target,left,aqua,pleasantness,liberal,yes,7,0,1.90623792496,-,-
2019_Mar_27,101,001,1,source,13,IDEAS,HF,target,left,aqua,pleasantness,liberal,no,8,0,2.4261771859,-,-
2019_Mar_27,101,001,1,source,14,FLECKED,LF,target,left,aqua,pleasantness,conservative,no,1,1,1.21295954811,-,-
2019_Mar_27,101,001,1,source,15,LACING,LF,target,right,yellow,imageability,conservative,no,1,0,1.43982147819,-,-
2019_Mar_27,101,001,1,source,16,MIDDLE,HF,target,right,yellow,imageability,conservative,no,9,1,1.18631692093,-,-
2019_Mar_27,101,001,1,source,17,TABLE,HF,target,left,aqua,pleasantness,conservative,yes,3,1,1.51977612186,-,-
2019_Mar_27,101,001,1,source,18,JEERED,LF,target,left,aqua,pleasantness,conservative,no,8,0,1.5994525126,-,-
2019_Mar_27,101,001,1,source,19,DESERTER,LF,target,left,aqua,pleasantness,conservative,no,2,1,2.18591218938,-,-
2019_Mar_27,101,001,1,source,20,THING,HF,target,right,yellow,imageability,liberal,no,9,1,1.34651252652,-,-
2019_Mar_27,101,001,1,source,21,ALTHOUGH,HF,target,right,yellow,imageability,liberal,yes,3,0,1.03969448634,-,-
2019_Mar_27,101,001,1,source,22,FACILE,LF,target,right,yellow,imageability,liberal,no,8,1,1.65284041626,-,-
2019_Mar_27,101,001,1,source,23,QUALITY,HF,target,right,yellow,imageability,liberal,no,9,1,1.90628375054,-,-
2019_Mar_27,101,001,1,source,24,SITTING,HF,target,left,aqua,pleasantness,conservative,no,1,1,1.31984057096,-,-
2019_Mar_27,101,001,1,source,25,FORCE,HF,target,left,aqua,pleasantness,liberal,no,1,1,1.74611710673,-,-
2019_Mar_27,101,001,1,source,26,AFIELD,LF,target,right,yellow,imageability,liberal,no,9,1,1.6530486477,-,-
2019_Mar_27,101,001,1,source,27,INCLUDING,HF,target,left,aqua,pleasantness,liberal,no,1,1,1.5063939519,-,-
2019_Mar_27,101,001,1,source,28,LEOPARDS,LF,target,right,yellow,imageability,liberal,no,9,1,0.973288817751,-,-
2019_Mar_27,101,001,1,source,29,STUDENT,HF,target,left,aqua,pleasantness,conservative,no,1,1,1.01332717926,-,-
2019_Mar_27,101,001,1,source,30,OUTSIDE,HF,target,right,yellow,imageability,liberal,no,9,1,2.75920635956,-,-
2019_Mar_27,101,001,1,source,31,NATIONAL,HF,target,left,aqua,pleasantness,liberal,no,1,1,1.13327179263,-,-
2019_Mar_27,101,001,1,source,32,FOLLOWED,HF,target,left,aqua,pleasantness,conservative,no,1,1,1.6927002413,-,-
2019_Mar_27,101,001,1,source,33,THOUSAND,HF,target,left,aqua,pleasantness,conservative,no,1,1,2.70609890847,-,-
2019_Mar_27,101,001,1,source,34,HECTOR,LF,target,right,yellow,imageability,liberal,no,9,1,1.89314940533,-,-
2019_Mar_27,101,001,1,source,35,SPEAK,HF,target,right,yellow,imageability,liberal,no,8,1,2.82583932304,-,-
2019_Mar_27,101,001,1,source,36,CORNER,HF,target,left,aqua,pleasantness,conservative,no,1,1,1.61309937113,-,-
2019_Mar_27,101,001,1,source,37,UPTIGHT,LF,target,right,yellow,imageability,conservative,yes,3,0,0.893212094728,-,-
2019_Mar_27,101,001,1,source,38,SLIGHTLY,HF,target,left,aqua,pleasantness,liberal,no,8,0,2.55945924346,-,-
2019_Mar_27,101,001,1,source,39,TEETERED,LF,target,left,aqua,pleasantness,liberal,no,8,0,2.39919288318,-,-
2019_Mar_27,101,001,1,source,40,AREAS,HF,target,right,yellow,imageability,conservative,no,9,1,1.73313746868,-,-
2019_Mar_27,101,001,1,source,41,INFECT,LF,target,right,yellow,imageability,conservative,no,2,0,2.75942595576,-,-
2019_Mar_27,101,001,1,source,42,KIDNAP,LF,target,right,yellow,imageability,conservative,no,9,1,3.31904027299,-,-
2019_Mar_27,101,001,1,source,43,CLOSE,HF,target,right,yellow,imageability,conservative,no,8,1,1.81296563375,-,-
2019_Mar_27,101,001,1,source,44,ZENITH,LF,target,left,aqua,pleasantness,conservative,no,2,1,3.22577714689,-,-
2019_Mar_27,101,001,1,source,45,HUBBUB,LF,target,right,yellow,imageability,conservative,no,9,1,1.14657220975,-,-
2019_Mar_27,101,001,1,source,46,HUDDLE,LF,target,right,yellow,imageability,liberal,no,2,0,1.43954615809,-,-
2019_Mar_27,101,001,1,source,47,TOTAL,HF,target,right,yellow,imageability,conservative,no,9,1,3.07918330746,-,-
2019_Mar_27,101,001,1,recog,0,EXHALED,LF,lure,-,-,-,liberal,no,z,0,4.47859065437,-1,165
2019_Mar_27,101,001,1,recog,1,ABHORRENT,LF,lure,-,-,-,conservative,no,z,0,2.78593257261,-3,162
2019_Mar_27,101,001,1,recog,2,NADIR,LF,target,left,aqua,pleasantness,liberal,no,z,1,1.63955942918,3,165
2019_Mar_27,101,001,1,recog,3,BIOLOGIST,LF,lure,-,-,-,liberal,no,m,1,1.13337664156,1,166
2019_Mar_27,101,001,1,recog,4,CLOSE,HF,target,right,yellow,imageability,conservative,no,z,1,1.06653617985,1,167
2019_Mar_27,101,001,1,recog,5,AFIELD,LF,target,right,yellow,imageability,liberal,no,z,1,1.1465993385,3,170
2019_Mar_27,101,001,1,recog,6,DONATE,LF,lure,-,-,-,conservative,yes,m,1,1.85301059414,3,173
2019_Mar_27,101,001,1,recog,7,SITTING,HF,target,left,aqua,pleasantness,conservative,no,z,1,1.47977112138,1,174
2019_Mar_27,101,001,1,recog,8,KIDNAP,LF,target,right,yellow,imageability,conservative,no,z,1,1.18658710857,1,175
2019_Mar_27,101,001,1,recog,9,IDYLL,LF,lure,-,-,-,conservative,no,m,1,1.15984916418,3,178
2019_Mar_27,101,001,1,recog,10,MEETING,HF,lure,-,-,-,liberal,no,z,0,1.69299975731,-1,177
2019_Mar_27,101,001,1,recog,11,CORNER,HF,target,left,aqua,pleasantness,conservative,no,z,1,1.47982097961,1,178
2019_Mar_27,101,001,1,recog,12,ZENITH,LF,target,left,aqua,pleasantness,conservative,no,z,1,0.919980833909,1,179
2019_Mar_27,101,001,1,recog,13,FOLLOWED,HF,target,left,aqua,pleasantness,conservative,no,z,1,0.600134397269,1,180
2019_Mar_27,101,001,1,recog,14,DOODLE,LF,target,left,aqua,pleasantness,conservative,no,z,1,0.573628147025,1,181
2019_Mar_27,101,001,1,recog,15,KITCHEN,HF,lure,-,-,-,conservative,no,m,1,1.65303471673,3,184
2019_Mar_27,101,001,1,recog,16,HUBBUB,LF,target,right,yellow,imageability,conservative,no,z,1,0.680021585682,1,185
2019_Mar_27,101,001,1,recog,17,JEERED,LF,target,left,aqua,pleasantness,conservative,no,z,1,0.693402289226,1,186
2019_Mar_27,101,001,1,recog,18,LACING,LF,target,right,yellow,imageability,conservative,no,z,1,0.653461444554,1,187
2019_Mar_27,101,001,1,recog,19,GNOMES,LF,lure,-,-,-,conservative,no,m,1,0.893133641332,3,190
2019_Mar_27,101,001,1,recog,20,SOMEONE,HF,lure,-,-,-,conservative,no,z,0,1.73288231184,-3,187
2019_Mar_27,101,001,1,recog,21,DESERTER,LF,target,left,aqua,pleasantness,conservative,no,z,1,1.18656731191,1,188
2019_Mar_27,101,001,1,recog,22,HUDDLE,LF,target,right,yellow,imageability,liberal,no,z,1,0.960014796165,3,191
2019_Mar_27,101,001,1,recog,23,INITIATES,LF,target,right,yellow,imageability,liberal,no,z,1,0.906498580873,3,194
2019_Mar_27,101,001,1,recog,24,GREATER,HF,lure,-,-,-,liberal,no,m,1,1.0132751214,1,195
2019_Mar_27,101,001,1,recog,25,FACILE,LF,target,right,yellow,imageability,liberal,no,z,1,1.53286354168,3,198
2019_Mar_27,101,001,1,recog,26,QUALITY,HF,target,right,yellow,imageability,liberal,no,z,1,1.11992188388,3,201
2019_Mar_27,101,001,1,recog,27,BAOBAB,LF,lure,-,-,-,conservative,no,m,1,1.7863255728,3,204
2019_Mar_27,101,001,1,recog,28,YOGHURT,LF,lure,-,-,-,liberal,no,m,1,1.37303967322,1,205
2019_Mar_27,101,001,1,recog,29,MYSELF,HF,target,left,aqua,pleasantness,liberal,no,z,1,0.826453752456,3,208
2019_Mar_27,101,001,1,recog,30,HOBBLE,LF,lure,-,-,-,liberal,no,z,0,2.09290238711,-1,207
2019_Mar_27,101,001,1,recog,31,PREPARED,HF,lure,-,-,-,liberal,no,m,1,1.19986296318,1,208
2019_Mar_27,101,001,1,recog,32,FRIEND,HF,lure,-,-,-,conservative,no,m,1,1.49354152568,3,211
2019_Mar_27,101,001,1,recog,33,HECTOR,LF,target,right,yellow,imageability,liberal,no,z,1,1.06670225176,3,214
2019_Mar_27,101,001,1,recog,34,MARKET,HF,lure,-,-,-,liberal,yes,z,0,1.29294461997,-1,213
2019_Mar_27,101,001,1,recog,35,AREAS,HF,target,right,yellow,imageability,conservative,no,m,0,5.06480177319,-1,212
2019_Mar_27,101,001,1,recog,36,TABLE,HF,target,left,aqua,pleasantness,conservative,no,z,1,0.999608466222,1,213
2019_Mar_27,101,001,1,recog,37,SLIGHTLY,HF,target,left,aqua,pleasantness,liberal,no,z,1,1.69321275462,3,216
2019_Mar_27,101,001,1,recog,38,LEOPARDS,LF,target,right,yellow,imageability,liberal,no,z,1,0.933070819956,3,219
2019_Mar_27,101,001,1,recog,39,THOUSAND,HF,target,left,aqua,pleasantness,conservative,no,z,1,0.613437014019,1,220
2019_Mar_27,101,001,1,recog,40,SUPPORT,HF,lure,-,-,-,liberal,no,m,1,1.08002979763,1,221
2019_Mar_27,101,001,1,recog,41,MIDDLE,HF,target,right,yellow,imageability,conservative,no,z,1,0.78668557858,1,222
2019_Mar_27,101,001,1,recog,42,SPEAK,HF,target,right,yellow,imageability,liberal,no,z,1,1.59970803605,3,225
2019_Mar_27,101,001,1,recog,43,INSIDE,HF,lure,-,-,-,liberal,no,m,1,1.82636650055,1,226
2019_Mar_27,101,001,1,recog,44,SHORT,HF,lure,-,-,-,conservative,no,m,1,0.973295050031,3,229
2019_Mar_27,101,001,1,recog,45,TRIED,HF,target,right,yellow,imageability,conservative,no,z,1,1.18678397527,1,230
2019_Mar_27,101,001,1,recog,46,MORNING,HF,lure,-,-,-,conservative,no,m,1,1.9996300959,3,233
2019_Mar_27,101,001,1,recog,47,POSITION,HF,lure,-,-,-,liberal,no,z,0,1.81309651161,-1,232
2019_Mar_27,101,001,1,recog,48,PROBABLY,HF,lure,-,-,-,liberal,no,z,0,2.93269505018,-1,231
2019_Mar_27,101,001,1,recog,49,SOJOURN,LF,target,left,aqua,pleasantness,liberal,no,z,1,1.02640176791,3,234
2019_Mar_27,101,001,1,recog,50,GYMKHANA,LF,lure,-,-,-,liberal,no,m,1,1.02669211881,1,235
2019_Mar_27,101,001,1,recog,51,WISPY,LF,target,left,aqua,pleasantness,liberal,no,z,1,0.813282746778,3,238
2019_Mar_27,101,001,1,recog,52,NATIONAL,HF,target,left,aqua,pleasantness,liberal,no,z,1,0.934455119159,3,241
2019_Mar_27,101,001,1,recog,53,ALTHOUGH,HF,target,right,yellow,imageability,liberal,no,z,1,1.05306382514,3,244
2019_Mar_27,101,001,1,recog,54,SUMMER,HF,lure,-,-,-,liberal,no,m,1,2.38608126746,1,245
2019_Mar_27,101,001,1,recog,55,THING,HF,target,right,yellow,imageability,liberal,no,z,1,1.14659237301,3,248
2019_Mar_27,101,001,1,recog,56,INLAID,LF,lure,-,-,-,conservative,no,m,1,1.1066013035,3,251
2019_Mar_27,101,001,1,recog,57,JAILS,LF,lure,-,-,-,liberal,no,m,1,1.29315468444,1,252
2019_Mar_27,101,001,1,recog,58,LINEAGE,LF,target,right,yellow,imageability,conservative,yes,m,0,1.09327302442,-1,251
2019_Mar_27,101,001,1,recog,59,CULINARY,LF,target,left,aqua,pleasantness,liberal,no,z,1,0.973280385844,3,254
2019_Mar_27,101,001,1,recog,60,RATHER,HF,lure,-,-,-,liberal,no,m,1,1.05328342133,1,255
2019_Mar_27,101,001,1,recog,61,HOSPITAL,HF,lure,-,-,-,conservative,no,z,0,1.15988619125,-3,252
2019_Mar_27,101,001,1,recog,62,TEETERED,LF,target,left,aqua,pleasantness,liberal,no,z,1,1.09340756833,3,255
2019_Mar_27,101,001,1,recog,63,UPTIGHT,LF,target,right,yellow,imageability,conservative,no,m,0,1.15989315674,-1,254
2019_Mar_27,101,001,1,recog,64,OUTSIDE,HF,target,right,yellow,imageability,liberal,no,z,1,1.07995134423,3,257
2019_Mar_27,101,001,1,recog,65,EASILY,HF,lure,-,-,-,conservative,no,m,1,1.0533046844,3,260
2019_Mar_27,101,001,1,recog,66,LUXURIANT,LF,lure,-,-,-,liberal,no,m,1,0.973105882025,1,261
2019_Mar_27,101,001,1,recog,67,NOURISH,LF,lure,-,-,-,conservative,no,m,1,2.55934669583,3,264
2019_Mar_27,101,001,1,recog,68,MODERN,HF,lure,-,-,-,conservative,no,m,1,0.826844553025,3,267
2019_Mar_27,101,001,1,recog,69,DRAFTING,LF,lure,-,-,-,liberal,no,z,0,1.19972841927,-1,266
2019_Mar_27,101,001,1,recog,70,INCLUDING,HF,target,left,aqua,pleasantness,liberal,no,z,1,1.23972205501,3,269
2019_Mar_27,101,001,1,recog,71,LEARN,HF,target,right,yellow,imageability,conservative,no,z,1,0.973372770219,1,270
2019_Mar_27,101,001,1,recog,72,CADDIE,LF,lure,-,-,-,conservative,no,m,1,1.3865013964,3,273
2019_Mar_27,101,001,1,recog,73,VALUE,HF,lure,-,-,-,liberal,no,m,1,2.07949858747,1,274
2019_Mar_27,101,001,1,recog,74,BOTANIST,LF,lure,-,-,-,conservative,no,m,1,0.986497217104,3,277
2019_Mar_27,101,001,1,recog,75,TOMBSTONE,LF,lure,-,-,-,liberal,no,m,1,1.45310943076,1,278
2019_Mar_27,101,001,1,recog,76,RAFTERS,LF,target,left,aqua,pleasantness,conservative,no,z,1,0.826855917769,1,279
2019_Mar_27,101,001,1,recog,77,SEABED,LF,lure,-,-,-,conservative,no,m,1,1.02635960838,3,282
2019_Mar_27,101,001,1,recog,78,AMALGAM,LF,lure,-,-,-,conservative,no,m,1,0.85338086485,3,285
2019_Mar_27,101,001,1,recog,79,TOTAL,HF,target,right,yellow,imageability,conservative,yes,m,0,1.09327632387,-1,284
2019_Mar_27,101,001,1,recog,80,BLEACH,LF,lure,-,-,-,liberal,no,m,1,2.05289042113,1,285
2019_Mar_27,101,001,1,recog,81,DIZZINESS,LF,lure,-,-,-,liberal,no,m,1,0.720074244777,1,286
2019_Mar_27,101,001,1,recog,82,BETTER,HF,lure,-,-,-,conservative,no,m,1,0.773397992618,3,289
2019_Mar_27,101,001,1,recog,83,INFECT,LF,target,right,yellow,imageability,conservative,no,z,1,1.01327842084,1,290
2019_Mar_27,101,001,1,recog,84,REQUIRED,HF,lure,-,-,-,conservative,no,z,0,0.959935242952,-3,287
2019_Mar_27,101,001,1,recog,85,AEGIS,LF,lure,-,-,-,liberal,no,m,1,1.1732126373,1,288
2019_Mar_27,101,001,1,recog,86,ABOVE,HF,lure,-,-,-,liberal,no,m,1,0.973351873752,1,289
2019_Mar_27,101,001,1,recog,87,PIQUE,LF,target,left,aqua,pleasantness,liberal,no,m,0,0.800064815705,-3,286
2019_Mar_27,101,001,1,recog,88,IDEAS,HF,target,left,aqua,pleasantness,liberal,no,z,1,2.19952605349,3,289
2019_Mar_27,101,001,1,recog,89,FLECKED,LF,target,left,aqua,pleasantness,conservative,no,z,1,0.959950640348,1,290
2019_Mar_27,101,001,1,recog,90,FORCE,HF,target,left,aqua,pleasantness,liberal,no,z,1,0.626803053377,3,293
2019_Mar_27,101,001,1,recog,91,UMBILICAL,LF,lure,-,-,-,conservative,no,m,1,0.90673504088,3,296
2019_Mar_27,101,001,1,recog,92,STUDENT,HF,target,left,aqua,pleasantness,conservative,no,z,1,0.73321188943,1,297
2019_Mar_27,101,001,1,recog,93,OUGHT,HF,lure,-,-,-,conservative,no,m,1,1.25319404311,3,300
2019_Mar_27,101,001,1,recog,94,WESTERN,HF,target,right,yellow,imageability,liberal,no,z,1,0.906822292789,3,303
2019_Mar_27,101,001,1,recog,95,GETTING,HF,lure,-,-,-,conservative,no,m,1,0.840068716378,3,306
2019_Mar_27,101,001,2,source,0,CONCERNED,HF,target,left,aqua,pleasantness,liberal,no,9,0,2.34611476046,-,-
2019_Mar_27,101,001,2,source,1,UNION,HF,target,right,yellow,imageability,conservative,no,9,1,0.813133538681,-,-
2019_Mar_27,101,001,2,source,2,TALKING,HF,target,left,aqua,pleasantness,liberal,no,1,1,1.5064566413,-,-
2019_Mar_27,101,001,2,source,3,PSEUDONYM,LF,target,left,aqua,pleasantness,liberal,no,1,1,0.906666119203,-,-
2019_Mar_27,101,001,2,source,4,WHOLE,HF,target,right,yellow,imageability,liberal,no,9,1,1.30629159588,-,-
2019_Mar_27,101,001,2,source,5,ALMOST,HF,target,left,aqua,pleasantness,conservative,no,1,1,1.70617149619,-,-
2019_Mar_27,101,001,2,source,6,ATONEMENT,LF,target,left,aqua,pleasantness,conservative,no,2,1,1.51974239424,-,-
2019_Mar_27,101,001,2,source,7,SAYING,HF,target,left,aqua,pleasantness,liberal,no,2,1,1.47921168266,-,-
2019_Mar_27,101,001,2,source,8,RUNNING,HF,target,right,yellow,imageability,conservative,no,9,1,2.18617834437,-,-
2019_Mar_27,101,001,2,source,9,PRACTICE,HF,target,right,yellow,imageability,liberal,no,8,1,1.65298412529,-,-
2019_Mar_27,101,001,2,source,10,RELAXES,LF,target,right,yellow,imageability,conservative,no,8,1,1.22661557175,-,-
2019_Mar_27,101,001,2,source,11,OBESE,LF,target,left,aqua,pleasantness,conservative,no,1,1,0.826758767535,-,-
2019_Mar_27,101,001,2,source,12,BRING,HF,target,left,aqua,pleasantness,conservative,no,1,1,2.81255576973,-,-
2019_Mar_27,101,001,2,source,13,NUCLEAR,HF,target,right,yellow,imageability,liberal,no,9,1,2.62614976387,-,-
2019_Mar_27,101,001,2,source,14,LIVED,HF,target,left,aqua,pleasantness,liberal,no,1,1,1.87961876048,-,-
2019_Mar_27,101,001,2,source,15,CATALYST,LF,target,right,yellow,imageability,conservative,no,9,1,1.6643488698,-,-
2019_Mar_27,101,001,2,source,16,PRIVATE,HF,target,right,yellow,imageability,liberal,no,9,1,1.26653478675,-,-
2019_Mar_27,101,001,2,source,17,JUROR,LF,target,right,yellow,imageability,liberal,no,9,1,0.999941709859,-,-
2019_Mar_27,101,001,2,source,18,LIKELY,HF,target,right,yellow,imageability,liberal,no,9,1,1.54644954383,-,-
2019_Mar_27,101,001,2,source,19,STICKER,LF,target,right,yellow,imageability,liberal,no,9,1,0.986622962502,-,-
2019_Mar_27,101,001,2,source,20,HEALTH,HF,target,left,aqua,pleasantness,conservative,no,1,1,1.47983857664,-,-
2019_Mar_27,101,001,2,source,21,SACRAMENT,LF,target,left,aqua,pleasantness,liberal,no,2,1,1.34649712912,-,-
2019_Mar_27,101,001,2,source,22,SYMBOLIZE,LF,target,left,aqua,pleasantness,conservative,no,1,1,1.30647893086,-,-
2019_Mar_27,101,001,2,source,23,LETTER,HF,target,left,aqua,pleasantness,liberal,yes,3,1,1.03969301992,-,-
2019_Mar_27,101,001,2,source,24,REACHED,HF,target,left,aqua,pleasantness,conservative,no,8,0,3.46542661418,-,-
2019_Mar_27,101,001,2,source,25,SALAMI,LF,target,left,aqua,pleasantness,liberal,no,1,1,0.720039417334,-,-
2019_Mar_27,101,001,2,source,26,CAGED,LF,target,right,yellow,imageability,liberal,no,9,1,2.13281646964,-,-
2019_Mar_27,101,001,2,source,27,DOLPHIN,LF,target,right,yellow,imageability,conservative,no,9,1,0.640151129106,-,-
2019_Mar_27,101,001,2,source,28,AMONG,HF,target,right,yellow,imageability,conservative,no,8,1,2.03955407675,-,-
2019_Mar_27,101,001,2,source,29,EIDERDOWN,LF,target,right,yellow,imageability,liberal,no,1,0,3.41232722839,-,-
2019_Mar_27,101,001,2,source,30,ACORNS,LF,target,left,aqua,pleasantness,conservative,yes,7,0,1.1864404667,-,-
2019_Mar_27,101,001,2,source,31,PLEASE,HF,target,left,aqua,pleasantness,conservative,no,1,1,1.33315345265,-,-
2019_Mar_27,101,001,2,source,32,SKYLIGHT,LF,target,left,aqua,pleasantness,liberal,yes,3,1,0.786762932164,-,-
2019_Mar_27,101,001,2,source,33,PINAFORE,LF,target,left,aqua,pleasantness,conservative,no,1,1,1.38647390105,-,-
2019_Mar_27,101,001,2,source,34,MESSED,LF,target,left,aqua,pleasantness,liberal,no,1,1,3.45211703194,-,-
2019_Mar_27,101,001,2,source,35,ADVERSELY,LF,target,right,yellow,imageability,conservative,no,8,1,1.04002003128,-,-
2019_Mar_27,101,001,2,source,36,PHRASED,LF,target,right,yellow,imageability,conservative,no,8,1,1.62644708025,-,-
2019_Mar_27,101,001,2,source,37,FOUND,HF,target,right,yellow,imageability,conservative,no,1,0,2.19945493219,-,-
2019_Mar_27,101,001,2,source,38,SPRATS,LF,target,right,yellow,imageability,conservative,yes,3,0,0.746756831861,-,-
2019_Mar_27,101,001,2,source,39,LOPSIDED,LF,target,right,yellow,imageability,liberal,no,9,1,1.75940762552,-,-
2019_Mar_27,101,001,2,source,40,ENTIRELY,HF,target,right,yellow,imageability,conservative,no,9,1,1.26651169066,-,-
2019_Mar_27,101,001,2,source,41,ORBITAL,LF,target,left,aqua,pleasantness,liberal,no,1,1,1.7196673136,-,-
2019_Mar_27,101,001,2,source,42,HERSELF,HF,target,left,aqua,pleasantness,liberal,no,1,1,0.666750496932,-,-
2019_Mar_27,101,001,2,source,43,FRONT,HF,target,right,yellow,imageability,liberal,no,9,1,1.41309269892,-,-
2019_Mar_27,101,001,2,source,44,PASSED,HF,target,right,yellow,imageability,conservative,no,2,0,3.6389710287,-,-
2019_Mar_27,101,001,2,source,45,DOSSIERS,LF,target,right,yellow,imageability,liberal,no,2,0,2.1062871233,-,-
2019_Mar_27,101,001,2,source,46,SABLE,LF,target,left,aqua,pleasantness,conservative,no,8,0,2.15930952212,-,-
2019_Mar_27,101,001,2,source,47,RETURN,HF,target,left,aqua,pleasantness,conservative,no,1,1,1.87960959536,-,-
2019_Mar_27,101,001,2,recog,0,LOPSIDED,LF,target,right,yellow,imageability,liberal,no,z,1,1.46672366147,3,309
2019_Mar_27,101,001,2,recog,1,LATER,HF,lure,-,-,-,liberal,no,z,0,1.26674228499,-1,308
2019_Mar_27,101,001,2,recog,2,SPRATS,LF,target,right,yellow,imageability,conservative,no,m,0,1.53311319946,-1,307
2019_Mar_27,101,001,2,recog,3,SAYING,HF,target,left,aqua,pleasantness,liberal,no,z,1,0.893090748585,3,310
2019_Mar_27,101,001,2,recog,4,PHRASED,LF,target,right,yellow,imageability,conservative,no,z,1,1.81293227272,1,311
2019_Mar_27,101,001,2,recog,5,TRYING,HF,lure,-,-,-,conservative,no,z,0,3.55895662847,-3,308
2019_Mar_27,101,001,2,recog,6,MESSED,LF,target,left,aqua,pleasantness,liberal,no,z,1,2.26612785558,3,311
2019_Mar_27,101,001,2,recog,7,PINAFORE,LF,target,left,aqua,pleasantness,conservative,no,z,1,1.07991065111,1,312
2019_Mar_27,101,001,2,recog,8,GLIDED,LF,lure,-,-,-,conservative,no,m,1,2.14614254909,3,315
2019_Mar_27,101,001,2,recog,9,CHIEF,HF,lure,-,-,-,conservative,no,m,1,0.893300079846,3,318
2019_Mar_27,101,001,2,recog,10,BRING,HF,target,left,aqua,pleasantness,conservative,no,z,1,0.893180933332,1,319
2019_Mar_27,101,001,2,recog,11,EIDERDOWN,LF,target,right,yellow,imageability,liberal,no,z,1,0.773370497271,3,322
2019_Mar_27,101,001,2,recog,12,GOVERNS,LF,lure,-,-,-,conservative,no,z,0,1.25316581455,-3,319
2019_Mar_27,101,001,2,recog,13,LETTER,HF,target,left,aqua,pleasantness,liberal,no,z,1,0.693431250995,3,322
2019_Mar_27,101,001,2,recog,14,ENTIRELY,HF,target,right,yellow,imageability,conservative,no,z,1,2.63935119773,1,323
2019_Mar_27,101,001,2,recog,15,RUNNING,HF,target,right,yellow,imageability,conservative,no,z,1,0.640440746787,1,324
2019_Mar_27,101,001,2,recog,16,ALMOST,HF,target,left,aqua,pleasantness,conservative,no,z,1,0.813332238407,1,325
2019_Mar_27,101,001,2,recog,17,GIVEN,HF,lure,-,-,-,liberal,yes,z,0,1.25320027539,-1,324
2019_Mar_27,101,001,2,recog,18,ORBITAL,LF,target,left,aqua,pleasantness,liberal,no,z,1,0.680103705126,3,327
2019_Mar_27,101,001,2,recog,19,AHEAD,HF,lure,-,-,-,liberal,no,z,0,2.42605583976,-1,326
2019_Mar_27,101,001,2,recog,20,RESEARCH,HF,lure,-,-,-,liberal,no,m,1,1.34631859265,1,327
2019_Mar_27,101,001,2,recog,21,ADVERSELY,LF,target,right,yellow,imageability,conservative,no,z,1,2.21296174774,1,328
2019_Mar_27,101,001,2,recog,22,JUROR,LF,target,right,yellow,imageability,liberal,no,z,1,1.01330811582,3,331
2019_Mar_27,101,001,2,recog,23,TINGLING,LF,lure,-,-,-,liberal,no,m,1,0.959738009644,1,332
2019_Mar_27,101,001,2,recog,24,ALLOWED,HF,lure,-,-,-,conservative,no,z,0,1.07969362115,-3,329
2019_Mar_27,101,001,2,recog,25,RUINOUS,LF,lure,-,-,-,liberal,no,m,1,1.87938706633,1,330
2019_Mar_27,101,001,2,recog,26,JANGLING,LF,lure,-,-,-,liberal,no,m,1,1.01326815591,1,331
2019_Mar_27,101,001,2,recog,27,SIFTED,LF,lure,-,-,-,conservative,no,m,1,0.973097450118,3,334
2019_Mar_27,101,001,2,recog,28,STICKER,LF,target,right,yellow,imageability,liberal,no,z,1,0.893429124688,3,337
2019_Mar_27,101,001,2,recog,29,PRACTICE,HF,target,right,yellow,imageability,liberal,no,z,1,0.906651821622,3,340
2019_Mar_27,101,001,2,recog,30,NOTHING,HF,lure,-,-,-,conservative,no,m,1,1.05325372635,3,343
2019_Mar_27,101,001,2,recog,31,PSEUDONYM,LF,target,left,aqua,pleasantness,liberal,no,z,1,0.760192892709,3,346
2019_Mar_27,101,001,2,recog,32,TALKING,HF,target,left,aqua,pleasantness,liberal,no,z,1,0.693403022435,3,349
2019_Mar_27,101,001,2,recog,33,PLYWOOD,LF,lure,-,-,-,liberal,no,m,1,1.53327230588,1,350
2019_Mar_27,101,001,2,recog,34,BUMBLING,LF,lure,-,-,-,conservative,no,m,1,0.986378070589,3,353
2019_Mar_27,101,001,2,recog,35,DOLPHIN,LF,target,right,yellow,imageability,conservative,no,z,1,1.02660633331,1,354
2019_Mar_27,101,001,2,recog,36,RAPACIOUS,LF,lure,-,-,-,liberal,no,m,1,1.30649982733,1,355
2019_Mar_27,101,001,2,recog,37,SOCIAL,HF,lure,-,-,-,liberal,no,m,1,1.31993918762,1,356
2019_Mar_27,101,001,2,recog,38,DECIDED,HF,lure,-,-,-,conservative,no,m,1,1.3331420879,3,359
2019_Mar_27,101,001,2,recog,39,BARBARIAN,LF,lure,-,-,-,conservative,no,m,1,0.65340682046,3,362
2019_Mar_27,101,001,2,recog,40,RETURN,HF,target,left,aqua,pleasantness,conservative,no,z,1,0.946652789458,1,363
2019_Mar_27,101,001,2,recog,41,USING,HF,lure,-,-,-,liberal,no,m,1,0.879983532119,1,364
2019_Mar_27,101,001,2,recog,42,FABLE,LF,lure,-,-,-,conservative,no,m,1,1.51986960605,3,367
2019_Mar_27,101,001,2,recog,43,DOSSIERS,LF,target,right,yellow,imageability,liberal,no,z,1,0.64009247236,3,370
2019_Mar_27,101,001,2,recog,44,WHITE,HF,lure,-,-,-,liberal,no,m,1,0.866653420018,1,371
2019_Mar_27,101,001,2,recog,45,SALAMI,LF,target,left,aqua,pleasantness,liberal,no,z,1,0.746834918653,3,374
2019_Mar_27,101,001,2,recog,46,TRUTH,HF,lure,-,-,-,conservative,no,m,1,1.33318351423,3,377
2019_Mar_27,101,001,2,recog,47,FOUND,HF,target,right,yellow,imageability,conservative,no,m,0,3.35897781822,-1,376
2019_Mar_27,101,001,2,recog,48,ENHANCES,LF,lure,-,-,-,conservative,no,m,1,1.25320980711,3,379
2019_Mar_27,101,001,2,recog,49,PAUNCH,LF,lure,-,-,-,conservative,no,m,1,0.840028756469,3,382
2019_Mar_27,101,001,2,recog,50,SIZZLING,LF,lure,-,-,-,liberal,no,z,0,1.67954939888,-1,381
2019_Mar_27,101,001,2,recog,51,BECAME,HF,lure,-,-,-,liberal,no,m,1,2.59931540245,1,382
2019_Mar_27,101,001,2,recog,52,RELAXES,LF,target,right,yellow,imageability,conservative,no,z,1,0.826445320548,1,383
2019_Mar_27,101,001,2,recog,53,CONCERNED,HF,target,left,aqua,pleasantness,liberal,no,m,0,1.55972063258,-3,380
2019_Mar_27,101,001,2,recog,54,SABLE,LF,target,left,aqua,pleasantness,conservative,yes,m,0,1.01334001043,-1,379
2019_Mar_27,101,001,2,recog,55,DEFEATING,LF,lure,-,-,-,liberal,no,m,1,2.67932870287,1,380
2019_Mar_27,101,001,2,recog,56,VENDETTA,LF,lure,-,-,-,liberal,no,m,1,0.893101746726,1,381
2019_Mar_27,101,001,2,recog,57,ACORNS,LF,target,left,aqua,pleasantness,conservative,no,z,1,0.786688144812,1,382
2019_Mar_27,101,001,2,recog,58,DOING,HF,lure,-,-,-,conservative,no,m,1,2.02624742735,3,385
2019_Mar_27,101,001,2,recog,59,LEPROSY,LF,lure,-,-,-,liberal,no,m,1,1.22651658849,1,386
2019_Mar_27,101,001,2,recog,60,SYMBOLIZE,LF,target,left,aqua,pleasantness,conservative,no,None,-1,-1,-1,385
2019_Mar_27,101,001,2,recog,61,UNION,HF,target,right,yellow,imageability,conservative,no,z,1,1.13325859486,1,386
2019_Mar_27,101,001,2,recog,62,ATONEMENT,LF,target,left,aqua,pleasantness,conservative,no,z,1,1.17320823805,1,387
2019_Mar_27,101,001,2,recog,63,HERSELF,HF,target,left,aqua,pleasantness,liberal,no,z,1,0.680118002709,3,390
2019_Mar_27,101,001,2,recog,64,SACRAMENT,LF,target,left,aqua,pleasantness,liberal,no,z,1,3.34577821738,3,393
2019_Mar_27,101,001,2,recog,65,NUCLEAR,HF,target,right,yellow,imageability,liberal,no,z,1,1.19990768895,3,396
2019_Mar_27,101,001,2,recog,66,TOGETHER,HF,lure,-,-,-,liberal,no,m,1,1.62634919681,1,397
2019_Mar_27,101,001,2,recog,67,SKYLIGHT,LF,target,left,aqua,pleasantness,liberal,no,z,1,0.760129836706,3,400
2019_Mar_27,101,001,2,recog,68,HEALTH,HF,target,left,aqua,pleasantness,conservative,no,z,1,0.853394795826,1,401
2019_Mar_27,101,001,2,recog,69,OBESE,LF,target,left,aqua,pleasantness,conservative,no,z,1,0.58680758461,1,402
2019_Mar_27,101,001,2,recog,70,CYNIC,LF,lure,-,-,-,conservative,no,m,1,0.746808889724,3,405
2019_Mar_27,101,001,2,recog,71,CATALYST,LF,target,right,yellow,imageability,conservative,no,z,1,0.733497107856,1,406
2019_Mar_27,101,001,2,recog,72,SEVEN,HF,lure,-,-,-,conservative,yes,m,1,0.906448356034,3,409
2019_Mar_27,101,001,2,recog,73,TICKLE,LF,lure,-,-,-,conservative,no,m,1,1.1334026705,3,412
2019_Mar_27,101,001,2,recog,74,PASSED,HF,target,right,yellow,imageability,conservative,no,z,1,1.57267644132,1,413
2019_Mar_27,101,001,2,recog,75,PRIVATE,HF,target,right,yellow,imageability,liberal,no,m,0,1.05324016198,-3,410
2019_Mar_27,101,001,2,recog,76,REACHED,HF,target,left,aqua,pleasantness,conservative,no,z,1,2.07964449613,1,411
2019_Mar_27,101,001,2,recog,77,BEAUTIFUL,HF,lure,-,-,-,liberal,no,m,1,0.853325507545,1,412
2019_Mar_27,101,001,2,recog,78,PLEASE,HF,target,left,aqua,pleasantness,conservative,no,z,1,2.34607223432,1,413
2019_Mar_27,101,001,2,recog,79,CRUCIALLY,LF,lure,-,-,-,conservative,no,m,1,1.05303193053,3,416
2019_Mar_27,101,001,2,recog,80,ERADICATE,LF,lure,-,-,-,liberal,no,m,1,1.71966474737,1,417
2019_Mar_27,101,001,2,recog,81,CAGED,LF,target,right,yellow,imageability,liberal,no,z,1,0.946520078571,3,420
2019_Mar_27,101,001,2,recog,82,OLDER,HF,lure,-,-,-,conservative,no,m,1,1.27970982508,3,423
2019_Mar_27,101,001,2,recog,83,AMONG,HF,target,right,yellow,imageability,conservative,yes,m,0,0.973326211428,-1,422
2019_Mar_27,101,001,2,recog,84,INVOLVED,HF,lure,-,-,-,conservative,no,m,1,1.58639405455,3,425
2019_Mar_27,101,001,2,recog,85,UNMADE,LF,lure,-,-,-,liberal,no,m,1,0.959942208441,1,426
2019_Mar_27,101,001,2,recog,86,BOOKS,HF,lure,-,-,-,conservative,no,m,1,0.813343603151,3,429
2019_Mar_27,101,001,2,recog,87,STAFF,HF,lure,-,-,-,conservative,no,m,1,1.13302470109,3,432
2019_Mar_27,101,001,2,recog,88,SOUND,HF,lure,-,-,-,liberal,no,m,1,1.15988325841,1,433
2019_Mar_27,101,001,2,recog,89,GYPSIES,LF,lure,-,-,-,liberal,no,m,1,1.10659433801,1,434
2019_Mar_27,101,001,2,recog,90,ALREADY,HF,lure,-,-,-,liberal,no,z,0,1.61311036927,-1,433
2019_Mar_27,101,001,2,recog,91,BEDLAM,LF,lure,-,-,-,conservative,no,m,1,1.47981144789,3,436
2019_Mar_27,101,001,2,recog,92,LIKELY,HF,target,right,yellow,imageability,liberal,no,z,1,2.73243688717,3,439
2019_Mar_27,101,001,2,recog,93,LIVED,HF,target,left,aqua,pleasantness,liberal,no,z,1,1.17323756642,3,442
2019_Mar_27,101,001,2,recog,94,FRONT,HF,target,right,yellow,imageability,liberal,no,z,1,0.760082911309,3,445
2019_Mar_27,101,001,2,recog,95,WHOLE,HF,target,right,yellow,imageability,liberal,no,z,1,0.626774458213,3,448
2019_Mar_27,101,001,3,source,0,WRONG,HF,target,left,aqua,pleasantness,liberal,no,8,0,2.72074293168,-,-
2019_Mar_27,101,001,3,source,1,SHEARING,LF,target,left,aqua,pleasantness,conservative,no,2,1,2.825946005,-,-
2019_Mar_27,101,001,3,source,2,SIMILAR,HF,target,left,aqua,pleasantness,conservative,yes,3,1,0.973356639613,-,-
2019_Mar_27,101,001,3,source,3,BEYOND,HF,target,right,yellow,imageability,conservative,no,9,1,1.26652122238,-,-
2019_Mar_27,101,001,3,source,4,WANTED,HF,target,right,yellow,imageability,liberal,no,8,1,1.25327359633,-,-
2019_Mar_27,101,001,3,source,5,SYRINGE,LF,target,right,yellow,imageability,liberal,yes,7,1,0.786445819131,-,-
2019_Mar_27,101,001,3,source,6,BROUGHT,HF,target,left,aqua,pleasantness,conservative,no,2,1,1.90623609193,-,-
2019_Mar_27,101,001,3,source,7,CHOICE,HF,target,left,aqua,pleasantness,liberal,no,1,1,2.01286012492,-,-
2019_Mar_27,101,001,3,source,8,OATHS,LF,target,left,aqua,pleasantness,liberal,no,1,1,0.98642462938,-,-
2019_Mar_27,101,001,3,source,9,EBULLIENT,LF,target,left,aqua,pleasantness,liberal,no,2,1,2.51936552464,-,-
2019_Mar_27,101,001,3,source,10,ENOUGH,HF,target,right,yellow,imageability,liberal,no,8,1,3.71895426754,-,-
2019_Mar_27,101,001,3,source,11,AUGMENT,LF,target,left,aqua,pleasantness,liberal,no,1,1,1.22628672737,-,-
2019_Mar_27,101,001,3,source,12,EFFECT,HF,target,left,aqua,pleasantness,conservative,yes,3,1,0.800013491053,-,-
2019_Mar_27,101,001,3,source,13,CRYPT,LF,target,left,aqua,pleasantness,conservative,no,1,1,1.079869958,-,-
2019_Mar_27,101,001,3,source,14,CENTRAL,HF,target,right,yellow,imageability,conservative,no,9,1,0.946449690477,-,-
2019_Mar_27,101,001,3,source,15,AEROSOL,LF,target,left,aqua,pleasantness,conservative,no,1,1,0.999790668739,-,-
2019_Mar_27,101,001,3,source,16,ALONE,HF,target,left,aqua,pleasantness,liberal,no,1,1,1.09325726042,-,-
2019_Mar_27,101,001,3,source,17,SAPLINGS,LF,target,left,aqua,pleasantness,liberal,no,1,1,0.73316716366,-,-
2019_Mar_27,101,001,3,source,18,ORDER,HF,target,left,aqua,pleasantness,conservative,no,1,1,2.53261205088,-,-
2019_Mar_27,101,001,3,source,19,SAMENESS,LF,target,right,yellow,imageability,conservative,no,9,1,1.49311553106,-,-
2019_Mar_27,101,001,3,source,20,TROUBLE,HF,target,left,aqua,pleasantness,liberal,no,1,1,2.03962703108,-,-
2019_Mar_27,101,001,3,source,21,PICTURE,HF,target,right,yellow,imageability,conservative,no,9,1,1.14682296734,-,-
2019_Mar_27,101,001,3,source,22,AIRBED,LF,target,right,yellow,imageability,liberal,no,9,1,0.893127042445,-,-
2019_Mar_27,101,001,3,source,23,BUDDIES,LF,target,left,aqua,pleasantness,liberal,no,1,1,2.18602143757,-,-
2019_Mar_27,101,001,3,source,24,ARRIVED,HF,target,left,aqua,pleasantness,conservative,no,1,1,3.065494656,-,-
2019_Mar_27,101,001,3,source,25,CAKED,LF,target,right,yellow,imageability,conservative,no,9,1,1.1999593802,-,-
2019_Mar_27,101,001,3,source,26,SUDDENLY,HF,target,right,yellow,imageability,liberal,no,2,0,2.19946812996,-,-
2019_Mar_27,101,001,3,source,27,WAITING,HF,target,right,yellow,imageability,conservative,no,8,1,2.33273918938,-,-
2019_Mar_27,101,001,3,source,28,ADDED,HF,target,right,yellow,imageability,liberal,no,8,1,0.906432225429,-,-
2019_Mar_27,101,001,3,source,29,CIVILITY,LF,target,right,yellow,imageability,liberal,no,8,1,1.11999593802,-,-
2019_Mar_27,101,001,3,source,30,LOVELIEST,LF,target,right,yellow,imageability,liberal,no,9,1,1.18634514949,-,-
2019_Mar_27,101,001,3,source,31,SECOND,HF,target,right,yellow,imageability,liberal,no,9,1,1.2396817285,-,-
2019_Mar_27,101,001,3,source,32,EGOISM,LF,target,left,aqua,pleasantness,conservative,no,2,1,1.38628326662,-,-
2019_Mar_27,101,001,3,source,33,WOODCOCK,LF,target,right,yellow,imageability,liberal,no,9,1,1.67978952493,-,-
2019_Mar_27,101,001,3,source,34,EJECTED,LF,target,right,yellow,imageability,conservative,no,9,1,1.46631929653,-,-
2019_Mar_27,101,001,3,source,35,MAUSOLEUM,LF,target,right,yellow,imageability,conservative,no,9,1,1.22659650831,-,-
2019_Mar_27,101,001,3,source,36,TREES,HF,target,right,yellow,imageability,liberal,no,9,1,0.773372330294,-,-
2019_Mar_27,101,001,3,source,37,DAPPER,LF,target,left,aqua,pleasantness,liberal,yes,7,0,0.826840153768,-,-
2019_Mar_27,101,001,3,source,38,LYNCH,LF,target,left,aqua,pleasantness,conservative,no,1,1,1.62652846649,-,-
2019_Mar_27,101,001,3,source,39,GARDEN,HF,target,right,yellow,imageability,conservative,no,2,0,3.66564005141,-,-
2019_Mar_27,101,001,3,source,40,BABBLED,LF,target,left,aqua,pleasantness,conservative,no,2,1,1.95957926983,-,-
2019_Mar_27,101,001,3,source,41,COMES,HF,target,left,aqua,pleasantness,liberal,no,2,1,1.78634316982,-,-
2019_Mar_27,101,001,3,source,42,AVAILABLE,HF,target,left,aqua,pleasantness,conservative,no,2,1,2.9724980515,-,-
2019_Mar_27,101,001,3,source,43,LARGE,HF,target,right,yellow,imageability,conservative,no,9,1,2.07928265733,-,-
2019_Mar_27,101,001,3,source,44,PIZZA,LF,target,right,yellow,imageability,liberal,no,9,1,0.919762337531,-,-
2019_Mar_27,101,001,3,source,45,SKETCHY,LF,target,right,yellow,imageability,conservative,no,1,0,1.87936946931,-,-
2019_Mar_27,101,001,3,source,46,PRYING,LF,target,right,yellow,imageability,conservative,no,1,0,2.29288339699,-,-
2019_Mar_27,101,001,3,source,47,MUSIC,HF,target,left,aqua,pleasantness,liberal,no,9,0,0.826553102319,-,-
2019_Mar_27,101,001,3,recog,0,OATHS,LF,target,left,aqua,pleasantness,liberal,no,z,1,1.66634356576,3,451
2019_Mar_27,101,001,3,recog,1,COMES,HF,target,left,aqua,pleasantness,liberal,no,z,1,0.760047350659,3,454
2019_Mar_27,101,001,3,recog,2,EGOISM,LF,target,left,aqua,pleasantness,conservative,no,z,1,0.840047819911,1,455
2019_Mar_27,101,001,3,recog,3,CIVILITY,LF,target,right,yellow,imageability,liberal,no,z,1,0.600163359039,3,458
2019_Mar_27,101,001,3,recog,4,CRYPT,LF,target,left,aqua,pleasantness,conservative,no,z,1,0.546796718447,1,459
2019_Mar_27,101,001,3,recog,5,TREES,HF,target,right,yellow,imageability,liberal,no,z,1,0.506824345775,3,462
2019_Mar_27,101,001,3,recog,6,UNTIL,HF,lure,-,-,-,liberal,no,m,1,1.85299776298,1,463
2019_Mar_27,101,001,3,recog,7,AEROSOL,LF,target,left,aqua,pleasantness,conservative,no,z,1,0.746829419584,1,464
2019_Mar_27,101,001,3,recog,8,MAUSOLEUM,LF,target,right,yellow,imageability,conservative,no,z,1,0.800080213099,1,465
2019_Mar_27,101,001,3,recog,9,HOVELS,LF,lure,-,-,-,conservative,no,m,1,0.800187628265,3,468
2019_Mar_27,101,001,3,recog,10,CENTRAL,HF,target,right,yellow,imageability,conservative,no,z,1,0.840059551261,1,469
2019_Mar_27,101,001,3,recog,11,RANGE,HF,lure,-,-,-,liberal,no,m,1,1.42644297428,1,470
2019_Mar_27,101,001,3,recog,12,ENERGY,HF,lure,-,-,-,liberal,no,m,1,0.86646791806,1,471
2019_Mar_27,101,001,3,recog,13,WETTER,LF,lure,-,-,-,conservative,no,m,1,0.760017289076,3,474
2019_Mar_27,101,001,3,recog,14,COERCION,LF,lure,-,-,-,conservative,no,m,1,0.680196456107,3,477
2019_Mar_27,101,001,3,recog,15,DAPPER,LF,target,left,aqua,pleasantness,liberal,no,z,1,0.786725538488,3,480
2019_Mar_27,101,001,3,recog,16,ANIMAL,HF,lure,-,-,-,liberal,no,m,1,0.97324702482,1,481
2019_Mar_27,101,001,3,recog,17,VOICE,HF,lure,-,-,-,liberal,no,m,1,1.01331214847,1,482
2019_Mar_27,101,001,3,recog,18,ARRIVED,HF,target,left,aqua,pleasantness,conservative,no,z,1,0.680212220106,1,483
2019_Mar_27,101,001,3,recog,19,HUSBAND,HF,lure,-,-,-,liberal,no,m,1,0.973271220728,1,484
2019_Mar_27,101,001,3,recog,20,SYRINGE,LF,target,right,yellow,imageability,liberal,no,z,1,1.34662507415,3,487
2019_Mar_27,101,001,3,recog,21,THANK,HF,lure,-,-,-,liberal,no,z,0,1.30658524622,-1,486
2019_Mar_27,101,001,3,recog,22,TOWARDS,HF,lure,-,-,-,liberal,no,z,0,1.37311262755,-1,485
2019_Mar_27,101,001,3,recog,23,REPORT,HF,lure,-,-,-,liberal,no,m,1,1.1866996562,1,486
2019_Mar_27,101,001,3,recog,24,SKETCHY,LF,target,right,yellow,imageability,conservative,no,z,1,0.680089407544,1,487
2019_Mar_27,101,001,3,recog,25,NEITHER,HF,lure,-,-,-,conservative,no,m,1,2.25276914831,3,490
2019_Mar_27,101,001,3,recog,26,ORDER,HF,target,left,aqua,pleasantness,conservative,no,z,1,1.09328475577,1,491
2019_Mar_27,101,001,3,recog,27,BUZZARD,LF,lure,-,-,-,liberal,no,z,0,0.720063979847,-1,490
2019_Mar_27,101,001,3,recog,28,EBULLIENT,LF,target,left,aqua,pleasantness,liberal,no,z,1,0.839930873026,3,493
2019_Mar_27,101,001,3,recog,29,USHERS,LF,lure,-,-,-,liberal,yes,z,0,1.06636827491,-1,492
2019_Mar_27,101,001,3,recog,30,WANTED,HF,target,right,yellow,imageability,liberal,no,m,0,1.37311262755,-3,489
2019_Mar_27,101,001,3,recog,31,OPULENCE,LF,lure,-,-,-,conservative,no,m,1,1.42650163102,3,492
2019_Mar_27,101,001,3,recog,32,EAVES,LF,lure,-,-,-,conservative,no,m,1,2.39943777509,3,495
2019_Mar_27,101,001,3,recog,33,CAUGHT,HF,lure,-,-,-,conservative,no,m,1,1.14653738231,3,498
2019_Mar_27,101,001,3,recog,34,SHEARING,LF,target,left,aqua,pleasantness,conservative,no,z,1,0.879804995648,1,499
2019_Mar_27,101,001,3,recog,35,MOUTH,HF,lure,-,-,-,liberal,no,z,0,1.27999357709,-1,498
2019_Mar_27,101,001,3,recog,36,AIRBED,LF,target,right,yellow,imageability,liberal,no,z,1,1.05343226282,3,501
2019_Mar_27,101,001,3,recog,37,WEAKENS,LF,lure,-,-,-,liberal,no,m,1,1.9062254604,1,502
2019_Mar_27,101,001,3,recog,38,LEFTISTS,LF,lure,-,-,-,conservative,no,m,1,1.02659276894,3,505
2019_Mar_27,101,001,3,recog,39,MERELY,HF,lure,-,-,-,conservative,no,m,1,2.21279200978,3,508
2019_Mar_27,101,001,3,recog,40,MANDARIN,LF,lure,-,-,-,liberal,no,m,1,1.06664762767,1,509
2019_Mar_27,101,001,3,recog,41,BROUGHT,HF,target,left,aqua,pleasantness,conservative,no,z,1,2.34600477906,1,510
2019_Mar_27,101,001,3,recog,42,ALONE,HF,target,left,aqua,pleasantness,liberal,no,z,1,0.98644259301,3,513
2019_Mar_27,101,001,3,recog,43,FIELD,HF,lure,-,-,-,conservative,no,m,1,4.03872848306,3,516
2019_Mar_27,101,001,3,recog,44,LYNCH,LF,target,left,aqua,pleasantness,conservative,yes,m,0,1.02663346206,-1,515
2019_Mar_27,101,001,3,recog,45,PRYING,LF,target,right,yellow,imageability,conservative,no,z,1,1.43961361335,1,516
2019_Mar_27,101,001,3,recog,46,INNATELY,LF,lure,-,-,-,liberal,no,m,1,0.973260222589,1,517
2019_Mar_27,101,001,3,recog,47,ACROSS,HF,lure,-,-,-,conservative,no,m,1,1.26636138275,3,520
2019_Mar_27,101,001,3,recog,48,WAITING,HF,target,right,yellow,imageability,conservative,no,z,1,2.2927506861,1,521
2019_Mar_27,101,001,3,recog,49,WOODCOCK,LF,target,right,yellow,imageability,liberal,no,z,1,0.933355671777,3,524
2019_Mar_27,101,001,3,recog,50,CAKED,LF,target,right,yellow,imageability,conservative,no,z,1,0.719859414445,1,525
2019_Mar_27,101,001,3,recog,51,BEYOND,HF,target,right,yellow,imageability,conservative,no,z,1,0.773439052342,1,526
2019_Mar_27,101,001,3,recog,52,PICTURE,HF,target,right,yellow,imageability,conservative,no,z,1,0.54695729129,1,527
2019_Mar_27,101,001,3,recog,53,GROUND,HF,lure,-,-,-,conservative,yes,m,1,1.00002602893,3,530
2019_Mar_27,101,001,3,recog,54,MAKES,HF,lure,-,-,-,conservative,no,m,1,1.37327173397,3,533
2019_Mar_27,101,001,3,recog,55,AVAILABLE,HF,target,left,aqua,pleasantness,conservative,no,z,1,1.53288957061,1,534
2019_Mar_27,101,001,3,recog,56,ADDED,HF,target,right,yellow,imageability,liberal,no,z,1,2.9591129487,3,537
2019_Mar_27,101,001,3,recog,57,DEMEANOUR,LF,lure,-,-,-,conservative,no,m,1,2.94559696803,3,540
2019_Mar_27,101,001,3,recog,58,SECOND,HF,target,right,yellow,imageability,liberal,no,z,1,1.49312066352,3,543
2019_Mar_27,101,001,3,recog,59,HONKING,LF,lure,-,-,-,conservative,no,m,1,0.986688951341,3,546
2019_Mar_27,101,001,3,recog,60,TUCKER,LF,lure,-,-,-,liberal,no,m,1,4.23883413852,1,547
2019_Mar_27,101,001,3,recog,61,PAVILIONS,LF,lure,-,-,-,liberal,no,m,1,0.880011394072,1,548
2019_Mar_27,101,001,3,recog,62,MUSIC,HF,target,left,aqua,pleasantness,liberal,no,z,1,0.680063378613,3,551
2019_Mar_27,101,001,3,recog,63,FOCUSES,LF,lure,-,-,-,conservative,no,m,1,0.986498683524,3,554
2019_Mar_27,101,001,3,recog,64,DEGREE,HF,lure,-,-,-,conservative,no,m,1,1.35979351359,3,557
2019_Mar_27,101,001,3,recog,65,SAMENESS,LF,target,right,yellow,imageability,conservative,no,z,1,1.01304892632,1,558
2019_Mar_27,101,001,3,recog,66,VIOLATING,LF,lure,-,-,-,liberal,no,m,1,1.89299359835,1,559
2019_Mar_27,101,001,3,recog,67,EJECTED,LF,target,right,yellow,imageability,conservative,no,z,1,0.773379295781,1,560
2019_Mar_27,101,001,3,recog,68,COPIOUSLY,LF,lure,-,-,-,liberal,no,m,1,1.07994951121,1,561
2019_Mar_27,101,001,3,recog,69,GAPED,LF,lure,-,-,-,liberal,no,m,1,0.826826956001,1,562
2019_Mar_27,101,001,3,recog,70,BABBLED,LF,target,left,aqua,pleasantness,conservative,no,z,1,1.0799572099,1,563
2019_Mar_27,101,001,3,recog,71,CALLED,HF,lure,-,-,-,liberal,no,m,1,1.23984560078,1,564
2019_Mar_27,101,001,3,recog,72,PIZZA,LF,target,right,yellow,imageability,liberal,no,z,1,0.826671882229,3,567
2019_Mar_27,101,001,3,recog,73,EIGHT,HF,lure,-,-,-,conservative,no,m,1,0.840166966427,3,570
2019_Mar_27,101,001,3,recog,74,WRONG,HF,target,left,aqua,pleasantness,liberal,no,m,0,1.45288580191,-3,567
2019_Mar_27,101,001,3,recog,75,EFFECT,HF,target,left,aqua,pleasantness,conservative,yes,m,0,0.919777368321,-1,566
2019_Mar_27,101,001,3,recog,76,SODDING,LF,lure,-,-,-,liberal,no,m,1,3.0925005884,1,567
2019_Mar_27,101,001,3,recog,77,SIMILAR,HF,target,left,aqua,pleasantness,conservative,no,m,0,0.933409929268,-1,566
2019_Mar_27,101,001,3,recog,78,EGGSHELL,LF,lure,-,-,-,liberal,no,m,1,1.29312755569,1,567
2019_Mar_27,101,001,3,recog,79,ENOUGH,HF,target,right,yellow,imageability,liberal,no,z,1,2.70593906884,3,570
2019_Mar_27,101,001,3,recog,80,WAFER,LF,lure,-,-,-,conservative,no,m,1,0.893319509894,3,573
2019_Mar_27,101,001,3,recog,81,DEVELOPED,HF,lure,-,-,-,liberal,no,m,1,1.7996633836,1,574
2019_Mar_27,101,001,3,recog,82,LIQUEUR,LF,lure,-,-,-,conservative,no,m,1,0.693453980484,3,577
2019_Mar_27,101,001,3,recog,83,GARDEN,HF,target,right,yellow,imageability,conservative,no,z,1,0.826679947531,1,578
2019_Mar_27,101,001,3,recog,84,LARGE,HF,target,right,yellow,imageability,conservative,no,z,1,0.786766598208,1,579
2019_Mar_27,101,001,3,recog,85,BUDDIES,LF,target,left,aqua,pleasantness,liberal,no,z,1,0.70671223807,3,582
2019_Mar_27,101,001,3,recog,86,TELEPHONE,HF,lure,-,-,-,conservative,no,m,1,3.01283262957,3,585
2019_Mar_27,101,001,3,recog,87,LOVELIEST,LF,target,right,yellow,imageability,liberal,no,z,1,0.973066288721,3,588
2019_Mar_27,101,001,3,recog,88,MEANS,HF,lure,-,-,-,conservative,no,m,1,1.32002570632,3,591
2019_Mar_27,101,001,3,recog,89,AUGMENT,LF,target,left,aqua,pleasantness,liberal,no,m,0,1.33321834167,-3,588
2019_Mar_27,101,001,3,recog,90,LONGER,HF,lure,-,-,-,conservative,no,m,1,2.78599672842,3,591
2019_Mar_27,101,001,3,recog,91,SAPLINGS,LF,target,left,aqua,pleasantness,liberal,no,z,1,0.813257084452,3,594
2019_Mar_27,101,001,3,recog,92,TROUBLE,HF,target,left,aqua,pleasantness,liberal,no,z,1,1.1333553785,3,597
2019_Mar_27,101,001,3,recog,93,CHOICE,HF,target,left,aqua,pleasantness,liberal,no,z,1,0.760159531685,3,600
2019_Mar_27,101,001,3,recog,94,SUDDENLY,HF,target,right,yellow,imageability,liberal,no,z,1,1.70633536848,3,603
2019_Mar_27,101,001,3,recog,95,FLICKS,LF,lure,-,-,-,conservative,no,m,1,1.31983983776,3,606
2019_Mar_27,101,001,4,source,0,DRINK,HF,target,left,aqua,pleasantness,liberal,no,1,1,2.65268277625,-,-
2019_Mar_27,101,001,4,source,1,NUMBER,HF,target,left,aqua,pleasantness,liberal,no,9,0,1.43951792954,-,-
2019_Mar_27,101,001,4,source,2,TWENTY,HF,target,left,aqua,pleasantness,conservative,no,1,1,2.99915167681,-,-
2019_Mar_27,101,001,4,source,3,ESCALATED,LF,target,right,yellow,imageability,conservative,no,9,1,1.54614856141,-,-
2019_Mar_27,101,001,4,source,4,IRATE,LF,target,left,aqua,pleasantness,liberal,no,8,0,2.90566308885,-,-
2019_Mar_27,101,001,4,source,5,CLEAR,HF,target,right,yellow,imageability,liberal,yes,7,1,0.880041089051,-,-
2019_Mar_27,101,001,4,source,6,MOVED,HF,target,left,aqua,pleasantness,conservative,no,1,1,1.6930620801,-,-
2019_Mar_27,101,001,4,source,7,PHYSICAL,HF,target,right,yellow,imageability,conservative,no,9,1,1.58639148832,-,-
2019_Mar_27,101,001,4,source,8,TAKEN,HF,target,left,aqua,pleasantness,conservative,no,1,1,0.880025325048,-,-
2019_Mar_27,101,001,4,source,9,EMULATION,LF,target,left,aqua,pleasantness,liberal,no,8,0,1.10664236322,-,-
2019_Mar_27,101,001,4,source,10,FOAMING,LF,target,left,aqua,pleasantness,conservative,yes,7,0,0.946387734288,-,-
2019_Mar_27,101,001,4,source,11,OVARIES,LF,target,right,yellow,imageability,liberal,no,9,1,1.11992774955,-,-
2019_Mar_27,101,001,4,source,12,NERVY,LF,target,left,aqua,pleasantness,liberal,no,1,1,1.17338384168,-,-
2019_Mar_27,101,001,4,source,13,BLOOD,HF,target,right,yellow,imageability,liberal,no,9,1,0.906629825344,-,-
2019_Mar_27,101,001,4,source,14,NOVAS,LF,target,right,yellow,imageability,liberal,no,9,1,1.74616659836,-,-
2019_Mar_27,101,001,4,source,15,AGGRAVATE,LF,target,right,yellow,imageability,conservative,no,9,1,2.53265457702,-,-
2019_Mar_27,101,001,4,source,16,DOUBT,HF,target,right,yellow,imageability,conservative,no,9,1,1.38625870411,-,-
2019_Mar_27,101,001,4,source,17,MOISTENED,LF,target,right,yellow,imageability,liberal,no,9,1,1.81296416733,-,-
2019_Mar_27,101,001,4,source,18,APPEARED,HF,target,right,yellow,imageability,conservative,no,9,1,2.98581716546,-,-
2019_Mar_27,101,001,4,source,19,WADDLED,LF,target,right,yellow,imageability,conservative,no,9,1,2.5725012043,-,-
2019_Mar_27,101,001,4,source,20,POOLED,LF,target,right,yellow,imageability,liberal,no,9,1,1.19985526448,-,-
2019_Mar_27,101,001,4,source,21,SKATES,LF,target,left,aqua,pleasantness,liberal,no,1,1,1.19961917108,-,-
2019_Mar_27,101,001,4,source,22,DIDACTIC,LF,target,right,yellow,imageability,liberal,yes,3,0,0.773326138105,-,-
2019_Mar_27,101,001,4,source,23,PIANOS,LF,target,left,aqua,pleasantness,conservative,no,1,1,0.746480411946,-,-
2019_Mar_27,101,001,4,source,24,HIMSELF,HF,target,left,aqua,pleasantness,conservative,no,1,1,0.826454852269,-,-
2019_Mar_27,101,001,4,source,25,SYSTEM,HF,target,left,aqua,pleasantness,liberal,no,1,1,0.880018726166,-,-
2019_Mar_27,101,001,4,source,26,LIARS,LF,target,left,aqua,pleasantness,conservative,no,1,1,0.999971038233,-,-
2019_Mar_27,101,001,4,source,27,PLACE,HF,target,right,yellow,imageability,liberal,no,9,1,1.38656408579,-,-
2019_Mar_27,101,001,4,source,28,QUICKLY,HF,target,left,aqua,pleasantness,conservative,no,9,0,1.01327108875,-,-
2019_Mar_27,101,001,4,source,29,ZEALOTS,LF,target,left,aqua,pleasantness,conservative,no,9,0,1.26627339762,-,-
2019_Mar_27,101,001,4,source,30,FIVER,LF,target,right,yellow,imageability,conservative,no,9,1,0.879998562908,-,-
2019_Mar_27,101,001,4,source,31,SUCCESS,HF,target,left,aqua,pleasantness,conservative,no,1,1,1.85296990102,-,-
2019_Mar_27,101,001,4,source,32,PNEUMATIC,LF,target,left,aqua,pleasantness,conservative,no,1,1,1.14634564807,-,-
2019_Mar_27,101,001,4,source,33,ACCORDING,HF,target,right,yellow,imageability,conservative,no,9,1,0.759806857999,-,-
2019_Mar_27,101,001,4,source,34,DWARFED,LF,target,right,yellow,imageability,conservative,no,9,1,1.34647733247,-,-
2019_Mar_27,101,001,4,source,35,PARENTS,HF,target,left,aqua,pleasantness,liberal,no,1,1,0.826679947531,-,-
2019_Mar_27,101,001,4,source,36,HANDS,HF,target,left,aqua,pleasantness,liberal,no,1,1,1.02648865322,-,-
2019_Mar_27,101,001,4,source,37,TAMING,LF,target,right,yellow,imageability,conservative,no,9,1,1.53315169294,-,-
2019_Mar_27,101,001,4,source,38,IMPORTANT,HF,target,right,yellow,imageability,conservative,no,9,1,1.79972314016,-,-
2019_Mar_27,101,001,4,source,39,ATHEIST,LF,target,left,aqua,pleasantness,liberal,no,1,1,0.706502540203,-,-
2019_Mar_27,101,001,4,source,40,WEEKS,HF,target,right,yellow,imageability,liberal,no,9,1,1.26654541828,-,-
2019_Mar_27,101,001,4,source,41,SUING,LF,target,right,yellow,imageability,liberal,no,9,1,1.2265088898,-,-
2019_Mar_27,101,001,4,source,42,REWRITE,LF,target,left,aqua,pleasantness,conservative,no,1,1,1.23989692543,-,-
2019_Mar_27,101,001,4,source,43,FREEDOM,HF,target,right,yellow,imageability,conservative,no,9,1,1.70636323043,-,-
2019_Mar_27,101,001,4,source,44,OPPOSES,LF,target,left,aqua,pleasantness,liberal,no,8,0,1.71975456551,-,-
2019_Mar_27,101,001,4,source,45,BEGAN,HF,target,left,aqua,pleasantness,liberal,no,1,1,2.62596426191,-,-
2019_Mar_27,101,001,4,source,46,SLOWLY,HF,target,right,yellow,imageability,liberal,yes,3,0,0.760026087588,-,-
2019_Mar_27,101,001,4,source,47,SINCE,HF,target,right,yellow,imageability,liberal,no,8,1,1.06669528627,-,-
2019_Mar_27,101,001,4,recog,0,PIANOS,LF,target,left,aqua,pleasantness,conservative,no,z,1,1.75965435046,1,607
2019_Mar_27,101,001,4,recog,1,LIARS,LF,target,left,aqua,pleasantness,conservative,no,z,1,0.73346521325,1,608
2019_Mar_27,101,001,4,recog,2,QUICKLY,HF,target,left,aqua,pleasantness,conservative,no,z,1,0.826549069667,1,609
2019_Mar_27,101,001,4,recog,3,SINCE,HF,target,right,yellow,imageability,liberal,no,z,1,0.800086078774,3,612
2019_Mar_27,101,001,4,recog,4,KEENER,LF,lure,-,-,-,liberal,no,m,1,0.853331006616,1,613
2019_Mar_27,101,001,4,recog,5,IRATE,LF,target,left,aqua,pleasantness,liberal,no,z,1,1.19990072346,3,616
2019_Mar_27,101,001,4,recog,6,MOISTENED,LF,target,right,yellow,imageability,liberal,no,z,1,0.840069449587,3,619
2019_Mar_27,101,001,4,recog,7,ELUDE,LF,lure,-,-,-,liberal,no,z,0,0.866720875276,-1,618
2019_Mar_27,101,001,4,recog,8,ROUND,HF,lure,-,-,-,conservative,no,m,1,0.906746772229,3,621
2019_Mar_27,101,001,4,recog,9,EARLIER,HF,lure,-,-,-,conservative,no,m,1,1.33323300586,3,624
2019_Mar_27,101,001,4,recog,10,NICETIES,LF,lure,-,-,-,liberal,no,m,1,0.880005528397,1,625
2019_Mar_27,101,001,4,recog,11,SERIOUS,HF,lure,-,-,-,liberal,no,m,1,0.826701210601,1,626
2019_Mar_27,101,001,4,recog,12,PUNCTUAL,LF,lure,-,-,-,conservative,no,m,1,0.746527337342,3,629
2019_Mar_27,101,001,4,recog,13,GUILDHALL,LF,lure,-,-,-,conservative,no,m,1,0.733383460411,3,632
2019_Mar_27,101,001,4,recog,14,ACCORDING,HF,target,right,yellow,imageability,conservative,no,z,1,0.640091005942,1,633
2019_Mar_27,101,001,4,recog,15,ADJOURNED,LF,lure,-,-,-,liberal,no,m,1,0.999984969209,1,634
2019_Mar_27,101,001,4,recog,16,PHYSICAL,HF,target,right,yellow,imageability,conservative,no,z,1,1.07990771827,1,635
2019_Mar_27,101,001,4,recog,17,RABBIS,LF,lure,-,-,-,conservative,no,m,1,0.906989831119,3,638
2019_Mar_27,101,001,4,recog,18,APPEARED,HF,target,right,yellow,imageability,conservative,no,z,1,1.9862295957,1,639
2019_Mar_27,101,001,4,recog,19,TWENTY,HF,target,left,aqua,pleasantness,conservative,no,z,1,0.653429183343,1,640
2019_Mar_27,101,001,4,recog,20,POOLED,LF,target,right,yellow,imageability,liberal,no,z,1,0.680093073592,3,643
2019_Mar_27,101,001,4,recog,21,CLEAR,HF,target,right,yellow,imageability,liberal,no,z,1,0.85335813536,3,646
2019_Mar_27,101,001,4,recog,22,SKATES,LF,target,left,aqua,pleasantness,liberal,no,z,1,0.61350300286,3,649
2019_Mar_27,101,001,4,recog,23,EVENING,HF,lure,-,-,-,conservative,yes,m,1,1.20000043993,3,652
2019_Mar_27,101,001,4,recog,24,SICKENED,LF,lure,-,-,-,liberal,no,z,0,6.26451332865,-1,651
2019_Mar_27,101,001,4,recog,25,NUMBER,HF,target,left,aqua,pleasantness,liberal,no,z,1,1.15990122204,3,654
2019_Mar_27,101,001,4,recog,26,SAWDUST,LF,lure,-,-,-,liberal,no,m,1,0.866651220391,1,655
2019_Mar_27,101,001,4,recog,27,ESCALATED,LF,target,right,yellow,imageability,conservative,no,z,1,1.47978321933,1,656
2019_Mar_27,101,001,4,recog,28,LOCAL,HF,lure,-,-,-,conservative,no,m,1,2.75936949864,3,659
2019_Mar_27,101,001,4,recog,29,IMPORTANT,HF,target,right,yellow,imageability,conservative,no,z,1,1.58644207976,1,660
2019_Mar_27,101,001,4,recog,30,TAMING,LF,target,right,yellow,imageability,conservative,yes,m,0,0.840021424376,-1,659
2019_Mar_27,101,001,4,recog,31,MAGGOT,LF,lure,-,-,-,conservative,no,m,1,0.880011760677,3,662
2019_Mar_27,101,001,4,recog,32,SYSTEM,HF,target,left,aqua,pleasantness,liberal,no,z,1,0.866649387368,3,665
2019_Mar_27,101,001,4,recog,33,NOVAS,LF,target,right,yellow,imageability,liberal,no,z,1,0.706719203559,3,668
2019_Mar_27,101,001,4,recog,34,ZEALOTS,LF,target,left,aqua,pleasantness,conservative,yes,m,0,0.826714408371,-1,667
2019_Mar_27,101,001,4,recog,35,OPPOSES,LF,target,left,aqua,pleasantness,liberal,no,z,1,3.54569763767,3,670
2019_Mar_27,101,001,4,recog,36,CANNOT,HF,lure,-,-,-,liberal,no,m,1,0.906693614554,1,671
2019_Mar_27,101,001,4,recog,37,BEGAN,HF,target,left,aqua,pleasantness,liberal,no,z,1,0.800369097573,3,674
2019_Mar_27,101,001,4,recog,38,OOZED,LF,lure,-,-,-,liberal,no,m,1,0.706521970251,1,675
2019_Mar_27,101,001,4,recog,39,DIOCESE,LF,lure,-,-,-,conservative,no,m,1,0.78671234072,3,678
2019_Mar_27,101,001,4,recog,40,FOAMING,LF,target,left,aqua,pleasantness,conservative,no,z,1,0.786710141092,1,679
2019_Mar_27,101,001,4,recog,41,DWARFED,LF,target,right,yellow,imageability,conservative,no,z,1,0.720095141241,1,680
2019_Mar_27,101,001,4,recog,42,ACTION,HF,lure,-,-,-,liberal,no,m,1,0.826767199442,1,681
2019_Mar_27,101,001,4,recog,43,SUCCESS,HF,target,left,aqua,pleasantness,conservative,no,z,1,0.626766759515,1,682
2019_Mar_27,101,001,4,recog,44,OVARIES,LF,target,right,yellow,imageability,liberal,no,z,1,0.573501668418,3,685
2019_Mar_27,101,001,4,recog,45,HEDGED,LF,lure,-,-,-,conservative,no,m,1,1.30649579468,3,688
2019_Mar_27,101,001,4,recog,46,UNDER,HF,lure,-,-,-,conservative,no,m,1,1.09314141335,3,691
2019_Mar_27,101,001,4,recog,47,OFFER,HF,lure,-,-,-,liberal,no,m,1,0.973043559232,1,692
2019_Mar_27,101,001,4,recog,48,NAGGED,LF,lure,-,-,-,liberal,no,m,1,1.07972184971,1,693
2019_Mar_27,101,001,4,recog,49,VINEYARDS,LF,lure,-,-,-,conservative,no,m,1,0.733630551953,3,696
2019_Mar_27,101,001,4,recog,50,DRINK,HF,target,left,aqua,pleasantness,liberal,no,z,1,0.640102370686,3,699
2019_Mar_27,101,001,4,recog,51,CASES,HF,lure,-,-,-,liberal,no,m,1,0.840078981309,1,700
2019_Mar_27,101,001,4,recog,52,LICENSING,LF,lure,-,-,-,conservative,no,m,1,0.69342538532,3,703
2019_Mar_27,101,001,4,recog,53,DANDELION,LF,lure,-,-,-,liberal,no,m,1,0.680082442057,1,704
2019_Mar_27,101,001,4,recog,54,MOVED,HF,target,left,aqua,pleasantness,conservative,yes,m,0,0.813363766409,-1,703
2019_Mar_27,101,001,4,recog,55,DIDACTIC,LF,target,right,yellow,imageability,liberal,no,m,0,0.880055753238,-3,700
2019_Mar_27,101,001,4,recog,56,REWRITE,LF,target,left,aqua,pleasantness,conservative,no,z,1,0.706717370535,1,701
2019_Mar_27,101,001,4,recog,57,DIFFERENT,HF,lure,-,-,-,conservative,no,m,1,1.81301329235,3,704
2019_Mar_27,101,001,4,recog,58,PIECE,HF,lure,-,-,-,conservative,no,m,1,0.76006714731,3,707
2019_Mar_27,101,001,4,recog,59,VILLAGE,HF,lure,-,-,-,conservative,no,m,1,0.680054213497,3,710
2019_Mar_27,101,001,4,recog,60,PALATABLE,LF,lure,-,-,-,conservative,no,m,1,0.840106843263,3,713
2019_Mar_27,101,001,4,recog,61,MAYBE,HF,lure,-,-,-,liberal,no,m,1,1.61311953438,1,714
2019_Mar_27,101,001,4,recog,62,WEEKS,HF,target,right,yellow,imageability,liberal,no,z,1,0.720241416502,3,717
2019_Mar_27,101,001,4,recog,63,HIMSELF,HF,target,left,aqua,pleasantness,conservative,no,z,1,0.626426916993,1,718
2019_Mar_27,101,001,4,recog,64,SUING,LF,target,right,yellow,imageability,liberal,no,z,1,0.653432116182,3,721
2019_Mar_27,101,001,4,recog,65,FIVER,LF,target,right,yellow,imageability,conservative,no,z,1,0.586762125633,1,722
2019_Mar_27,101,001,4,recog,66,WHATEVER,HF,lure,-,-,-,liberal,no,m,1,0.906615894366,1,723
2019_Mar_27,101,001,4,recog,67,TAKEN,HF,target,left,aqua,pleasantness,conservative,no,z,1,0.73340142404,1,724
2019_Mar_27,101,001,4,recog,68,ATHEIST,LF,target,left,aqua,pleasantness,liberal,no,z,1,0.586583222557,3,727
2019_Mar_27,101,001,4,recog,69,OFTEN,HF,lure,-,-,-,liberal,no,m,1,0.800020823146,1,728
2019_Mar_27,101,001,4,recog,70,FAMILY,HF,lure,-,-,-,conservative,no,z,0,0.680054213497,-3,725
2019_Mar_27,101,001,4,recog,71,INORGANIC,LF,lure,-,-,-,liberal,no,m,1,1.5061263305,1,726
2019_Mar_27,101,001,4,recog,72,EMULATION,LF,target,left,aqua,pleasantness,liberal,no,m,0,1.02664629322,-3,723
2019_Mar_27,101,001,4,recog,73,AGGRAVATE,LF,target,right,yellow,imageability,conservative,no,z,1,2.26612822218,1,724
2019_Mar_27,101,001,4,recog,74,HAPPEN,HF,lure,-,-,-,liberal,no,m,1,1.01334697591,1,725
2019_Mar_27,101,001,4,recog,75,WADDLED,LF,target,right,yellow,imageability,conservative,no,z,1,0.973350040729,1,726
2019_Mar_27,101,001,4,recog,76,FREEDOM,HF,target,right,yellow,imageability,conservative,no,z,1,1.15993091702,1,727
2019_Mar_27,101,001,4,recog,77,HARDLY,HF,lure,-,-,-,conservative,no,m,1,1.55969570347,3,730
2019_Mar_27,101,001,4,recog,78,PARENTS,HF,target,left,aqua,pleasantness,liberal,no,z,1,0.839989529772,3,733
2019_Mar_27,101,001,4,recog,79,PLACE,HF,target,right,yellow,imageability,liberal,no,z,1,1.47990016622,3,736
2019_Mar_27,101,001,4,recog,80,CAPITAL,HF,lure,-,-,-,liberal,no,m,1,3.94558120403,1,737
2019_Mar_27,101,001,4,recog,81,DEJECTED,LF,lure,-,-,-,liberal,no,m,1,2.17267299524,1,738
2019_Mar_27,101,001,4,recog,82,HANDS,HF,target,left,aqua,pleasantness,liberal,no,z,1,0.853313042986,3,741
2019_Mar_27,101,001,4,recog,83,RADIAL,LF,lure,-,-,-,conservative,no,m,1,0.906488315943,3,744
2019_Mar_27,101,001,4,recog,84,THEORY,HF,lure,-,-,-,liberal,no,m,1,0.799974264351,1,745
2019_Mar_27,101,001,4,recog,85,PNEUMATIC,LF,target,left,aqua,pleasantness,conservative,no,z,1,1.25343086972,1,746
2019_Mar_27,101,001,4,recog,86,LANGUAGE,HF,lure,-,-,-,conservative,no,m,1,0.853221025218,3,749
2019_Mar_27,101,001,4,recog,87,ESPECIAL,LF,lure,-,-,-,conservative,no,m,1,1.26652965428,3,752
2019_Mar_27,101,001,4,recog,88,NIGHT,HF,lure,-,-,-,conservative,no,m,1,0.999931078324,3,755
2019_Mar_27,101,001,4,recog,89,SLOWLY,HF,target,right,yellow,imageability,liberal,no,z,1,0.760045884241,3,758
2019_Mar_27,101,001,4,recog,90,NERVY,LF,target,left,aqua,pleasantness,liberal,no,z,1,0.586836546378,3,761
2019_Mar_27,101,001,4,recog,91,NEEDED,HF,lure,-,-,-,liberal,no,m,1,0.853428890061,1,762
2019_Mar_27,101,001,4,recog,92,UNZIPPED,LF,lure,-,-,-,conservative,no,m,1,0.87986255258,3,765
2019_Mar_27,101,001,4,recog,93,BLOOD,HF,target,right,yellow,imageability,liberal,no,z,1,2.81257409997,3,768
2019_Mar_27,101,001,4,recog,94,ETHER,LF,lure,-,-,-,liberal,no,z,0,1.33292835738,-1,767
2019_Mar_27,101,001,4,recog,95,DOUBT,HF,target,right,yellow,imageability,conservative,no,m,0,1.11989915439,-1,766
