date,subj,session,cycle,task,trial,item,wf,type,source,colour,encoding,bias,null,response,corr,rt,points,total
2019_Mar_27,102,001,0,source,0,RUNNING,HF,target,right,aqua,imageability,conservative,no,None,-1,-1,-,-
2019_Mar_27,102,001,0,source,1,RALLIED,LF,target,left,yellow,pleasantness,conservative,no,1,1,5.1184605977,-,-
2019_Mar_27,102,001,0,source,2,RAYON,LF,target,right,aqua,imageability,liberal,yes,7,1,1.39981427808,-,-
2019_Mar_27,102,001,0,source,3,ADVERSELY,LF,target,left,yellow,pleasantness,conservative,no,2,1,4.33169913195,-,-
2019_Mar_27,102,001,0,source,4,FAKING,LF,target,right,aqua,imageability,conservative,yes,7,1,0.973396966127,-,-
2019_Mar_27,102,001,0,source,5,TABLE,HF,target,left,yellow,pleasantness,conservative,no,7,0,2.3327410224,-,-
2019_Mar_27,102,001,0,source,6,LOCAL,HF,target,left,yellow,pleasantness,conservative,no,7,0,3.2257536842,-,-
2019_Mar_27,102,001,0,source,7,POSITION,HF,target,right,aqua,imageability,liberal,no,1,0,1.05307812272,-,-
2019_Mar_27,102,001,0,source,8,NECESSARY,HF,target,right,aqua,imageability,liberal,no,3,0,3.19904396836,-,-
2019_Mar_27,102,001,0,source,9,PHOBIC,LF,target,left,yellow,pleasantness,conservative,no,7,0,1.71967134625,-,-
2019_Mar_27,102,001,0,source,10,MEANS,HF,target,left,yellow,pleasantness,conservative,no,7,0,1.4262483072,-,-
2019_Mar_27,102,001,0,source,11,LOTTERY,LF,target,right,aqua,imageability,conservative,no,2,0,1.43985263959,-,-
2019_Mar_27,102,001,0,source,12,JUDICIOUS,LF,target,right,aqua,imageability,conservative,no,8,1,3.45234029418,-,-
2019_Mar_27,102,001,0,source,13,BUMBLING,LF,target,left,yellow,pleasantness,liberal,no,3,1,2.11950505438,-,-
2019_Mar_27,102,001,0,source,14,SPUDS,LF,target,left,yellow,pleasantness,conservative,no,2,1,1.53303327964,-,-
2019_Mar_27,102,001,0,source,15,RUINOUS,LF,target,right,aqua,imageability,conservative,no,8,1,2.14620890453,-,-
2019_Mar_27,102,001,0,source,16,TOOTHACHE,LF,target,left,yellow,pleasantness,liberal,no,1,1,1.43964184191,-,-
2019_Mar_27,102,001,0,source,17,UNLESS,HF,target,right,aqua,imageability,liberal,no,7,1,1.17322656828,-,-
2019_Mar_27,102,001,0,source,18,HEMMED,LF,target,right,aqua,imageability,liberal,no,3,0,1.53286720773,-,-
2019_Mar_27,102,001,0,source,19,VISCOUS,LF,target,right,aqua,imageability,conservative,no,8,1,2.02602086567,-,-
2019_Mar_27,102,001,0,source,20,FACILE,LF,target,left,yellow,pleasantness,liberal,no,2,1,1.59975092879,-,-
2019_Mar_27,102,001,0,source,21,DRAFTING,LF,target,right,aqua,imageability,liberal,no,7,1,1.13327619189,-,-
2019_Mar_27,102,001,0,source,22,HAPPEN,HF,target,left,yellow,pleasantness,liberal,no,3,1,0.920232324706,-,-
2019_Mar_27,102,001,0,source,23,RECENT,HF,target,left,yellow,pleasantness,liberal,no,3,1,1.37283694084,-,-
2019_Mar_27,102,001,0,source,24,TRYING,HF,target,left,yellow,pleasantness,liberal,no,3,1,1.71945284987,-,-
2019_Mar_27,102,001,0,source,25,HIMSELF,HF,target,right,aqua,imageability,conservative,no,8,1,2.21290785685,-,-
2019_Mar_27,102,001,0,source,26,GIVEN,HF,target,left,yellow,pleasantness,conservative,no,2,1,0.999941343254,-,-
2019_Mar_27,102,001,0,source,27,CAPITAL,HF,target,right,aqua,imageability,liberal,no,7,1,1.47978285273,-,-
2019_Mar_27,102,001,0,source,28,ARPEGGIO,LF,target,right,aqua,imageability,liberal,no,7,1,1.7727436033,-,-
2019_Mar_27,102,001,0,source,29,TAKEN,HF,target,left,yellow,pleasantness,liberal,no,2,1,0.880146671194,-,-
2019_Mar_27,102,001,0,source,30,WHOLE,HF,target,right,aqua,imageability,liberal,no,2,0,1.5597301643,-,-
2019_Mar_27,102,001,0,source,31,NIPPED,LF,target,left,yellow,pleasantness,liberal,yes,3,1,0.880073350261,-,-
2019_Mar_27,102,001,0,source,32,CHAIR,HF,target,right,aqua,imageability,conservative,no,7,1,1.83972704083,-,-
2019_Mar_27,102,001,0,source,33,UPKEEP,LF,target,left,yellow,pleasantness,conservative,yes,7,0,0.640168726128,-,-
2019_Mar_27,102,001,0,source,34,EARLIER,HF,target,right,aqua,imageability,conservative,no,8,1,2.33256981803,-,-
2019_Mar_27,102,001,0,source,35,DEGREE,HF,target,left,yellow,pleasantness,liberal,no,2,1,0.773536935787,-,-
2019_Mar_27,102,001,0,source,36,PIECE,HF,target,left,yellow,pleasantness,conservative,no,3,1,1.47990383227,-,-
2019_Mar_27,102,001,0,source,37,ERUDITE,LF,target,left,yellow,pleasantness,liberal,no,9,0,1.13301516937,-,-
2019_Mar_27,102,001,0,source,38,NEARLY,HF,target,right,aqua,imageability,conservative,no,2,0,1.73296699752,-,-
2019_Mar_27,102,001,0,source,39,OUTSIDE,HF,target,right,aqua,imageability,liberal,no,8,1,0.85338709713,-,-
2019_Mar_27,102,001,0,source,40,DETACH,LF,target,left,yellow,pleasantness,conservative,no,7,0,1.26661470657,-,-
2019_Mar_27,102,001,0,source,41,CUBED,LF,target,right,aqua,imageability,liberal,no,7,1,1.61308727317,-,-
2019_Mar_27,102,001,0,source,42,SCOFFED,LF,target,right,aqua,imageability,liberal,no,7,1,0.999998533582,-,-
2019_Mar_27,102,001,0,source,43,FIELD,HF,target,left,yellow,pleasantness,conservative,no,2,1,1.78633400471,-,-
2019_Mar_27,102,001,0,source,44,BLACK,HF,target,right,aqua,imageability,conservative,no,7,1,1.97289251811,-,-
2019_Mar_27,102,001,0,source,45,PESTERED,LF,target,right,aqua,imageability,conservative,no,2,0,2.9858523595,-,-
2019_Mar_27,102,001,0,source,46,ISOLATING,LF,target,left,yellow,pleasantness,liberal,no,7,0,2.07932188402,-,-
2019_Mar_27,102,001,0,source,47,BRING,HF,target,left,yellow,pleasantness,liberal,no,2,1,1.07969802041,-,-
2019_Mar_27,102,001,0,recog,0,PIECE,HF,target,left,yellow,pleasantness,conservative,no,m,0,2.30612589057,-1,-1
2019_Mar_27,102,001,0,recog,1,EARLIER,HF,target,right,aqua,imageability,conservative,no,m,0,4.69184055337,-1,-2
2019_Mar_27,102,001,0,recog,2,DAMASK,LF,lure,-,-,-,liberal,no,z,0,4.03873838138,-1,-3
2019_Mar_27,102,001,0,recog,3,GIVEN,HF,target,left,yellow,pleasantness,conservative,no,z,1,4.66520489168,1,-2
2019_Mar_27,102,001,0,recog,4,LOCAL,HF,target,left,yellow,pleasantness,conservative,no,z,1,1.14654728064,1,-1
2019_Mar_27,102,001,0,recog,5,HILLSIDES,LF,lure,-,-,-,conservative,no,m,1,1.0000311614,3,2
2019_Mar_27,102,001,0,recog,6,RUINOUS,LF,target,right,aqua,imageability,conservative,no,z,1,2.23949695975,1,3
2019_Mar_27,102,001,0,recog,7,ACORNS,LF,lure,-,-,-,conservative,no,m,1,0.946829859511,3,6
2019_Mar_27,102,001,0,recog,8,BRING,HF,target,left,yellow,pleasantness,liberal,no,z,1,1.91957463594,3,9
2019_Mar_27,102,001,0,recog,9,SCOFFED,LF,target,right,aqua,imageability,liberal,no,z,1,4.11874471631,3,12
2019_Mar_27,102,001,0,recog,10,MEANS,HF,target,left,yellow,pleasantness,conservative,no,z,1,1.83964198855,1,13
2019_Mar_27,102,001,0,recog,11,BIRCHES,LF,lure,-,-,-,conservative,no,m,1,1.1466154691,3,16
2019_Mar_27,102,001,0,recog,12,AMONG,HF,lure,-,-,-,conservative,no,z,0,2.10615661205,-3,13
2019_Mar_27,102,001,0,recog,13,ARPEGGIO,LF,target,right,aqua,imageability,liberal,no,z,1,1.46639811653,3,16
2019_Mar_27,102,001,0,recog,14,BLACK,HF,target,right,aqua,imageability,conservative,no,z,1,1.42653829149,1,17
2019_Mar_27,102,001,0,recog,15,CHAIR,HF,target,right,aqua,imageability,conservative,no,z,1,1.58642594916,1,18
2019_Mar_27,102,001,0,recog,16,ADVERSELY,LF,target,left,yellow,pleasantness,conservative,no,m,0,1.94604752516,-1,17
2019_Mar_27,102,001,0,recog,17,HISTORY,HF,lure,-,-,-,conservative,no,m,1,2.06625572728,3,20
2019_Mar_27,102,001,0,recog,18,RECENT,HF,target,left,yellow,pleasantness,liberal,no,z,1,2.13299683913,3,23
2019_Mar_27,102,001,0,recog,19,RALLIED,LF,target,left,yellow,pleasantness,conservative,no,m,0,4.2653040949,-1,22
2019_Mar_27,102,001,0,recog,20,POINT,HF,lure,-,-,-,conservative,no,z,0,1.14678704009,-3,19
2019_Mar_27,102,001,0,recog,21,REACHED,HF,lure,-,-,-,conservative,no,m,1,2.34623097414,3,22
2019_Mar_27,102,001,0,recog,22,UPSTART,LF,lure,-,-,-,liberal,no,m,1,1.13329012286,1,23
2019_Mar_27,102,001,0,recog,23,CASES,HF,lure,-,-,-,conservative,no,m,1,2.38608933276,3,26
2019_Mar_27,102,001,0,recog,24,OUTSIDE,HF,target,right,aqua,imageability,liberal,no,z,1,1.09334267931,3,29
2019_Mar_27,102,001,0,recog,25,DETACH,LF,target,left,yellow,pleasantness,conservative,no,z,1,3.73193390558,1,30
2019_Mar_27,102,001,0,recog,26,CAUGHT,HF,lure,-,-,-,conservative,no,m,1,1.37313095779,3,33
2019_Mar_27,102,001,0,recog,27,WHOLE,HF,target,right,aqua,imageability,liberal,no,z,1,1.27982090629,3,36
2019_Mar_27,102,001,0,recog,28,JUDICIOUS,LF,target,right,aqua,imageability,conservative,yes,m,0,1.30638288044,-1,35
2019_Mar_27,102,001,0,recog,29,ERUDITE,LF,target,left,yellow,pleasantness,liberal,no,z,1,1.62614169857,3,38
2019_Mar_27,102,001,0,recog,30,HUMAN,HF,lure,-,-,-,conservative,no,m,1,1.4397510901,3,41
2019_Mar_27,102,001,0,recog,31,ISOLATING,LF,target,left,yellow,pleasantness,liberal,no,z,1,1.33332868967,3,44
2019_Mar_27,102,001,0,recog,32,FACILE,LF,target,left,yellow,pleasantness,liberal,yes,z,1,1.19991538764,3,47
2019_Mar_27,102,001,0,recog,33,TAPER,LF,lure,-,-,-,liberal,no,m,1,1.38641561091,1,48
2019_Mar_27,102,001,0,recog,34,LIGHT,HF,lure,-,-,-,liberal,no,m,1,1.0663990697,1,49
2019_Mar_27,102,001,0,recog,35,NEARLY,HF,target,right,aqua,imageability,conservative,no,z,1,2.7992153927,1,50
2019_Mar_27,102,001,0,recog,36,PIPELINES,LF,lure,-,-,-,conservative,no,m,1,1.05325849221,3,53
2019_Mar_27,102,001,0,recog,37,UNLESS,HF,target,right,aqua,imageability,liberal,no,z,1,2.51933143041,3,56
2019_Mar_27,102,001,0,recog,38,CAPITAL,HF,target,right,aqua,imageability,liberal,no,z,1,0.973317779519,3,59
2019_Mar_27,102,001,0,recog,39,WANTED,HF,lure,-,-,-,liberal,no,m,1,0.959942575046,1,60
2019_Mar_27,102,001,0,recog,40,HANDS,HF,lure,-,-,-,liberal,no,m,1,0.8800370564,1,61
2019_Mar_27,102,001,0,recog,41,SUDDENLY,HF,lure,-,-,-,liberal,no,z,0,1.10663979699,-1,60
2019_Mar_27,102,001,0,recog,42,BEHIND,HF,lure,-,-,-,conservative,no,z,0,3.02561210147,-3,57
2019_Mar_27,102,001,0,recog,43,UNDER,HF,lure,-,-,-,liberal,no,z,0,1.73288194523,-1,56
2019_Mar_27,102,001,0,recog,44,PESTERED,LF,target,right,aqua,imageability,conservative,no,z,1,2.9192171964,1,57
2019_Mar_27,102,001,0,recog,45,CUBED,LF,target,right,aqua,imageability,liberal,yes,z,1,0.840005660375,3,60
2019_Mar_27,102,001,0,recog,46,TRYING,HF,target,left,yellow,pleasantness,liberal,no,z,1,1.09325396098,3,63
2019_Mar_27,102,001,0,recog,47,UMPIRE,LF,lure,-,-,-,conservative,no,m,1,0.879778233508,3,66
2019_Mar_27,102,001,0,recog,48,DRAFTING,LF,target,right,aqua,imageability,liberal,no,z,1,1.67965938028,3,69
2019_Mar_27,102,001,0,recog,49,TROUBLE,HF,lure,-,-,-,conservative,no,z,0,2.38593975805,-3,66
2019_Mar_27,102,001,0,recog,50,OUGHT,HF,lure,-,-,-,liberal,no,m,1,1.51990150066,1,67
2019_Mar_27,102,001,0,recog,51,ECHELONS,LF,lure,-,-,-,liberal,no,z,0,1.99953294566,-1,66
2019_Mar_27,102,001,0,recog,52,TOOTHACHE,LF,target,left,yellow,pleasantness,liberal,no,z,1,2.59940448739,3,69
2019_Mar_27,102,001,0,recog,53,WALKED,HF,lure,-,-,-,liberal,no,m,1,3.41230009964,1,70
2019_Mar_27,102,001,0,recog,54,HAPPEN,HF,target,left,yellow,pleasantness,liberal,no,z,1,2.27950965893,3,73
2019_Mar_27,102,001,0,recog,55,BECAME,HF,lure,-,-,-,liberal,no,m,1,1.06656917427,1,74
2019_Mar_27,102,001,0,recog,56,FIELD,HF,target,left,yellow,pleasantness,conservative,no,z,1,1.05328305473,1,75
2019_Mar_27,102,001,0,recog,57,DEGREE,HF,target,left,yellow,pleasantness,liberal,no,z,1,2.30613725532,3,78
2019_Mar_27,102,001,0,recog,58,BUMBLING,LF,target,left,yellow,pleasantness,liberal,no,z,1,1.03973957871,3,81
2019_Mar_27,102,001,0,recog,59,HOSPITAL,HF,lure,-,-,-,liberal,no,m,1,1.02661916448,1,82
2019_Mar_27,102,001,0,recog,60,REBATE,LF,lure,-,-,-,conservative,no,m,1,1.05323906217,3,85
2019_Mar_27,102,001,0,recog,61,TAKEN,HF,target,left,yellow,pleasantness,liberal,no,z,1,3.22549999377,3,88
2019_Mar_27,102,001,0,recog,62,HEMMED,LF,target,right,aqua,imageability,liberal,no,z,1,1.13329415551,3,91
2019_Mar_27,102,001,0,recog,63,NUCLEAR,HF,lure,-,-,-,conservative,no,m,1,0.986600966222,3,94
2019_Mar_27,102,001,0,recog,64,FUDGE,LF,lure,-,-,-,conservative,no,m,1,0.906630191947,3,97
2019_Mar_27,102,001,0,recog,65,DYEING,LF,lure,-,-,-,conservative,no,m,1,0.986610131338,3,100
2019_Mar_27,102,001,0,recog,66,JEOPARDY,LF,lure,-,-,-,conservative,no,z,0,1.01332497964,-3,97
2019_Mar_27,102,001,0,recog,67,NEMESIS,LF,lure,-,-,-,conservative,no,m,1,1.71970287425,3,100
2019_Mar_27,102,001,0,recog,68,RUNNING,HF,target,right,aqua,imageability,conservative,no,z,1,1.43976795391,1,101
2019_Mar_27,102,001,0,recog,69,VESTIBULE,LF,lure,-,-,-,conservative,no,m,1,1.18653944996,3,104
2019_Mar_27,102,001,0,recog,70,RUFFLES,LF,lure,-,-,-,liberal,no,m,1,1.06660913417,1,105
2019_Mar_27,102,001,0,recog,71,POUNDS,HF,lure,-,-,-,conservative,no,m,1,1.18660983806,3,108
2019_Mar_27,102,001,0,recog,72,LIARS,LF,lure,-,-,-,conservative,no,m,1,1.34650519442,3,111
2019_Mar_27,102,001,0,recog,73,ADULATION,LF,lure,-,-,-,liberal,no,z,0,2.6925825612,-1,110
2019_Mar_27,102,001,0,recog,74,HIMSELF,HF,target,right,aqua,imageability,conservative,no,m,0,0.773477179226,-1,109
2019_Mar_27,102,001,0,recog,75,MERELY,HF,lure,-,-,-,liberal,no,m,1,1.852905012,1,110
2019_Mar_27,102,001,0,recog,76,GIMMICKS,LF,lure,-,-,-,liberal,no,m,1,1.58642741558,1,111
2019_Mar_27,102,001,0,recog,77,NIPPED,LF,target,left,yellow,pleasantness,liberal,no,z,1,1.30649689449,3,114
2019_Mar_27,102,001,0,recog,78,LOTTERY,LF,target,right,aqua,imageability,conservative,no,z,1,1.15993934893,1,115
2019_Mar_27,102,001,0,recog,79,RAYON,LF,target,right,aqua,imageability,liberal,no,z,1,1.71955366616,3,118
2019_Mar_27,102,001,0,recog,80,PHOBIC,LF,target,left,yellow,pleasantness,conservative,no,z,1,1.31978338064,1,119
2019_Mar_27,102,001,0,recog,81,HYPNOSIS,LF,lure,-,-,-,liberal,no,m,1,1.46655099068,1,120
2019_Mar_27,102,001,0,recog,82,POSITION,HF,target,right,aqua,imageability,liberal,no,z,1,1.31984863627,3,123
2019_Mar_27,102,001,0,recog,83,CANNOT,HF,lure,-,-,-,liberal,yes,z,0,0.760107107219,-1,122
2019_Mar_27,102,001,0,recog,84,NECESSARY,HF,target,right,aqua,imageability,liberal,no,z,1,2.54588203982,3,125
2019_Mar_27,102,001,0,recog,85,VISCOUS,LF,target,right,aqua,imageability,conservative,no,z,1,1.2798216395,1,126
2019_Mar_27,102,001,0,recog,86,FENCED,LF,lure,-,-,-,liberal,no,m,1,1.19990658913,1,127
2019_Mar_27,102,001,0,recog,87,NOTHING,HF,lure,-,-,-,conservative,no,m,1,1.83940552854,3,130
2019_Mar_27,102,001,0,recog,88,TABLE,HF,target,left,yellow,pleasantness,conservative,no,z,1,1.79940895997,1,131
2019_Mar_27,102,001,0,recog,89,FAKING,LF,target,right,aqua,imageability,conservative,no,m,0,1.57307274096,-1,130
2019_Mar_27,102,001,0,recog,90,UPKEEP,LF,target,left,yellow,pleasantness,conservative,no,z,1,1.86617720056,1,131
2019_Mar_27,102,001,0,recog,91,SPUDS,LF,target,left,yellow,pleasantness,conservative,no,z,1,1.0665721071,1,132
2019_Mar_27,102,001,0,recog,92,ACIDITY,LF,lure,-,-,-,liberal,no,m,1,0.98643636073,1,133
2019_Mar_27,102,001,0,recog,93,FAMILY,HF,lure,-,-,-,liberal,no,m,1,2.7590124257,1,134
2019_Mar_27,102,001,0,recog,94,DARKEN,LF,lure,-,-,-,liberal,no,m,1,2.03951411685,1,135
2019_Mar_27,102,001,0,recog,95,NOURISH,LF,lure,-,-,-,liberal,no,m,1,0.826450453014,1,136
2019_Mar_27,102,001,1,source,0,TURNED,HF,target,left,yellow,pleasantness,conservative,no,7,0,1.57269770439,-,-
2019_Mar_27,102,001,1,source,1,LEECH,LF,target,right,aqua,imageability,conservative,no,7,1,1.29290539327,-,-
2019_Mar_27,102,001,1,source,2,DOGMAS,LF,target,right,aqua,imageability,conservative,no,7,1,0.959956506023,-,-
2019_Mar_27,102,001,1,source,3,SORRY,HF,target,left,yellow,pleasantness,liberal,no,2,1,1.09324149642,-,-
2019_Mar_27,102,001,1,source,4,UPROOTED,LF,target,left,yellow,pleasantness,liberal,no,3,1,2.17285629757,-,-
2019_Mar_27,102,001,1,source,5,ROWAN,LF,target,left,yellow,pleasantness,liberal,no,1,1,1.14654324799,-,-
2019_Mar_27,102,001,1,source,6,POPES,LF,target,left,yellow,pleasantness,liberal,no,7,0,1.71968711025,-,-
2019_Mar_27,102,001,1,source,7,MEMBERS,HF,target,left,yellow,pleasantness,conservative,no,3,1,1.85276826846,-,-
2019_Mar_27,102,001,1,source,8,TALKING,HF,target,right,aqua,imageability,liberal,yes,3,0,1.15987262688,-,-
2019_Mar_27,102,001,1,source,9,WHATEVER,HF,target,right,aqua,imageability,conservative,no,9,1,1.09341929968,-,-
2019_Mar_27,102,001,1,source,10,IMPORTANT,HF,target,right,aqua,imageability,conservative,yes,3,0,1.17332481833,-,-
2019_Mar_27,102,001,1,source,11,EXPECT,HF,target,right,aqua,imageability,liberal,no,3,0,1.67944931581,-,-
2019_Mar_27,102,001,1,source,12,POTASH,LF,target,left,yellow,pleasantness,conservative,no,1,1,1.1998486656,-,-
2019_Mar_27,102,001,1,source,13,ROUND,HF,target,right,aqua,imageability,conservative,no,3,0,0.986625528734,-,-
2019_Mar_27,102,001,1,source,14,MATERIAL,HF,target,left,yellow,pleasantness,liberal,no,3,1,1.62643644871,-,-
2019_Mar_27,102,001,1,source,15,FRONT,HF,target,right,aqua,imageability,conservative,no,7,1,1.33318241442,-,-
2019_Mar_27,102,001,1,source,16,REGAINING,LF,target,right,aqua,imageability,liberal,no,7,1,1.10633588172,-,-
2019_Mar_27,102,001,1,source,17,BEYOND,HF,target,left,yellow,pleasantness,liberal,no,8,0,0.759792193814,-,-
2019_Mar_27,102,001,1,source,18,NORTH,HF,target,left,yellow,pleasantness,conservative,no,2,1,1.732958199,-,-
2019_Mar_27,102,001,1,source,19,SPEAK,HF,target,right,aqua,imageability,conservative,no,7,1,0.693554063555,-,-
2019_Mar_27,102,001,1,source,20,HACKNEY,LF,target,left,yellow,pleasantness,conservative,no,1,1,0.933464919966,-,-
2019_Mar_27,102,001,1,source,21,TIDILY,LF,target,left,yellow,pleasantness,liberal,no,3,1,1.10643743122,-,-
2019_Mar_27,102,001,1,source,22,NUTSHELL,LF,target,left,yellow,pleasantness,liberal,no,1,1,1.02670348355,-,-
2019_Mar_27,102,001,1,source,23,BRUISING,LF,target,right,aqua,imageability,conservative,no,7,1,0.999977637115,-,-
2019_Mar_27,102,001,1,source,24,PONCE,LF,target,left,yellow,pleasantness,conservative,no,3,1,1.03978357127,-,-
2019_Mar_27,102,001,1,source,25,ELECTING,LF,target,right,aqua,imageability,conservative,no,7,1,0.919801930833,-,-
2019_Mar_27,102,001,1,source,26,PEDALLING,LF,target,left,yellow,pleasantness,conservative,no,2,1,0.973392933474,-,-
2019_Mar_27,102,001,1,source,27,MEETING,HF,target,left,yellow,pleasantness,liberal,no,8,0,2.66594396668,-,-
2019_Mar_27,102,001,1,source,28,WEEKS,HF,target,right,aqua,imageability,liberal,no,2,0,1.61304071438,-,-
2019_Mar_27,102,001,1,source,29,TYPHOID,LF,target,right,aqua,imageability,liberal,no,9,1,0.946675152341,-,-
2019_Mar_27,102,001,1,source,30,BAUXITE,LF,target,right,aqua,imageability,liberal,yes,3,0,1.22654005119,-,-
2019_Mar_27,102,001,1,source,31,GOADED,LF,target,left,yellow,pleasantness,liberal,no,7,0,1.67942438669,-,-
2019_Mar_27,102,001,1,source,32,RAIDER,LF,target,right,aqua,imageability,liberal,no,8,1,1.10627282572,-,-
2019_Mar_27,102,001,1,source,33,OTHERS,HF,target,left,yellow,pleasantness,liberal,yes,3,1,0.773383328433,-,-
2019_Mar_27,102,001,1,source,34,HEALTH,HF,target,left,yellow,pleasantness,liberal,no,1,1,0.78644655234,-,-
2019_Mar_27,102,001,1,source,35,WOMAN,HF,target,right,aqua,imageability,liberal,no,7,1,1.7994276568,-,-
2019_Mar_27,102,001,1,source,36,MOMENT,HF,target,left,yellow,pleasantness,conservative,no,8,0,1.03992654709,-,-
2019_Mar_27,102,001,1,source,37,DECIDED,HF,target,left,yellow,pleasantness,conservative,no,7,0,0.760049550285,-,-
2019_Mar_27,102,001,1,source,38,KITCHEN,HF,target,left,yellow,pleasantness,conservative,no,2,1,0.813400793479,-,-
2019_Mar_27,102,001,1,source,39,DIDACTIC,LF,target,left,yellow,pleasantness,conservative,no,7,0,0.693387258436,-,-
2019_Mar_27,102,001,1,source,40,CERTAIN,HF,target,right,aqua,imageability,liberal,no,3,0,0.65349407237,-,-
2019_Mar_27,102,001,1,source,41,JOTTED,LF,target,left,yellow,pleasantness,conservative,no,7,0,0.586684772048,-,-
2019_Mar_27,102,001,1,source,42,ULCER,LF,target,right,aqua,imageability,liberal,no,2,0,0.506576521024,-,-
2019_Mar_27,102,001,1,source,43,EVENING,HF,target,right,aqua,imageability,liberal,no,7,1,1.50642657972,-,-
2019_Mar_27,102,001,1,source,44,THUDDING,LF,target,right,aqua,imageability,conservative,no,8,1,0.826679214322,-,-
2019_Mar_27,102,001,1,source,45,SOMEONE,HF,target,right,aqua,imageability,conservative,no,8,1,1.06645919287,-,-
2019_Mar_27,102,001,1,source,46,RASCAL,LF,target,right,aqua,imageability,liberal,no,8,1,0.760048817077,-,-
2019_Mar_27,102,001,1,source,47,HYACINTHS,LF,target,right,aqua,imageability,conservative,no,7,1,0.84001775833,-,-
2019_Mar_27,102,001,1,recog,0,LATER,HF,lure,-,-,-,conservative,no,z,0,1.74632827101,-3,133
2019_Mar_27,102,001,1,recog,1,NORTH,HF,target,left,yellow,pleasantness,conservative,no,m,0,0.906706079111,-1,132
2019_Mar_27,102,001,1,recog,2,MATERIAL,HF,target,left,yellow,pleasantness,liberal,no,z,1,1.59950053781,3,135
2019_Mar_27,102,001,1,recog,3,OTHERS,HF,target,left,yellow,pleasantness,liberal,no,m,0,1.82630564417,-3,132
2019_Mar_27,102,001,1,recog,4,ARCADES,LF,lure,-,-,-,conservative,no,m,1,1.87960336308,3,135
2019_Mar_27,102,001,1,recog,5,SORRY,HF,target,left,yellow,pleasantness,liberal,no,z,1,1.1465524131,3,138
2019_Mar_27,102,001,1,recog,6,WOMAN,HF,target,right,aqua,imageability,liberal,no,z,1,1.23991268943,3,141
2019_Mar_27,102,001,1,recog,7,TURNED,HF,target,left,yellow,pleasantness,conservative,no,z,1,1.14653078343,1,142
2019_Mar_27,102,001,1,recog,8,TREES,HF,lure,-,-,-,liberal,no,m,1,0.760073746193,1,143
2019_Mar_27,102,001,1,recog,9,BLIGHTED,LF,lure,-,-,-,liberal,no,m,1,2.10622846656,1,144
2019_Mar_27,102,001,1,recog,10,BUILDING,HF,lure,-,-,-,liberal,no,m,1,0.986713147249,1,145
2019_Mar_27,102,001,1,recog,11,ASCEND,LF,lure,-,-,-,conservative,yes,m,1,1.04011241565,3,148
2019_Mar_27,102,001,1,recog,12,SHEARING,LF,lure,-,-,-,liberal,no,z,0,1.87959236494,-1,147
2019_Mar_27,102,001,1,recog,13,HEALTH,HF,target,left,yellow,pleasantness,liberal,no,z,1,1.10655291168,3,150
2019_Mar_27,102,001,1,recog,14,ELECTING,LF,target,right,aqua,imageability,conservative,no,z,1,1.09333828005,1,151
2019_Mar_27,102,001,1,recog,15,MEMBERS,HF,target,left,yellow,pleasantness,conservative,no,z,1,1.37294728885,1,152
2019_Mar_27,102,001,1,recog,16,BUZZARD,LF,lure,-,-,-,conservative,no,m,1,0.960005997653,3,155
2019_Mar_27,102,001,1,recog,17,DOSSIERS,LF,lure,-,-,-,conservative,no,m,1,1.07991834981,3,158
2019_Mar_27,102,001,1,recog,18,SPEAK,HF,target,right,aqua,imageability,conservative,no,z,1,2.75929067864,1,159
2019_Mar_27,102,001,1,recog,19,CALLED,HF,lure,-,-,-,conservative,no,m,1,2.71947521276,3,162
2019_Mar_27,102,001,1,recog,20,ADOPTIVE,LF,lure,-,-,-,conservative,no,m,1,0.746709539859,3,165
2019_Mar_27,102,001,1,recog,21,BRUISING,LF,target,right,aqua,imageability,conservative,no,z,1,0.760090976613,1,166
2019_Mar_27,102,001,1,recog,22,POTASH,LF,target,left,yellow,pleasantness,conservative,no,z,1,0.706790324864,1,167
2019_Mar_27,102,001,1,recog,23,DOGMAS,LF,target,right,aqua,imageability,conservative,no,z,1,0.613428215507,1,168
2019_Mar_27,102,001,1,recog,24,TYPHOID,LF,target,right,aqua,imageability,liberal,no,z,1,0.839930506419,3,171
2019_Mar_27,102,001,1,recog,25,REREAD,LF,lure,-,-,-,liberal,no,m,1,0.865111114206,1,172
2019_Mar_27,102,001,1,recog,26,TYRANTS,LF,lure,-,-,-,liberal,no,z,0,2.2262178057,-1,171
2019_Mar_27,102,001,1,recog,27,ENOUGH,HF,lure,-,-,-,liberal,no,z,0,2.93249598385,-1,170
2019_Mar_27,102,001,1,recog,28,OOZED,LF,lure,-,-,-,conservative,no,m,1,0.999967372185,3,173
2019_Mar_27,102,001,1,recog,29,TAUNTED,LF,lure,-,-,-,liberal,no,m,1,3.19920564102,1,174
2019_Mar_27,102,001,1,recog,30,DECIDED,HF,target,left,yellow,pleasantness,conservative,no,z,1,3.8654722198,1,175
2019_Mar_27,102,001,1,recog,31,MEETING,HF,target,left,yellow,pleasantness,liberal,no,z,1,0.853355202522,3,178
2019_Mar_27,102,001,1,recog,32,MOMENT,HF,target,left,yellow,pleasantness,conservative,no,z,1,1.19975701443,1,179
2019_Mar_27,102,001,1,recog,33,FUTURE,HF,lure,-,-,-,conservative,no,m,1,1.1333561117,3,182
2019_Mar_27,102,001,1,recog,34,LICENSING,LF,lure,-,-,-,conservative,no,m,1,0.866643155088,3,185
2019_Mar_27,102,001,1,recog,35,ZOOLOGY,LF,lure,-,-,-,liberal,no,m,1,0.960052189839,1,186
2019_Mar_27,102,001,1,recog,36,DIFFERENT,HF,lure,-,-,-,conservative,no,m,1,1.82617513291,3,189
2019_Mar_27,102,001,1,recog,37,ENCLOSE,LF,lure,-,-,-,liberal,no,z,0,0.999789568925,-1,188
2019_Mar_27,102,001,1,recog,38,NUTSHELL,LF,target,left,yellow,pleasantness,liberal,no,z,1,0.73345494832,3,191
2019_Mar_27,102,001,1,recog,39,ULCER,LF,target,right,aqua,imageability,liberal,no,z,1,2.13262363559,3,194
2019_Mar_27,102,001,1,recog,40,ROWAN,LF,target,left,yellow,pleasantness,liberal,no,z,1,0.640064977011,3,197
2019_Mar_27,102,001,1,recog,41,THUDDING,LF,target,right,aqua,imageability,conservative,no,z,1,1.46641021449,1,198
2019_Mar_27,102,001,1,recog,42,BLOOD,HF,lure,-,-,-,conservative,no,m,1,0.760103441171,3,201
2019_Mar_27,102,001,1,recog,43,PEDALLING,LF,target,left,yellow,pleasantness,conservative,no,z,1,1.05325629259,1,202
2019_Mar_27,102,001,1,recog,44,OFFER,HF,lure,-,-,-,conservative,no,m,1,3.41231036457,3,205
2019_Mar_27,102,001,1,recog,45,RAIDER,LF,target,right,aqua,imageability,liberal,no,z,1,1.35961790996,3,208
2019_Mar_27,102,001,1,recog,46,DOCTOR,HF,lure,-,-,-,conservative,no,m,1,1.39954958951,3,211
2019_Mar_27,102,001,1,recog,47,PARENTS,HF,lure,-,-,-,liberal,no,m,1,1.53319275267,1,212
2019_Mar_27,102,001,1,recog,48,REGAINING,LF,target,right,aqua,imageability,liberal,no,z,1,1.38645337119,3,215
2019_Mar_27,102,001,1,recog,49,ENERGY,HF,lure,-,-,-,conservative,no,m,1,1.14661656892,3,218
2019_Mar_27,102,001,1,recog,50,OBNOXIOUS,LF,lure,-,-,-,liberal,no,m,1,0.973333176915,1,219
2019_Mar_27,102,001,1,recog,51,DWELT,LF,lure,-,-,-,conservative,no,m,1,0.839975598794,3,222
2019_Mar_27,102,001,1,recog,52,EXPECT,HF,target,right,aqua,imageability,liberal,no,z,1,0.919991832048,3,225
2019_Mar_27,102,001,1,recog,53,COMES,HF,lure,-,-,-,liberal,no,m,1,0.720177260686,1,226
2019_Mar_27,102,001,1,recog,54,VENDETTA,LF,lure,-,-,-,conservative,no,m,1,0.786655150392,3,229
2019_Mar_27,102,001,1,recog,55,KITCHEN,HF,target,left,yellow,pleasantness,conservative,no,z,1,0.826458151711,1,230
2019_Mar_27,102,001,1,recog,56,PUTTS,LF,lure,-,-,-,liberal,no,m,1,1.07971781706,1,231
2019_Mar_27,102,001,1,recog,57,WHATEVER,HF,target,right,aqua,imageability,conservative,no,m,0,0.7201391338,-1,230
2019_Mar_27,102,001,1,recog,58,HYENA,LF,lure,-,-,-,liberal,no,m,1,1.17339483982,1,231
2019_Mar_27,102,001,1,recog,59,FRONT,HF,target,right,aqua,imageability,conservative,no,m,0,1.54646860728,-1,230
2019_Mar_27,102,001,1,recog,60,WEEKS,HF,target,right,aqua,imageability,liberal,no,z,1,1.03993791183,3,233
2019_Mar_27,102,001,1,recog,61,EVENING,HF,target,right,aqua,imageability,liberal,no,z,1,1.3464795321,3,236
2019_Mar_27,102,001,1,recog,62,DIDACTIC,LF,target,left,yellow,pleasantness,conservative,no,m,0,2.07958473957,-1,235
2019_Mar_27,102,001,1,recog,63,JUTTED,LF,lure,-,-,-,conservative,no,z,0,1.67973160139,-3,232
2019_Mar_27,102,001,1,recog,64,INCLUDING,HF,lure,-,-,-,liberal,no,z,0,2.03949908606,-1,231
2019_Mar_27,102,001,1,recog,65,NEOLITHIC,LF,lure,-,-,-,conservative,no,m,1,1.27982420573,3,234
2019_Mar_27,102,001,1,recog,66,THEORY,HF,lure,-,-,-,conservative,yes,m,1,0.986683085666,3,237
2019_Mar_27,102,001,1,recog,67,USUAL,HF,lure,-,-,-,conservative,no,z,0,3.33236121997,-3,234
2019_Mar_27,102,001,1,recog,68,TALKING,HF,target,right,aqua,imageability,liberal,no,z,1,1.03969631936,3,237
2019_Mar_27,102,001,1,recog,69,CERTAIN,HF,target,right,aqua,imageability,liberal,no,z,1,2.35923077544,3,240
2019_Mar_27,102,001,1,recog,70,SERIOUS,HF,lure,-,-,-,liberal,no,z,0,0.866666251181,-1,239
2019_Mar_27,102,001,1,recog,71,HACKNEY,LF,target,left,yellow,pleasantness,conservative,no,z,1,1.02662429694,1,240
2019_Mar_27,102,001,1,recog,72,TIDILY,LF,target,left,yellow,pleasantness,liberal,yes,z,1,0.746738868233,3,243
2019_Mar_27,102,001,1,recog,73,JOTTED,LF,target,left,yellow,pleasantness,conservative,no,m,0,5.61150647387,-1,242
2019_Mar_27,102,001,1,recog,74,FISHY,LF,lure,-,-,-,liberal,yes,z,0,0.733364763571,-1,241
2019_Mar_27,102,001,1,recog,75,RESEARCH,HF,lure,-,-,-,liberal,no,m,1,2.4794191809,1,242
2019_Mar_27,102,001,1,recog,76,COVER,HF,lure,-,-,-,liberal,no,z,0,1.0665482778,-1,241
2019_Mar_27,102,001,1,recog,77,GYMKHANA,LF,lure,-,-,-,conservative,no,m,1,1.38647573407,3,244
2019_Mar_27,102,001,1,recog,78,BAUXITE,LF,target,right,aqua,imageability,liberal,no,m,0,2.26613885371,-3,241
2019_Mar_27,102,001,1,recog,79,IMPORTANT,HF,target,right,aqua,imageability,conservative,no,z,1,1.47975645719,1,242
2019_Mar_27,102,001,1,recog,80,LONGER,HF,lure,-,-,-,liberal,no,m,1,1.35961131107,1,243
2019_Mar_27,102,001,1,recog,81,GOADED,LF,target,left,yellow,pleasantness,liberal,no,z,1,0.973291383983,3,246
2019_Mar_27,102,001,1,recog,82,HYACINTHS,LF,target,right,aqua,imageability,conservative,no,m,0,3.34545193923,-1,245
2019_Mar_27,102,001,1,recog,83,LEECH,LF,target,right,aqua,imageability,conservative,no,z,1,1.06636864152,1,246
2019_Mar_27,102,001,1,recog,84,PONCE,LF,target,left,yellow,pleasantness,conservative,no,z,1,0.800020823146,1,247
2019_Mar_27,102,001,1,recog,85,PHYSICAL,HF,lure,-,-,-,conservative,no,m,1,0.959739476062,3,250
2019_Mar_27,102,001,1,recog,86,HUNDRED,HF,lure,-,-,-,liberal,no,m,1,1.50643831107,1,251
2019_Mar_27,102,001,1,recog,87,SOMEONE,HF,target,right,aqua,imageability,conservative,no,z,1,1.05334684394,1,252
2019_Mar_27,102,001,1,recog,88,INVOLVED,HF,lure,-,-,-,liberal,no,z,0,1.49307410473,-1,251
2019_Mar_27,102,001,1,recog,89,FINAL,HF,lure,-,-,-,conservative,no,m,1,1.97290095002,3,254
2019_Mar_27,102,001,1,recog,90,UNVEILED,LF,lure,-,-,-,liberal,no,m,1,2.46572942963,1,255
2019_Mar_27,102,001,1,recog,91,BEYOND,HF,target,left,yellow,pleasantness,liberal,no,z,1,1.91961679548,3,258
2019_Mar_27,102,001,1,recog,92,POPES,LF,target,left,yellow,pleasantness,liberal,no,z,1,0.719866746536,3,261
2019_Mar_27,102,001,1,recog,93,UPROOTED,LF,target,left,yellow,pleasantness,liberal,no,z,1,0.626892138309,3,264
2019_Mar_27,102,001,1,recog,94,ROUND,HF,target,right,aqua,imageability,conservative,no,z,1,1.7996080263,1,265
2019_Mar_27,102,001,1,recog,95,RASCAL,LF,target,right,aqua,imageability,liberal,no,z,1,0.879795463927,3,268
2019_Mar_27,102,001,2,source,0,FIANCE,LF,target,left,yellow,pleasantness,conservative,no,2,1,2.03954124559,-,-
2019_Mar_27,102,001,2,source,1,RATHER,HF,target,right,aqua,imageability,conservative,no,7,1,2.02596330874,-,-
2019_Mar_27,102,001,2,source,2,FLICKS,LF,target,left,yellow,pleasantness,conservative,no,3,1,1.03999620197,-,-
2019_Mar_27,102,001,2,source,3,COOING,LF,target,left,yellow,pleasantness,conservative,no,7,0,0.920075784516,-,-
2019_Mar_27,102,001,2,source,4,DAGGERS,LF,target,left,yellow,pleasantness,liberal,no,2,1,0.986661822597,-,-
2019_Mar_27,102,001,2,source,5,WOBBLE,LF,target,left,yellow,pleasantness,conservative,no,7,0,2.11964986322,-,-
2019_Mar_27,102,001,2,source,6,AHEAD,HF,target,right,aqua,imageability,conservative,no,3,0,2.58599115603,-,-
2019_Mar_27,102,001,2,source,7,MAJOR,HF,target,right,aqua,imageability,liberal,no,7,1,2.46588523661,-,-
2019_Mar_27,102,001,2,source,8,REUNITED,LF,target,right,aqua,imageability,liberal,no,2,0,0.893375233802,-,-
2019_Mar_27,102,001,2,source,9,SYSTEM,HF,target,left,yellow,pleasantness,conservative,no,3,1,1.83964455478,-,-
2019_Mar_27,102,001,2,source,10,STRAIGHT,HF,target,left,yellow,pleasantness,conservative,no,2,1,1.26650289214,-,-
2019_Mar_27,102,001,2,source,11,FORCE,HF,target,left,yellow,pleasantness,conservative,yes,3,1,0.747068812429,-,-
2019_Mar_27,102,001,2,source,12,OPULENCE,LF,target,left,yellow,pleasantness,liberal,no,2,1,0.840076415076,-,-
2019_Mar_27,102,001,2,source,13,ANYONE,HF,target,left,yellow,pleasantness,liberal,no,7,0,2.7325879283,-,-
2019_Mar_27,102,001,2,source,14,LARGE,HF,target,right,aqua,imageability,conservative,no,8,1,1.30630479365,-,-
2019_Mar_27,102,001,2,source,15,SINCE,HF,target,left,yellow,pleasantness,liberal,no,7,0,1.94606475558,-,-
2019_Mar_27,102,001,2,source,16,RAKING,LF,target,right,aqua,imageability,liberal,no,8,1,0.95996347151,-,-
2019_Mar_27,102,001,2,source,17,SAMENESS,LF,target,left,yellow,pleasantness,liberal,no,2,1,1.07991908302,-,-
2019_Mar_27,102,001,2,source,18,WHETHER,HF,target,right,aqua,imageability,liberal,yes,3,0,0.639891573006,-,-
2019_Mar_27,102,001,2,source,19,PASSED,HF,target,right,aqua,imageability,liberal,no,8,1,1.79941372582,-,-
2019_Mar_27,102,001,2,source,20,OMELETTE,LF,target,right,aqua,imageability,liberal,no,3,0,2.47935062583,-,-
2019_Mar_27,102,001,2,source,21,VOICE,HF,target,left,yellow,pleasantness,liberal,no,3,1,0.880006994816,-,-
2019_Mar_27,102,001,2,source,22,CUCKOO,LF,target,right,aqua,imageability,liberal,no,8,1,0.760051016705,-,-
2019_Mar_27,102,001,2,source,23,DELEGATED,LF,target,right,aqua,imageability,conservative,no,7,1,0.813123640355,-,-
2019_Mar_27,102,001,2,source,24,ROSEBUD,LF,target,right,aqua,imageability,liberal,no,8,1,0.933101981351,-,-
2019_Mar_27,102,001,2,source,25,LENGTHEN,LF,target,left,yellow,pleasantness,conservative,no,3,1,0.999927412277,-,-
2019_Mar_27,102,001,2,source,26,SMALL,HF,target,right,aqua,imageability,liberal,no,7,1,0.85334787043,-,-
2019_Mar_27,102,001,2,source,27,CICADAS,LF,target,right,aqua,imageability,liberal,no,9,1,0.906733207858,-,-
2019_Mar_27,102,001,2,source,28,JADED,LF,target,right,aqua,imageability,conservative,no,7,1,1.69277722828,-,-
2019_Mar_27,102,001,2,source,29,HARDLY,HF,target,right,aqua,imageability,conservative,yes,3,0,0.653407920274,-,-
2019_Mar_27,102,001,2,source,30,TWENTY,HF,target,left,yellow,pleasantness,liberal,no,2,1,0.880022758816,-,-
2019_Mar_27,102,001,2,source,31,BOOKS,HF,target,right,aqua,imageability,conservative,no,3,0,0.680159429035,-,-
2019_Mar_27,102,001,2,source,32,INTEREST,HF,target,left,yellow,pleasantness,liberal,no,3,1,1.81295536881,-,-
2019_Mar_27,102,001,2,source,33,DRUDGERY,LF,target,right,aqua,imageability,conservative,yes,7,1,0.520067939175,-,-
2019_Mar_27,102,001,2,source,34,NEURAL,LF,target,left,yellow,pleasantness,liberal,no,3,1,1.31993588818,-,-
2019_Mar_27,102,001,2,source,35,SEVEN,HF,target,left,yellow,pleasantness,conservative,no,2,1,0.693481842438,-,-
2019_Mar_27,102,001,2,source,36,RAREFIED,LF,target,right,aqua,imageability,conservative,no,7,1,1.26633205437,-,-
2019_Mar_27,102,001,2,source,37,FEVERS,LF,target,left,yellow,pleasantness,liberal,no,3,1,3.91877397136,-,-
2019_Mar_27,102,001,2,source,38,OMITTING,LF,target,right,aqua,imageability,conservative,no,7,1,1.58614366357,-,-
2019_Mar_27,102,001,2,source,39,AMBIENCE,LF,target,left,yellow,pleasantness,conservative,no,2,1,1.17320640502,-,-
2019_Mar_27,102,001,2,source,40,SMOCK,LF,target,right,aqua,imageability,conservative,no,3,0,1.33314135469,-,-
2019_Mar_27,102,001,2,source,41,DEVELOPED,HF,target,left,yellow,pleasantness,liberal,no,2,1,0.879854853882,-,-
2019_Mar_27,102,001,2,source,42,SUMMER,HF,target,right,aqua,imageability,conservative,no,7,1,2.45273072814,-,-
2019_Mar_27,102,001,2,source,43,DRINK,HF,target,left,yellow,pleasantness,conservative,no,2,1,0.853392962805,-,-
2019_Mar_27,102,001,2,source,44,WAITING,HF,target,right,aqua,imageability,liberal,no,7,1,1.45312702778,-,-
2019_Mar_27,102,001,2,source,45,HUSBAND,HF,target,left,yellow,pleasantness,conservative,no,3,1,1.07990295241,-,-
2019_Mar_27,102,001,2,source,46,ACROSS,HF,target,right,aqua,imageability,liberal,no,7,1,2.09263989817,-,-
2019_Mar_27,102,001,2,source,47,LUCERNE,LF,target,left,yellow,pleasantness,liberal,no,8,0,0.72006507966,-,-
2019_Mar_27,102,001,2,recog,0,SAMENESS,LF,target,left,yellow,pleasantness,liberal,no,z,1,2.25255651761,3,271
2019_Mar_27,102,001,2,recog,1,VARIOUS,HF,lure,-,-,-,conservative,no,m,1,0.986433427894,3,274
2019_Mar_27,102,001,2,recog,2,SOVIET,HF,lure,-,-,-,conservative,no,m,1,1.03991591555,3,277
2019_Mar_27,102,001,2,recog,3,COOING,LF,target,left,yellow,pleasantness,conservative,no,z,1,0.959927910859,1,278
2019_Mar_27,102,001,2,recog,4,WHETHER,HF,target,right,aqua,imageability,liberal,no,z,1,1.18656731192,3,281
2019_Mar_27,102,001,2,recog,5,SNIGGERED,LF,lure,-,-,-,liberal,no,m,1,0.813163233659,1,282
2019_Mar_27,102,001,2,recog,6,REUNITED,LF,target,right,aqua,imageability,liberal,no,z,1,1.14772078216,3,285
2019_Mar_27,102,001,2,recog,7,DRINK,HF,target,left,yellow,pleasantness,conservative,no,z,1,0.919795698555,1,286
2019_Mar_27,102,001,2,recog,8,DAGGERS,LF,target,left,yellow,pleasantness,liberal,no,z,1,0.786749367791,3,289
2019_Mar_27,102,001,2,recog,9,HIGHER,HF,lure,-,-,-,conservative,no,m,1,0.826715874789,3,292
2019_Mar_27,102,001,2,recog,10,LOOKED,HF,lure,-,-,-,conservative,yes,m,1,0.786773930302,3,295
2019_Mar_27,102,001,2,recog,11,DOING,HF,lure,-,-,-,liberal,no,m,1,1.02638417089,1,296
2019_Mar_27,102,001,2,recog,12,PRUDENTLY,LF,lure,-,-,-,conservative,no,z,0,0.813350935246,-3,293
2019_Mar_27,102,001,2,recog,13,ALREADY,HF,lure,-,-,-,conservative,no,z,0,2.85234887273,-3,290
2019_Mar_27,102,001,2,recog,14,BEGAN,HF,lure,-,-,-,conservative,no,m,1,1.27990485876,3,293
2019_Mar_27,102,001,2,recog,15,TWENTY,HF,target,left,yellow,pleasantness,liberal,no,z,1,0.760068613728,3,296
2019_Mar_27,102,001,2,recog,16,LABOUR,HF,lure,-,-,-,liberal,no,m,1,0.919981567118,1,297
2019_Mar_27,102,001,2,recog,17,AREAS,HF,lure,-,-,-,liberal,no,m,1,1.90606855361,1,298
2019_Mar_27,102,001,2,recog,18,SLEEP,HF,lure,-,-,-,liberal,no,m,1,0.773452616715,1,299
2019_Mar_27,102,001,2,recog,19,FLICKS,LF,target,left,yellow,pleasantness,conservative,no,z,1,1.58640321967,1,300
2019_Mar_27,102,001,2,recog,20,SINCE,HF,target,left,yellow,pleasantness,liberal,no,z,1,1.11998347346,3,303
2019_Mar_27,102,001,2,recog,21,WICKEDLY,LF,lure,-,-,-,liberal,no,m,1,0.933383533733,1,304
2019_Mar_27,102,001,2,recog,22,DELEGATED,LF,target,right,aqua,imageability,conservative,no,z,1,1.90627311901,1,305
2019_Mar_27,102,001,2,recog,23,ROSEBUD,LF,target,right,aqua,imageability,liberal,no,z,1,0.8933437058,3,308
2019_Mar_27,102,001,2,recog,24,DEVELOPED,HF,target,left,yellow,pleasantness,liberal,no,z,1,0.786708674674,3,311
2019_Mar_27,102,001,2,recog,25,PROBABLY,HF,lure,-,-,-,conservative,yes,m,1,0.826666749763,3,314
2019_Mar_27,102,001,2,recog,26,HARDLY,HF,target,right,aqua,imageability,conservative,no,z,1,1.61303668173,1,315
2019_Mar_27,102,001,2,recog,27,RATHER,HF,target,right,aqua,imageability,conservative,no,z,1,1.16022640038,1,316
2019_Mar_27,102,001,2,recog,28,FURTHER,HF,lure,-,-,-,conservative,no,m,1,0.946572869643,3,319
2019_Mar_27,102,001,2,recog,29,OPENED,HF,lure,-,-,-,liberal,no,m,1,2.46614699234,1,320
2019_Mar_27,102,001,2,recog,30,INDEED,HF,lure,-,-,-,liberal,no,z,0,2.06622089984,-1,319
2019_Mar_27,102,001,2,recog,31,STRAIGHT,HF,target,left,yellow,pleasantness,conservative,no,z,1,1.4798360104,1,320
2019_Mar_27,102,001,2,recog,32,OMELETTE,LF,target,right,aqua,imageability,liberal,no,z,1,0.760027554006,3,323
2019_Mar_27,102,001,2,recog,33,NIGHT,HF,lure,-,-,-,liberal,no,m,1,1.91974107446,1,324
2019_Mar_27,102,001,2,recog,34,AVENGE,LF,lure,-,-,-,conservative,no,m,1,1.00000659888,3,327
2019_Mar_27,102,001,2,recog,35,RAREFIED,LF,target,right,aqua,imageability,conservative,no,z,1,1.19998614234,1,328
2019_Mar_27,102,001,2,recog,36,PEGGED,LF,lure,-,-,-,liberal,no,m,1,1.54652249816,1,329
2019_Mar_27,102,001,2,recog,37,SYSTEM,HF,target,left,yellow,pleasantness,conservative,no,z,1,1.35983677294,1,330
2019_Mar_27,102,001,2,recog,38,PANACHE,LF,lure,-,-,-,conservative,no,m,1,1.06639613687,3,333
2019_Mar_27,102,001,2,recog,39,OPULENCE,LF,target,left,yellow,pleasantness,liberal,no,z,1,1.30626190091,3,336
2019_Mar_27,102,001,2,recog,40,FEVERS,LF,target,left,yellow,pleasantness,liberal,no,z,1,0.866746904207,3,339
2019_Mar_27,102,001,2,recog,41,RODENTS,LF,lure,-,-,-,conservative,yes,m,1,0.706697573884,3,342
2019_Mar_27,102,001,2,recog,42,PALATABLE,LF,lure,-,-,-,conservative,no,z,0,1.466434777,-3,339
2019_Mar_27,102,001,2,recog,43,HUSBAND,HF,target,left,yellow,pleasantness,conservative,no,z,1,1.06664689446,1,340
2019_Mar_27,102,001,2,recog,44,EMOTIVE,LF,lure,-,-,-,liberal,no,m,1,1.55978992086,1,341
2019_Mar_27,102,001,2,recog,45,WINDOW,HF,lure,-,-,-,conservative,no,m,1,1.41457414836,3,344
2019_Mar_27,102,001,2,recog,46,SLIGHTLY,HF,lure,-,-,-,conservative,no,z,0,1.66640882139,-3,341
2019_Mar_27,102,001,2,recog,47,SNUBBED,LF,lure,-,-,-,conservative,no,m,1,0.853368766895,3,344
2019_Mar_27,102,001,2,recog,48,KEENER,LF,lure,-,-,-,liberal,no,m,1,0.973040259791,1,345
2019_Mar_27,102,001,2,recog,49,EVOCATION,LF,lure,-,-,-,conservative,no,m,1,1.73299595928,3,348
2019_Mar_27,102,001,2,recog,50,YACHTING,LF,lure,-,-,-,liberal,no,m,1,0.999935477579,1,349
2019_Mar_27,102,001,2,recog,51,EMIGRATED,LF,lure,-,-,-,conservative,no,m,1,1.3064737984,3,352
2019_Mar_27,102,001,2,recog,52,MIDDLE,HF,lure,-,-,-,liberal,no,m,1,0.84002948968,1,353
2019_Mar_27,102,001,2,recog,53,CICADAS,LF,target,right,aqua,imageability,liberal,no,z,1,0.760016555867,3,356
2019_Mar_27,102,001,2,recog,54,SITTING,HF,lure,-,-,-,liberal,no,z,0,2.55934632922,-1,355
2019_Mar_27,102,001,2,recog,55,LUCERNE,LF,target,left,yellow,pleasantness,liberal,no,z,1,0.960073819515,3,358
2019_Mar_27,102,001,2,recog,56,OMITTING,LF,target,right,aqua,imageability,conservative,no,z,1,0.999973971069,1,359
2019_Mar_27,102,001,2,recog,57,VOICE,HF,target,left,yellow,pleasantness,liberal,no,z,1,0.840050752749,3,362
2019_Mar_27,102,001,2,recog,58,WOBBLE,LF,target,left,yellow,pleasantness,conservative,no,z,1,1.21295038299,1,363
2019_Mar_27,102,001,2,recog,59,UNJUSTLY,LF,lure,-,-,-,liberal,no,m,1,0.866772933137,1,364
2019_Mar_27,102,001,2,recog,60,GIPSY,LF,lure,-,-,-,conservative,no,m,1,0.853311576568,3,367
2019_Mar_27,102,001,2,recog,61,WAITING,HF,target,right,aqua,imageability,liberal,no,z,1,1.51982158084,3,370
2019_Mar_27,102,001,2,recog,62,DRUDGERY,LF,target,right,aqua,imageability,conservative,no,m,0,1.02667892104,-1,369
2019_Mar_27,102,001,2,recog,63,BUNGALOWS,LF,lure,-,-,-,conservative,no,m,1,1.33319854502,3,372
2019_Mar_27,102,001,2,recog,64,TAMING,LF,lure,-,-,-,liberal,no,z,0,3.77216840058,-1,371
2019_Mar_27,102,001,2,recog,65,MYSELF,HF,lure,-,-,-,liberal,no,z,0,1.30650276017,-1,370
2019_Mar_27,102,001,2,recog,66,FIANCE,LF,target,left,yellow,pleasantness,conservative,no,z,1,0.866844421047,1,371
2019_Mar_27,102,001,2,recog,67,LENGTHEN,LF,target,left,yellow,pleasantness,conservative,no,m,0,2.31949926202,-1,370
2019_Mar_27,102,001,2,recog,68,SUMMER,HF,target,right,aqua,imageability,conservative,no,z,1,1.81294803672,1,371
2019_Mar_27,102,001,2,recog,69,VIVACIOUS,LF,lure,-,-,-,liberal,no,m,1,3.61225141454,1,372
2019_Mar_27,102,001,2,recog,70,AEGIS,LF,lure,-,-,-,conservative,no,m,1,1.18661460392,3,375
2019_Mar_27,102,001,2,recog,71,LARGE,HF,target,right,aqua,imageability,conservative,no,z,1,0.86648991434,1,376
2019_Mar_27,102,001,2,recog,72,JADED,LF,target,right,aqua,imageability,conservative,no,z,1,1.2397917099,1,377
2019_Mar_27,102,001,2,recog,73,UNSAVOURY,LF,lure,-,-,-,liberal,no,m,1,1.09327339103,1,378
2019_Mar_27,102,001,2,recog,74,NEURAL,LF,target,left,yellow,pleasantness,liberal,no,z,1,0.973083519142,3,381
2019_Mar_27,102,001,2,recog,75,RAKING,LF,target,right,aqua,imageability,liberal,no,z,1,0.893378899849,3,384
2019_Mar_27,102,001,2,recog,76,AGGRAVATE,LF,lure,-,-,-,conservative,no,z,0,1.22675928078,-3,381
2019_Mar_27,102,001,2,recog,77,SUBJECT,HF,lure,-,-,-,liberal,no,z,0,1.2932067423,-1,380
2019_Mar_27,102,001,2,recog,78,BOOKS,HF,target,right,aqua,imageability,conservative,no,m,0,1.17331088735,-1,379
2019_Mar_27,102,001,2,recog,79,FORCE,HF,target,left,yellow,pleasantness,conservative,no,z,1,1.39976258682,1,380
2019_Mar_27,102,001,2,recog,80,CUCKOO,LF,target,right,aqua,imageability,liberal,no,z,1,0.733445049993,3,383
2019_Mar_27,102,001,2,recog,81,AMBIENCE,LF,target,left,yellow,pleasantness,conservative,no,z,1,1.14666569394,1,384
2019_Mar_27,102,001,2,recog,82,AHEAD,HF,target,right,aqua,imageability,conservative,no,m,0,0.933264753821,-1,383
2019_Mar_27,102,001,2,recog,83,SMOCK,LF,target,right,aqua,imageability,conservative,no,m,0,1.13298034192,-1,382
2019_Mar_27,102,001,2,recog,84,LANGUAGE,HF,lure,-,-,-,liberal,no,m,1,0.879973267189,1,383
2019_Mar_27,102,001,2,recog,85,ACROSS,HF,target,right,aqua,imageability,liberal,no,m,0,1.78627534796,-3,380
2019_Mar_27,102,001,2,recog,86,SEVEN,HF,target,left,yellow,pleasantness,conservative,no,z,1,1.59947854153,1,381
2019_Mar_27,102,001,2,recog,87,ANYONE,HF,target,left,yellow,pleasantness,liberal,no,z,1,1.51979811814,3,384
2019_Mar_27,102,001,2,recog,88,MILES,HF,lure,-,-,-,conservative,no,m,1,2.11950762061,3,387
2019_Mar_27,102,001,2,recog,89,INTEREST,HF,target,left,yellow,pleasantness,liberal,no,z,1,1.22650778998,3,390
2019_Mar_27,102,001,2,recog,90,SMALL,HF,target,right,aqua,imageability,liberal,no,z,1,0.746789093071,3,393
2019_Mar_27,102,001,2,recog,91,MAJOR,HF,target,right,aqua,imageability,liberal,no,z,1,0.706736800583,3,396
2019_Mar_27,102,001,2,recog,92,ABATED,LF,lure,-,-,-,liberal,yes,z,0,0.640208319433,-1,395
2019_Mar_27,102,001,2,recog,93,FIGURE,HF,lure,-,-,-,conservative,no,z,0,2.97231914842,-3,392
2019_Mar_27,102,001,2,recog,94,PASSED,HF,target,right,aqua,imageability,liberal,no,z,1,1.31959604566,3,395
2019_Mar_27,102,001,2,recog,95,HOLED,LF,lure,-,-,-,liberal,no,m,1,0.946703014297,1,396
2019_Mar_27,102,001,3,source,0,SIMILAR,HF,target,right,aqua,imageability,liberal,no,3,0,1.02664006094,-,-
2019_Mar_27,102,001,3,source,1,MOPED,LF,target,right,aqua,imageability,liberal,no,7,1,0.986666221854,-,-
2019_Mar_27,102,001,3,source,2,LIKELY,HF,target,right,aqua,imageability,liberal,no,3,0,0.693442615739,-,-
2019_Mar_27,102,001,3,source,3,HURDLES,LF,target,right,aqua,imageability,liberal,no,8,1,1.08002466516,-,-
2019_Mar_27,102,001,3,source,4,INROADS,LF,target,right,aqua,imageability,conservative,no,7,1,1.41310479687,-,-
2019_Mar_27,102,001,3,source,5,SPRATS,LF,target,right,aqua,imageability,liberal,no,3,0,0.973350407336,-,-
2019_Mar_27,102,001,3,source,6,DEPARTS,LF,target,right,aqua,imageability,conservative,no,7,1,0.706718103746,-,-
2019_Mar_27,102,001,3,source,7,BROUGHT,HF,target,left,yellow,pleasantness,conservative,no,2,1,0.480182818414,-,-
2019_Mar_27,102,001,3,source,8,LEVEL,HF,target,left,yellow,pleasantness,liberal,no,7,0,0.613478073743,-,-
2019_Mar_27,102,001,3,source,9,KNOWLEDGE,HF,target,right,aqua,imageability,conservative,no,3,0,0.65318429143,-,-
2019_Mar_27,102,001,3,source,10,DEFEATING,LF,target,right,aqua,imageability,liberal,no,7,1,0.560109966735,-,-
2019_Mar_27,102,001,3,source,11,THING,HF,target,right,aqua,imageability,conservative,no,2,0,0.426894264618,-,-
2019_Mar_27,102,001,3,source,12,CEMENTED,LF,target,right,aqua,imageability,liberal,no,7,1,0.973402098591,-,-
2019_Mar_27,102,001,3,source,13,ALMOST,HF,target,right,aqua,imageability,conservative,no,3,0,0.613464509368,-,-
2019_Mar_27,102,001,3,source,14,CRYPT,LF,target,right,aqua,imageability,conservative,yes,3,0,0.666777625678,-,-
2019_Mar_27,102,001,3,source,15,VANDALS,LF,target,left,yellow,pleasantness,conservative,no,8,0,0.853371333129,-,-
2019_Mar_27,102,001,3,source,16,LAPELS,LF,target,left,yellow,pleasantness,conservative,no,3,1,0.733180361429,-,-
2019_Mar_27,102,001,3,source,17,SUPPORT,HF,target,left,yellow,pleasantness,conservative,no,7,0,0.640229215898,-,-
2019_Mar_27,102,001,3,source,18,SAGES,LF,target,left,yellow,pleasantness,liberal,no,2,1,0.600066942012,-,-
2019_Mar_27,102,001,3,source,19,ANSWER,HF,target,left,yellow,pleasantness,conservative,no,3,1,1.22655361556,-,-
2019_Mar_27,102,001,3,source,20,TRADE,HF,target,left,yellow,pleasantness,liberal,no,7,0,0.506924428848,-,-
2019_Mar_27,102,001,3,source,21,GETTING,HF,target,left,yellow,pleasantness,conservative,no,2,1,0.493279769949,-,-
2019_Mar_27,102,001,3,source,22,MIMICKED,LF,target,right,aqua,imageability,conservative,yes,3,0,0.386958185807,-,-
2019_Mar_27,102,001,3,source,23,SHORT,HF,target,right,aqua,imageability,liberal,no,8,1,1.35968206577,-,-
2019_Mar_27,102,001,3,source,24,DURING,HF,target,left,yellow,pleasantness,liberal,no,3,1,2.62598955763,-,-
2019_Mar_27,102,001,3,source,25,GLUTINOUS,LF,target,left,yellow,pleasantness,conservative,no,3,1,0.973081686117,-,-
2019_Mar_27,102,001,3,source,26,YOUNG,HF,target,left,yellow,pleasantness,liberal,no,2,1,1.30629159588,-,-
2019_Mar_27,102,001,3,source,27,MAGGOT,LF,target,left,yellow,pleasantness,conservative,no,3,1,0.786729937743,-,-
2019_Mar_27,102,001,3,source,28,PREPARED,HF,target,right,aqua,imageability,conservative,no,7,1,0.746735935396,-,-
2019_Mar_27,102,001,3,source,29,TOTAL,HF,target,right,aqua,imageability,liberal,no,8,1,0.600274073646,-,-
2019_Mar_27,102,001,3,source,30,REPORT,HF,target,left,yellow,pleasantness,liberal,no,7,0,0.653212153386,-,-
2019_Mar_27,102,001,3,source,31,BIOLOGIST,LF,target,left,yellow,pleasantness,liberal,no,2,1,0.786789694303,-,-
2019_Mar_27,102,001,3,source,32,LIZARD,LF,target,left,yellow,pleasantness,conservative,no,2,1,0.760085477543,-,-
2019_Mar_27,102,001,3,source,33,MORNING,HF,target,right,aqua,imageability,conservative,no,8,1,1.53285181033,-,-
2019_Mar_27,102,001,3,source,34,ANGERS,LF,target,right,aqua,imageability,conservative,no,8,1,0.800100376357,-,-
2019_Mar_27,102,001,3,source,35,DALES,LF,target,left,yellow,pleasantness,conservative,no,8,0,1.55997688924,-,-
2019_Mar_27,102,001,3,source,36,EDUCATION,HF,target,right,aqua,imageability,liberal,no,2,0,0.760015456051,-,-
2019_Mar_27,102,001,3,source,37,ORCHARDS,LF,target,left,yellow,pleasantness,liberal,no,2,1,1.55974886114,-,-
2019_Mar_27,102,001,3,source,38,BYGONE,LF,target,left,yellow,pleasantness,liberal,no,2,1,0.973328411053,-,-
2019_Mar_27,102,001,3,source,39,RAPACIOUS,LF,target,right,aqua,imageability,liberal,no,7,1,1.23981773883,-,-
2019_Mar_27,102,001,3,source,40,HOWEVER,HF,target,left,yellow,pleasantness,conservative,no,3,1,0.693456180112,-,-
2019_Mar_27,102,001,3,source,41,JEWELLED,LF,target,left,yellow,pleasantness,liberal,no,7,0,1.05322073193,-,-
2019_Mar_27,102,001,3,source,42,AROUND,HF,target,right,aqua,imageability,conservative,no,3,0,0.508338423027,-,-
2019_Mar_27,102,001,3,source,43,ABSENCES,LF,target,right,aqua,imageability,conservative,no,3,0,0.626768959142,-,-
2019_Mar_27,102,001,3,source,44,VACATED,LF,target,left,yellow,pleasantness,liberal,yes,7,0,0.586789254377,-,-
2019_Mar_27,102,001,3,source,45,BUSINESS,HF,target,left,yellow,pleasantness,conservative,no,2,1,1.03971135015,-,-
2019_Mar_27,102,001,3,source,46,ECONOMIC,HF,target,right,aqua,imageability,liberal,yes,7,1,0.880031190725,-,-
2019_Mar_27,102,001,3,source,47,VALUE,HF,target,left,yellow,pleasantness,liberal,no,7,0,1.06640603519,-,-
2019_Mar_27,102,001,3,recog,0,INROADS,LF,target,right,aqua,imageability,conservative,no,m,0,2.17251938789,-1,395
2019_Mar_27,102,001,3,recog,1,DEPARTS,LF,target,right,aqua,imageability,conservative,yes,m,0,1.02658470364,-1,394
2019_Mar_27,102,001,3,recog,2,PREPARED,HF,target,right,aqua,imageability,conservative,no,z,1,3.55908384029,1,395
2019_Mar_27,102,001,3,recog,3,MOUTH,HF,lure,-,-,-,conservative,no,m,1,2.0528720909,3,398
2019_Mar_27,102,001,3,recog,4,MORNING,HF,target,right,aqua,imageability,conservative,no,m,0,0.733388959481,-1,397
2019_Mar_27,102,001,3,recog,5,BYGONE,LF,target,left,yellow,pleasantness,liberal,no,z,1,0.760263280805,3,400
2019_Mar_27,102,001,3,recog,6,LIKELY,HF,target,right,aqua,imageability,liberal,no,z,1,0.613438847044,3,403
2019_Mar_27,102,001,3,recog,7,SEEMED,HF,lure,-,-,-,liberal,no,z,0,1.94631697959,-1,402
2019_Mar_27,102,001,3,recog,8,AWAITS,LF,lure,-,-,-,conservative,no,m,1,0.653464010788,3,405
2019_Mar_27,102,001,3,recog,9,SANDAL,LF,lure,-,-,-,conservative,no,z,0,1.11993434844,-3,402
2019_Mar_27,102,001,3,recog,10,LAPELS,LF,target,left,yellow,pleasantness,conservative,no,z,1,1.18653211787,1,403
2019_Mar_27,102,001,3,recog,11,RADIAL,LF,lure,-,-,-,conservative,no,m,1,1.4131458566,3,406
2019_Mar_27,102,001,3,recog,12,LEVEL,HF,target,left,yellow,pleasantness,liberal,no,z,1,1.70640685639,3,409
2019_Mar_27,102,001,3,recog,13,ANSWER,HF,target,left,yellow,pleasantness,conservative,no,m,0,0.640081107615,-1,408
2019_Mar_27,102,001,3,recog,14,JEWELLED,LF,target,left,yellow,pleasantness,liberal,no,z,1,0.65342331767,3,411
2019_Mar_27,102,001,3,recog,15,TOTAL,HF,target,right,aqua,imageability,liberal,no,z,1,0.840051852563,3,414
2019_Mar_27,102,001,3,recog,16,OBVIOUSLY,HF,lure,-,-,-,conservative,no,m,1,4.3986048493,3,417
2019_Mar_27,102,001,3,recog,17,VETOED,LF,lure,-,-,-,conservative,yes,m,1,0.760116638938,3,420
2019_Mar_27,102,001,3,recog,18,HOWEVER,HF,target,left,yellow,pleasantness,conservative,no,m,0,0.746449617154,-1,419
2019_Mar_27,102,001,3,recog,19,YOUNG,HF,target,left,yellow,pleasantness,liberal,no,z,1,1.10663723076,3,422
2019_Mar_27,102,001,3,recog,20,DUNGEON,LF,lure,-,-,-,liberal,no,m,1,0.893249855009,1,423
2019_Mar_27,102,001,3,recog,21,ANGERS,LF,target,right,aqua,imageability,conservative,no,m,0,4.31862930916,-1,422
2019_Mar_27,102,001,3,recog,22,GROUND,HF,lure,-,-,-,liberal,no,z,0,2.79927221643,-1,421
2019_Mar_27,102,001,3,recog,23,COILING,LF,lure,-,-,-,liberal,no,m,1,0.973069221558,1,422
2019_Mar_27,102,001,3,recog,24,REPORT,HF,target,left,yellow,pleasantness,liberal,no,z,1,0.999716247992,3,425
2019_Mar_27,102,001,3,recog,25,RANGE,HF,lure,-,-,-,liberal,no,z,0,1.75982555484,-1,424
2019_Mar_27,102,001,3,recog,26,HURDLES,LF,target,right,aqua,imageability,liberal,no,z,1,0.919957737815,3,427
2019_Mar_27,102,001,3,recog,27,QUICKLY,HF,lure,-,-,-,conservative,no,m,1,0.973311180636,3,430
2019_Mar_27,102,001,3,recog,28,FLOOR,HF,lure,-,-,-,conservative,no,m,1,0.746674345814,3,433
2019_Mar_27,102,001,3,recog,29,ENLIGHTEN,LF,lure,-,-,-,liberal,no,m,1,1.55972393203,1,434
2019_Mar_27,102,001,3,recog,30,BULBOUS,LF,lure,-,-,-,conservative,no,m,1,0.90665182162,3,437
2019_Mar_27,102,001,3,recog,31,MAGGOT,LF,target,left,yellow,pleasantness,conservative,no,z,1,0.705778129393,1,438
2019_Mar_27,102,001,3,recog,32,CAGED,LF,lure,-,-,-,liberal,no,m,1,1.55976462514,1,439
2019_Mar_27,102,001,3,recog,33,BREAK,HF,lure,-,-,-,liberal,no,z,0,0.959751940622,-1,438
2019_Mar_27,102,001,3,recog,34,GETTING,HF,target,left,yellow,pleasantness,conservative,no,m,0,1.65314543134,-1,437
2019_Mar_27,102,001,3,recog,35,CRYPT,LF,target,right,aqua,imageability,conservative,no,z,1,1.95960273252,1,438
2019_Mar_27,102,001,3,recog,36,RAPACIOUS,LF,target,right,aqua,imageability,liberal,no,z,1,1.17327935935,3,441
2019_Mar_27,102,001,3,recog,37,CHURCH,HF,lure,-,-,-,liberal,no,m,1,0.799848518953,1,442
2019_Mar_27,102,001,3,recog,38,PRIVATE,HF,lure,-,-,-,conservative,no,z,0,1.18660177275,-3,439
2019_Mar_27,102,001,3,recog,39,SIMILAR,HF,target,right,aqua,imageability,liberal,no,z,1,0.893359836406,3,442
2019_Mar_27,102,001,3,recog,40,ORCHARDS,LF,target,left,yellow,pleasantness,liberal,no,z,1,0.906419394267,3,445
2019_Mar_27,102,001,3,recog,41,VALUE,HF,target,left,yellow,pleasantness,liberal,no,z,1,0.720069478915,3,448
2019_Mar_27,102,001,3,recog,42,ORDER,HF,lure,-,-,-,liberal,no,z,0,1.91954310794,-1,447
2019_Mar_27,102,001,3,recog,43,TRADE,HF,target,left,yellow,pleasantness,liberal,no,m,0,1.66640772157,-3,444
2019_Mar_27,102,001,3,recog,44,SAGES,LF,target,left,yellow,pleasantness,liberal,no,z,1,0.893334174079,3,447
2019_Mar_27,102,001,3,recog,45,CEMENTED,LF,target,right,aqua,imageability,liberal,no,z,1,0.760056515775,3,450
2019_Mar_27,102,001,3,recog,46,BROUGHT,HF,target,left,yellow,pleasantness,conservative,no,m,0,3.31901681029,-1,449
2019_Mar_27,102,001,3,recog,47,ATTACK,HF,lure,-,-,-,conservative,no,m,1,1.01327878745,3,452
2019_Mar_27,102,001,3,recog,48,ABSENCES,LF,target,right,aqua,imageability,conservative,no,m,0,0.920057820887,-1,451
2019_Mar_27,102,001,3,recog,49,BELIEVE,HF,lure,-,-,-,liberal,no,z,0,1.1465205185,-1,450
2019_Mar_27,102,001,3,recog,50,WRONG,HF,lure,-,-,-,conservative,yes,m,1,0.826682147159,3,453
2019_Mar_27,102,001,3,recog,51,BANALITY,LF,lure,-,-,-,liberal,no,m,1,0.920013828329,1,454
2019_Mar_27,102,001,3,recog,52,MOPED,LF,target,right,aqua,imageability,liberal,no,z,1,0.906688482088,3,457
2019_Mar_27,102,001,3,recog,53,SPRATS,LF,target,right,aqua,imageability,liberal,no,z,1,0.866717942437,3,460
2019_Mar_27,102,001,3,recog,54,DURING,HF,target,left,yellow,pleasantness,liberal,no,z,1,0.693521069137,3,463
2019_Mar_27,102,001,3,recog,55,GLUTINOUS,LF,target,left,yellow,pleasantness,conservative,no,z,1,1.02660816634,1,464
2019_Mar_27,102,001,3,recog,56,MIMICKED,LF,target,right,aqua,imageability,conservative,no,z,1,1.0932162007,1,465
2019_Mar_27,102,001,3,recog,57,VANDALS,LF,target,left,yellow,pleasantness,conservative,no,z,1,0.733553198368,1,466
2019_Mar_27,102,001,3,recog,58,RIGGING,LF,lure,-,-,-,conservative,no,m,1,0.786801425653,3,469
2019_Mar_27,102,001,3,recog,59,DALES,LF,target,left,yellow,pleasantness,conservative,no,z,1,1.38658864831,1,470
2019_Mar_27,102,001,3,recog,60,SUCCESS,HF,lure,-,-,-,liberal,no,m,1,1.06656587483,1,471
2019_Mar_27,102,001,3,recog,61,THING,HF,target,right,aqua,imageability,conservative,no,z,1,2.26598121371,1,472
2019_Mar_27,102,001,3,recog,62,LAGER,LF,lure,-,-,-,liberal,no,z,0,0.919797164974,-1,471
2019_Mar_27,102,001,3,recog,63,SUPPORT,HF,target,left,yellow,pleasantness,conservative,no,z,1,2.21305963118,1,472
2019_Mar_27,102,001,3,recog,64,HAVING,HF,lure,-,-,-,conservative,no,m,1,2.10616467735,3,475
2019_Mar_27,102,001,3,recog,65,MODERN,HF,lure,-,-,-,conservative,no,m,1,0.70671297128,3,478
2019_Mar_27,102,001,3,recog,66,DEFEATING,LF,target,right,aqua,imageability,liberal,no,z,1,1.90601356291,3,481
2019_Mar_27,102,001,3,recog,67,NOXIOUS,LF,lure,-,-,-,conservative,no,z,0,2.53270150242,-3,478
2019_Mar_27,102,001,3,recog,68,CARRIED,HF,lure,-,-,-,liberal,no,z,0,1.38622460988,-1,477
2019_Mar_27,102,001,3,recog,69,VORACIOUS,LF,lure,-,-,-,conservative,no,m,1,0.880010660863,3,480
2019_Mar_27,102,001,3,recog,70,IDEAS,HF,lure,-,-,-,conservative,no,m,1,0.733446149807,3,483
2019_Mar_27,102,001,3,recog,71,DEITIES,LF,lure,-,-,-,liberal,no,m,1,1.07999753642,1,484
2019_Mar_27,102,001,3,recog,72,HOARD,LF,lure,-,-,-,liberal,no,m,1,0.746794592142,1,485
2019_Mar_27,102,001,3,recog,73,PAPER,HF,lure,-,-,-,conservative,no,m,1,0.786621056159,3,488
2019_Mar_27,102,001,3,recog,74,EDUCATION,HF,target,right,aqua,imageability,liberal,yes,z,1,0.852911977488,3,491
2019_Mar_27,102,001,3,recog,75,POWER,HF,lure,-,-,-,conservative,no,m,1,1.25299864283,3,494
2019_Mar_27,102,001,3,recog,76,BUTCHERED,LF,lure,-,-,-,conservative,no,z,0,1.06777860305,-3,491
2019_Mar_27,102,001,3,recog,77,FOUND,HF,lure,-,-,-,liberal,no,z,0,0.959899682301,-1,490
2019_Mar_27,102,001,3,recog,78,BIOLOGIST,LF,target,left,yellow,pleasantness,liberal,no,z,1,0.706761363095,3,493
2019_Mar_27,102,001,3,recog,79,DOUBT,HF,lure,-,-,-,liberal,no,m,1,0.973361772078,1,494
2019_Mar_27,102,001,3,recog,80,BUCKED,LF,lure,-,-,-,conservative,no,m,1,0.999930345115,3,497
2019_Mar_27,102,001,3,recog,81,LIZARD,LF,target,left,yellow,pleasantness,conservative,no,z,1,0.746699274929,1,498
2019_Mar_27,102,001,3,recog,82,INITIATES,LF,lure,-,-,-,liberal,no,m,1,1.61282148479,1,499
2019_Mar_27,102,001,3,recog,83,ECONOMIC,HF,target,right,aqua,imageability,liberal,no,z,1,0.999987902047,3,502
2019_Mar_27,102,001,3,recog,84,SHORT,HF,target,right,aqua,imageability,liberal,no,z,1,0.706742666258,3,505
2019_Mar_27,102,001,3,recog,85,ALMOST,HF,target,right,aqua,imageability,conservative,no,z,1,1.43958538479,1,506
2019_Mar_27,102,001,3,recog,86,SAWDUST,LF,lure,-,-,-,liberal,no,m,1,1.21318244374,1,507
2019_Mar_27,102,001,3,recog,87,VACATED,LF,target,left,yellow,pleasantness,liberal,no,z,1,0.893337473522,3,510
2019_Mar_27,102,001,3,recog,88,ANCHORAGE,LF,lure,-,-,-,liberal,no,m,1,1.29313232155,1,511
2019_Mar_27,102,001,3,recog,89,KNOWLEDGE,HF,target,right,aqua,imageability,conservative,no,z,1,1.03998520384,1,512
2019_Mar_27,102,001,3,recog,90,AROUND,HF,target,right,aqua,imageability,conservative,no,m,0,1.66620462259,-1,511
2019_Mar_27,102,001,3,recog,91,ALTHOUGH,HF,lure,-,-,-,liberal,no,m,1,1.26651902275,1,512
2019_Mar_27,102,001,3,recog,92,JUBILANT,LF,lure,-,-,-,conservative,no,m,1,1.3197962118,3,515
2019_Mar_27,102,001,3,recog,93,BUSINESS,HF,target,left,yellow,pleasantness,conservative,no,z,1,1.25322373809,1,516
2019_Mar_27,102,001,3,recog,94,SNEAKED,LF,lure,-,-,-,liberal,no,m,1,2.07957044199,1,517
2019_Mar_27,102,001,3,recog,95,KERNEL,LF,lure,-,-,-,conservative,no,z,0,2.05289262076,-3,514
2019_Mar_27,102,001,4,source,0,SOCIAL,HF,target,left,yellow,pleasantness,liberal,no,3,1,1.55976389193,-,-
2019_Mar_27,102,001,4,source,1,SCHOOL,HF,target,left,yellow,pleasantness,liberal,no,7,0,0.786689244625,-,-
2019_Mar_27,102,001,4,source,2,OSTRACISM,LF,target,left,yellow,pleasantness,liberal,no,2,1,0.853512842528,-,-
2019_Mar_27,102,001,4,source,3,TOGETHER,HF,target,right,aqua,imageability,conservative,no,3,0,0.933121778004,-,-
2019_Mar_27,102,001,4,source,4,REIGNING,LF,target,left,yellow,pleasantness,liberal,no,2,1,1.26652342201,-,-
2019_Mar_27,102,001,4,source,5,CLEAR,HF,target,left,yellow,pleasantness,liberal,no,7,0,2.03960026894,-,-
2019_Mar_27,102,001,4,source,6,ABOVE,HF,target,left,yellow,pleasantness,conservative,no,3,1,0.773375996341,-,-
2019_Mar_27,102,001,4,source,7,BEAUTIFUL,HF,target,right,aqua,imageability,conservative,no,2,0,0.68011103722,-,-
2019_Mar_27,102,001,4,source,8,UNTIL,HF,target,right,aqua,imageability,conservative,yes,3,0,0.559896602821,-,-
2019_Mar_27,102,001,4,source,9,LEARN,HF,target,right,aqua,imageability,liberal,no,7,1,1.95961226425,-,-
2019_Mar_27,102,001,4,source,10,IDOLATRY,LF,target,right,aqua,imageability,conservative,no,2,0,1.01338070354,-,-
2019_Mar_27,102,001,4,source,11,ROADWAY,LF,target,right,aqua,imageability,liberal,no,8,1,1.05304329528,-,-
2019_Mar_27,102,001,4,source,12,JAMMING,LF,target,left,yellow,pleasantness,conservative,no,3,1,0.826497745014,-,-
2019_Mar_27,102,001,4,source,13,NEBULOUS,LF,target,right,aqua,imageability,conservative,no,7,1,0.933307279962,-,-
2019_Mar_27,102,001,4,source,14,USING,HF,target,right,aqua,imageability,liberal,no,7,1,0.626757961003,-,-
2019_Mar_27,102,001,4,source,15,APPEARED,HF,target,left,yellow,pleasantness,conservative,no,8,0,0.69342538532,-,-
2019_Mar_27,102,001,4,source,16,VILLAGE,HF,target,right,aqua,imageability,liberal,no,3,0,2.94586312302,-,-
2019_Mar_27,102,001,4,source,17,CORNER,HF,target,left,yellow,pleasantness,conservative,no,7,0,1.17326432856,-,-
2019_Mar_27,102,001,4,source,18,CENTRAL,HF,target,left,yellow,pleasantness,liberal,no,3,1,0.853340171732,-,-
2019_Mar_27,102,001,4,source,19,OATHS,LF,target,left,yellow,pleasantness,liberal,no,2,1,0.986770337577,-,-
2019_Mar_27,102,001,4,source,20,ITSELF,HF,target,right,aqua,imageability,conservative,no,7,1,0.8399997947,-,-
2019_Mar_27,102,001,4,source,21,SIZZLING,LF,target,right,aqua,imageability,conservative,no,8,1,1.01332314661,-,-
2019_Mar_27,102,001,4,source,22,ERODE,LF,target,left,yellow,pleasantness,liberal,yes,3,1,1.10637217559,-,-
2019_Mar_27,102,001,4,source,23,CUTLER,LF,target,right,aqua,imageability,liberal,yes,7,1,0.759836919582,-,-
2019_Mar_27,102,001,4,source,24,TIMES,HF,target,right,aqua,imageability,liberal,no,2,0,3.67897309635,-,-
2019_Mar_27,102,001,4,source,25,CHOICE,HF,target,left,yellow,pleasantness,liberal,no,3,1,1.42627067009,-,-
2019_Mar_27,102,001,4,source,26,UMBILICAL,LF,target,left,yellow,pleasantness,conservative,no,1,1,1.66633220101,-,-
2019_Mar_27,102,001,4,source,27,ESCALATED,LF,target,left,yellow,pleasantness,conservative,no,2,1,2.67931403869,-,-
2019_Mar_27,102,001,4,source,28,DROLL,LF,target,left,yellow,pleasantness,liberal,no,7,0,0.733432218831,-,-
2019_Mar_27,102,001,4,source,29,THRASH,LF,target,left,yellow,pleasantness,liberal,no,3,1,1.30626263411,-,-
2019_Mar_27,102,001,4,source,30,HOTEL,HF,target,left,yellow,pleasantness,conservative,no,7,0,1.89292614309,-,-
2019_Mar_27,102,001,4,source,31,CATALYST,LF,target,left,yellow,pleasantness,conservative,no,3,1,3.06581946773,-,-
2019_Mar_27,102,001,4,source,32,RIDDLES,LF,target,right,aqua,imageability,liberal,no,8,1,1.01329675108,-,-
2019_Mar_27,102,001,4,source,33,MINISTER,HF,target,right,aqua,imageability,conservative,no,8,1,0.959735076807,-,-
2019_Mar_27,102,001,4,source,34,COERCION,LF,target,left,yellow,pleasantness,conservative,no,2,1,1.1732042054,-,-
2019_Mar_27,102,001,4,source,35,EXCEPT,HF,target,right,aqua,imageability,conservative,no,7,1,2.62593933279,-,-
2019_Mar_27,102,001,4,source,36,DAWDLING,LF,target,right,aqua,imageability,conservative,no,7,1,2.54577902391,-,-
2019_Mar_27,102,001,4,source,37,AFTERNOON,HF,target,right,aqua,imageability,liberal,no,7,1,0.959986201,-,-
2019_Mar_27,102,001,4,source,38,EGGSHELL,LF,target,right,aqua,imageability,liberal,no,7,1,1.93293737586,-,-
2019_Mar_27,102,001,4,source,39,EITHER,HF,target,left,yellow,pleasantness,liberal,no,2,1,3.1323017567,-,-
2019_Mar_27,102,001,4,source,40,ARMAMENT,LF,target,right,aqua,imageability,liberal,no,7,1,1.26652892107,-,-
2019_Mar_27,102,001,4,source,41,AFRAID,HF,target,left,yellow,pleasantness,conservative,no,3,1,2.34609386399,-,-
2019_Mar_27,102,001,4,source,42,DOLPHIN,LF,target,right,aqua,imageability,liberal,no,2,0,2.38608383369,-,-
2019_Mar_27,102,001,4,source,43,ADJOURNED,LF,target,right,aqua,imageability,conservative,no,7,1,1.26625910004,-,-
2019_Mar_27,102,001,4,source,44,MOODILY,LF,target,left,yellow,pleasantness,conservative,no,2,1,0.946653156063,-,-
2019_Mar_27,102,001,4,source,45,NOVAS,LF,target,right,aqua,imageability,conservative,yes,7,1,0.600163359037,-,-
2019_Mar_27,102,001,4,source,46,MAYBE,HF,target,right,aqua,imageability,liberal,no,3,0,0.92000063056,-,-
2019_Mar_27,102,001,4,source,47,UNION,HF,target,left,yellow,pleasantness,conservative,no,2,1,1.02658067099,-,-
2019_Mar_27,102,001,4,recog,0,AFTERNOON,HF,target,right,aqua,imageability,liberal,no,z,1,1.30654198687,3,517
2019_Mar_27,102,001,4,recog,1,EXCEPT,HF,target,right,aqua,imageability,conservative,no,z,1,0.880009927654,1,518
2019_Mar_27,102,001,4,recog,2,ABOVE,HF,target,left,yellow,pleasantness,conservative,no,m,0,1.0132985841,-1,517
2019_Mar_27,102,001,4,recog,3,SECOND,HF,lure,-,-,-,liberal,yes,z,0,0.813221157196,-1,516
2019_Mar_27,102,001,4,recog,4,VILLAGE,HF,target,right,aqua,imageability,liberal,no,z,1,0.733421587296,3,519
2019_Mar_27,102,001,4,recog,5,COERCION,LF,target,left,yellow,pleasantness,conservative,no,z,1,1.05328782059,1,520
2019_Mar_27,102,001,4,recog,6,CLEAR,HF,target,left,yellow,pleasantness,liberal,no,z,1,1.75943402106,3,523
2019_Mar_27,102,001,4,recog,7,IDOLATRY,LF,target,right,aqua,imageability,conservative,no,z,1,1.05327865547,1,524
2019_Mar_27,102,001,4,recog,8,DOLPHIN,LF,target,right,aqua,imageability,liberal,no,z,1,0.586796953075,3,527
2019_Mar_27,102,001,4,recog,9,ADJOURNED,LF,target,right,aqua,imageability,conservative,no,z,1,0.640154795152,1,528
2019_Mar_27,102,001,4,recog,10,DYNAMISM,LF,lure,-,-,-,conservative,no,m,1,0.640133165478,3,531
2019_Mar_27,102,001,4,recog,11,SOCIAL,HF,target,left,yellow,pleasantness,liberal,no,z,1,0.760119571776,3,534
2019_Mar_27,102,001,4,recog,12,APRICOT,LF,lure,-,-,-,conservative,yes,m,1,0.760087310568,3,537
2019_Mar_27,102,001,4,recog,13,OATHS,LF,target,left,yellow,pleasantness,liberal,no,z,1,1.26633755344,3,540
2019_Mar_27,102,001,4,recog,14,WRANGLING,LF,lure,-,-,-,liberal,no,m,1,1.7596576499,1,541
2019_Mar_27,102,001,4,recog,15,MAYBE,HF,target,right,aqua,imageability,liberal,yes,z,1,0.95995393979,3,544
2019_Mar_27,102,001,4,recog,16,DROLL,LF,target,left,yellow,pleasantness,liberal,no,z,1,1.01330884903,3,547
2019_Mar_27,102,001,4,recog,17,HOTEL,HF,target,left,yellow,pleasantness,conservative,no,z,1,0.933415794943,1,548
2019_Mar_27,102,001,4,recog,18,THRASH,LF,target,left,yellow,pleasantness,liberal,no,z,1,0.666760395257,3,551
2019_Mar_27,102,001,4,recog,19,SYMBOLIZE,LF,lure,-,-,-,conservative,no,m,1,1.15977437683,3,554
2019_Mar_27,102,001,4,recog,20,SHALL,HF,lure,-,-,-,conservative,no,m,1,0.719811022629,3,557
2019_Mar_27,102,001,4,recog,21,MOODILY,LF,target,left,yellow,pleasantness,conservative,no,z,1,0.679854413956,1,558
2019_Mar_27,102,001,4,recog,22,ERODE,LF,target,left,yellow,pleasantness,liberal,no,z,1,0.720176894081,3,561
2019_Mar_27,102,001,4,recog,23,OSTRACISM,LF,target,left,yellow,pleasantness,liberal,no,z,1,0.746708806651,3,564
2019_Mar_27,102,001,4,recog,24,LIVED,HF,lure,-,-,-,liberal,no,z,0,1.37311776002,-1,563
2019_Mar_27,102,001,4,recog,25,EITHER,HF,target,left,yellow,pleasantness,liberal,no,z,1,0.67982471898,3,566
2019_Mar_27,102,001,4,recog,26,BAOBAB,LF,lure,-,-,-,liberal,no,m,1,1.35981404345,1,567
2019_Mar_27,102,001,4,recog,27,USING,HF,target,right,aqua,imageability,liberal,no,z,1,0.840027656657,3,570
2019_Mar_27,102,001,4,recog,28,CATALYST,LF,target,left,yellow,pleasantness,conservative,no,z,1,0.840113075541,1,571
2019_Mar_27,102,001,4,recog,29,BETTER,HF,lure,-,-,-,conservative,no,m,1,0.82668141395,3,574
2019_Mar_27,102,001,4,recog,30,REIGNING,LF,target,left,yellow,pleasantness,liberal,no,z,1,0.733387126458,3,577
2019_Mar_27,102,001,4,recog,31,BEAUTIFUL,HF,target,right,aqua,imageability,conservative,no,z,1,1.42645397242,1,578
2019_Mar_27,102,001,4,recog,32,JUNCTURE,LF,lure,-,-,-,conservative,no,m,1,0.893455886828,3,581
2019_Mar_27,102,001,4,recog,33,MIGHTILY,LF,lure,-,-,-,conservative,no,m,1,0.90669874702,3,584
2019_Mar_27,102,001,4,recog,34,THANK,HF,lure,-,-,-,liberal,no,m,1,0.853343104569,1,585
2019_Mar_27,102,001,4,recog,35,TOFFEE,LF,lure,-,-,-,liberal,no,m,1,0.733376128317,1,586
2019_Mar_27,102,001,4,recog,36,UMBILICAL,LF,target,left,yellow,pleasantness,conservative,no,z,1,0.759920505445,1,587
2019_Mar_27,102,001,4,recog,37,HOPPER,LF,lure,-,-,-,conservative,no,m,1,1.3598100108,3,590
2019_Mar_27,102,001,4,recog,38,GENERAL,HF,lure,-,-,-,conservative,no,m,1,0.733430385808,3,593
2019_Mar_27,102,001,4,recog,39,RIDDLES,LF,target,right,aqua,imageability,liberal,no,z,1,0.66670467135,3,596
2019_Mar_27,102,001,4,recog,40,ERADICATE,LF,lure,-,-,-,liberal,no,z,0,0.906694714367,-1,595
2019_Mar_27,102,001,4,recog,41,ANTELOPES,LF,lure,-,-,-,liberal,no,m,1,1.11985076257,1,596
2019_Mar_27,102,001,4,recog,42,LEARN,HF,target,right,aqua,imageability,liberal,no,z,1,0.706825885516,3,599
2019_Mar_27,102,001,4,recog,43,WESTERN,HF,lure,-,-,-,liberal,no,m,1,0.786660649463,1,600
2019_Mar_27,102,001,4,recog,44,UNION,HF,target,left,yellow,pleasantness,conservative,no,z,1,0.87984128951,1,601
2019_Mar_27,102,001,4,recog,45,ARMAMENT,LF,target,right,aqua,imageability,liberal,no,z,1,0.933445856524,3,604
2019_Mar_27,102,001,4,recog,46,SCHOOL,HF,target,left,yellow,pleasantness,liberal,no,z,1,1.03995000979,3,607
2019_Mar_27,102,001,4,recog,47,POLICE,HF,lure,-,-,-,conservative,no,m,1,0.733403990271,3,610
2019_Mar_27,102,001,4,recog,48,THOUSAND,HF,lure,-,-,-,conservative,no,m,1,0.626977190592,3,613
2019_Mar_27,102,001,4,recog,49,YONDER,LF,lure,-,-,-,liberal,no,m,1,1.21320040737,1,614
2019_Mar_27,102,001,4,recog,50,GARDEN,HF,lure,-,-,-,conservative,no,m,1,1.11966306099,3,617
2019_Mar_27,102,001,4,recog,51,ROADWAY,LF,target,right,aqua,imageability,liberal,no,z,1,1.13334584677,3,620
2019_Mar_27,102,001,4,recog,52,GIRLS,HF,lure,-,-,-,conservative,no,z,0,1.00006122298,-3,617
2019_Mar_27,102,001,4,recog,53,APPEARED,HF,target,left,yellow,pleasantness,conservative,no,z,1,3.49208903801,1,618
2019_Mar_27,102,001,4,recog,54,MOVED,HF,lure,-,-,-,conservative,no,z,0,1.47978541896,-3,615
2019_Mar_27,102,001,4,recog,55,FLUFF,LF,lure,-,-,-,conservative,no,m,1,0.919997697723,3,618
2019_Mar_27,102,001,4,recog,56,CUTLER,LF,target,right,aqua,imageability,liberal,no,z,1,1.09324479586,3,621
2019_Mar_27,102,001,4,recog,57,CORNER,HF,target,left,yellow,pleasantness,conservative,no,z,1,1.93267965278,1,622
2019_Mar_27,102,001,4,recog,58,APART,HF,lure,-,-,-,conservative,yes,m,1,0.773401658667,3,625
2019_Mar_27,102,001,4,recog,59,HALLMARK,LF,lure,-,-,-,liberal,no,m,1,0.893129608679,1,626
2019_Mar_27,102,001,4,recog,60,ARDENTLY,LF,lure,-,-,-,liberal,no,z,0,1.47960211663,-1,625
2019_Mar_27,102,001,4,recog,61,SPOKE,HF,lure,-,-,-,liberal,no,m,1,1.35976895108,1,626
2019_Mar_27,102,001,4,recog,62,AFRAID,HF,target,left,yellow,pleasantness,conservative,no,z,1,1.54639272011,1,627
2019_Mar_27,102,001,4,recog,63,TOGETHER,HF,target,right,aqua,imageability,conservative,no,m,0,1.1996917588,-1,626
2019_Mar_27,102,001,4,recog,64,PLYWOOD,LF,lure,-,-,-,conservative,no,m,1,0.879985731746,3,629
2019_Mar_27,102,001,4,recog,65,MUMBLES,LF,lure,-,-,-,conservative,no,m,1,1.19965693136,3,632
2019_Mar_27,102,001,4,recog,66,RIVER,HF,lure,-,-,-,conservative,no,z,0,1.41310516348,-3,629
2019_Mar_27,102,001,4,recog,67,AVAILABLE,HF,lure,-,-,-,liberal,no,z,0,0.586893370102,-1,628
2019_Mar_27,102,001,4,recog,68,EGGSHELL,LF,target,right,aqua,imageability,liberal,no,z,1,0.786718572999,3,631
2019_Mar_27,102,001,4,recog,69,ESCALATED,LF,target,left,yellow,pleasantness,conservative,no,m,0,1.0397307802,-1,630
2019_Mar_27,102,001,4,recog,70,DAWDLING,LF,target,right,aqua,imageability,conservative,no,m,0,1.26648676154,-1,629
2019_Mar_27,102,001,4,recog,71,WHITE,HF,lure,-,-,-,liberal,no,m,1,0.906768401903,1,630
2019_Mar_27,102,001,4,recog,72,KETCHUP,LF,lure,-,-,-,liberal,no,m,1,1.74634183538,1,631
2019_Mar_27,102,001,4,recog,73,UNTIL,HF,target,right,aqua,imageability,conservative,no,z,1,0.999991201486,1,632
2019_Mar_27,102,001,4,recog,74,PUBLIC,HF,lure,-,-,-,liberal,no,z,0,1.10637584163,-1,631
2019_Mar_27,102,001,4,recog,75,TIMES,HF,target,right,aqua,imageability,liberal,no,z,1,1.70610587396,3,634
2019_Mar_27,102,001,4,recog,76,NEBULOUS,LF,target,right,aqua,imageability,conservative,no,z,1,1.05334244468,1,635
2019_Mar_27,102,001,4,recog,77,ACTION,HF,lure,-,-,-,liberal,no,m,1,0.826727972744,1,636
2019_Mar_27,102,001,4,recog,78,SAPLINGS,LF,lure,-,-,-,conservative,no,m,1,2.65263878369,3,639
2019_Mar_27,102,001,4,recog,79,MUSIC,HF,lure,-,-,-,liberal,no,m,1,1.25325379967,1,640
2019_Mar_27,102,001,4,recog,80,CHIEF,HF,lure,-,-,-,liberal,no,m,1,0.826671149021,1,641
2019_Mar_27,102,001,4,recog,81,GAMBITS,LF,lure,-,-,-,liberal,no,m,1,0.986631761018,1,642
2019_Mar_27,102,001,4,recog,82,NOVAS,LF,target,right,aqua,imageability,conservative,no,z,1,0.92004388991,1,643
2019_Mar_27,102,001,4,recog,83,CENTRAL,HF,target,left,yellow,pleasantness,liberal,no,z,1,1.07995391046,3,646
2019_Mar_27,102,001,4,recog,84,AFIELD,LF,lure,-,-,-,conservative,no,m,1,0.893120443565,3,649
2019_Mar_27,102,001,4,recog,85,JAMMING,LF,target,left,yellow,pleasantness,conservative,no,z,1,0.800070314774,1,650
2019_Mar_27,102,001,4,recog,86,ITSELF,HF,target,right,aqua,imageability,conservative,no,z,1,1.13327912473,1,651
2019_Mar_27,102,001,4,recog,87,BASIC,HF,lure,-,-,-,conservative,no,m,1,1.19986186336,3,654
2019_Mar_27,102,001,4,recog,88,PRACTICE,HF,lure,-,-,-,liberal,no,z,0,1.74635723278,-1,653
2019_Mar_27,102,001,4,recog,89,AMICABLY,LF,lure,-,-,-,liberal,no,m,1,1.30627546528,1,654
2019_Mar_27,102,001,4,recog,90,SIZZLING,LF,target,right,aqua,imageability,conservative,no,z,1,0.95995320658,1,655
2019_Mar_27,102,001,4,recog,91,DUPLICITY,LF,lure,-,-,-,conservative,no,z,0,1.38666380226,-3,652
2019_Mar_27,102,001,4,recog,92,INFECT,LF,lure,-,-,-,liberal,no,m,1,1.19964226717,1,653
2019_Mar_27,102,001,4,recog,93,ALLOWED,HF,lure,-,-,-,conservative,no,z,0,0.999716247989,-3,650
2019_Mar_27,102,001,4,recog,94,CHOICE,HF,target,left,yellow,pleasantness,liberal,no,z,1,1.59972489986,3,653
2019_Mar_27,102,001,4,recog,95,MINISTER,HF,target,right,aqua,imageability,conservative,no,z,1,0.853354835919,1,654
