date,subj,session,cycle,task,trial,item,wf,type,source,colour,encoding,bias,null,response,corr,rt,points,total
2019_Apr_04,103,001,0,source,0,SYSTEM,HF,target,right,yellow,pleasantness,liberal,no,3,0,3.17246036454,-,-
2019_Apr_04,103,001,0,source,1,APPEARED,HF,target,right,yellow,pleasantness,liberal,no,8,1,1.83946711813,-,-
2019_Apr_04,103,001,0,source,2,RETURN,HF,target,left,aqua,imageability,conservative,no,2,1,2.46604654266,-,-
2019_Apr_04,103,001,0,source,3,USUAL,HF,target,right,yellow,pleasantness,liberal,no,9,1,1.94627482005,-,-
2019_Apr_04,103,001,0,source,4,MUTATIONS,LF,target,right,yellow,pleasantness,liberal,no,3,0,2.13285422992,-,-
2019_Apr_04,103,001,0,source,5,DISARMED,LF,target,left,aqua,imageability,conservative,no,7,0,1.45317028713,-,-
2019_Apr_04,103,001,0,source,6,MONEY,HF,target,right,yellow,pleasantness,conservative,no,7,1,1.31985193571,-,-
2019_Apr_04,103,001,0,source,7,FIANCE,LF,target,left,aqua,imageability,liberal,no,7,0,1.1733303174,-,-
2019_Apr_04,103,001,0,source,8,LOBBIES,LF,target,right,yellow,pleasantness,conservative,no,7,1,0.840080447727,-,-
2019_Apr_04,103,001,0,source,9,BULBOUS,LF,target,left,aqua,imageability,liberal,no,3,1,1.35960727842,-,-
2019_Apr_04,103,001,0,source,10,FIVER,LF,target,left,aqua,imageability,conservative,no,3,1,0.853369133501,-,-
2019_Apr_04,103,001,0,source,11,TIPSY,LF,target,right,yellow,pleasantness,liberal,no,3,0,0.986431961474,-,-
2019_Apr_04,103,001,0,source,12,ENERGY,HF,target,right,yellow,pleasantness,liberal,no,7,1,1.07996967446,-,-
2019_Apr_04,103,001,0,source,13,OUTSIDE,HF,target,right,yellow,pleasantness,conservative,no,3,0,1.09332801512,-,-
2019_Apr_04,103,001,0,source,14,HAGGLING,LF,target,right,yellow,pleasantness,conservative,no,3,0,0.973066288722,-,-
2019_Apr_04,103,001,0,source,15,FEELING,HF,target,right,yellow,pleasantness,liberal,no,3,0,0.956472661924,-,-
2019_Apr_04,103,001,0,source,16,AUSPICES,LF,target,right,yellow,pleasantness,liberal,no,7,1,0.960016995792,-,-
2019_Apr_04,103,001,0,source,17,CALLED,HF,target,left,aqua,imageability,liberal,no,3,1,0.72006984552,-,-
2019_Apr_04,103,001,0,source,18,TREES,HF,target,right,yellow,pleasantness,liberal,no,3,0,1.10641910098,-,-
2019_Apr_04,103,001,0,source,19,DECIDED,HF,target,left,aqua,imageability,liberal,no,3,1,0.919834192044,-,-
2019_Apr_04,103,001,0,source,20,RAKING,LF,target,left,aqua,imageability,liberal,no,3,1,0.720105772777,-,-
2019_Apr_04,103,001,0,source,21,GIRLS,HF,target,right,yellow,pleasantness,conservative,no,7,1,0.720191558268,-,-
2019_Apr_04,103,001,0,source,22,TRUTH,HF,target,right,yellow,pleasantness,conservative,no,7,1,0.946711812809,-,-
2019_Apr_04,103,001,0,source,23,DUELLING,LF,target,left,aqua,imageability,liberal,no,3,1,1.33321100958,-,-
2019_Apr_04,103,001,0,source,24,HAVING,HF,target,left,aqua,imageability,liberal,no,3,1,0.786504109272,-,-
2019_Apr_04,103,001,0,source,25,FREEDOM,HF,target,left,aqua,imageability,liberal,yes,3,1,0.826563733854,-,-
2019_Apr_04,103,001,0,source,26,ORDER,HF,target,left,aqua,imageability,liberal,no,3,1,0.933308379776,-,-
2019_Apr_04,103,001,0,source,27,USING,HF,target,left,aqua,imageability,conservative,no,2,1,1.74631580645,-,-
2019_Apr_04,103,001,0,source,28,WOODCOCK,LF,target,right,yellow,pleasantness,liberal,no,3,0,1.29326576565,-,-
2019_Apr_04,103,001,0,source,29,VOICE,HF,target,right,yellow,pleasantness,conservative,no,9,1,1.31999381171,-,-
2019_Apr_04,103,001,0,source,30,INACTION,LF,target,left,aqua,imageability,conservative,no,3,1,0.946733809088,-,-
2019_Apr_04,103,001,0,source,31,ZIGZAG,LF,target,right,yellow,pleasantness,conservative,no,9,1,1.19990658913,-,-
2019_Apr_04,103,001,0,source,32,DICHOTOMY,LF,target,left,aqua,imageability,liberal,no,1,1,1.4411353893,-,-
2019_Apr_04,103,001,0,source,33,SPLASHES,LF,target,right,yellow,pleasantness,conservative,no,3,0,0.893313277614,-,-
2019_Apr_04,103,001,0,source,34,REOPEN,LF,target,right,yellow,pleasantness,conservative,no,3,0,0.986648991434,-,-
2019_Apr_04,103,001,0,source,35,DAUGHTER,HF,target,right,yellow,pleasantness,conservative,no,9,1,0.973068121745,-,-
2019_Apr_04,103,001,0,source,36,STYLED,LF,target,left,aqua,imageability,conservative,no,1,1,1.58640468609,-,-
2019_Apr_04,103,001,0,source,37,MODERN,HF,target,left,aqua,imageability,conservative,no,2,1,1.54647117351,-,-
2019_Apr_04,103,001,0,source,38,NUANCE,LF,target,right,yellow,pleasantness,liberal,no,9,1,1.38648489919,-,-
2019_Apr_04,103,001,0,source,39,DAMASK,LF,target,left,aqua,imageability,conservative,yes,7,0,0.613467442207,-,-
2019_Apr_04,103,001,0,source,40,LEVEL,HF,target,left,aqua,imageability,conservative,yes,7,0,0.733179261614,-,-
2019_Apr_04,103,001,0,source,41,ALREADY,HF,target,left,aqua,imageability,liberal,no,3,1,0.986411431613,-,-
2019_Apr_04,103,001,0,source,42,DEMEANOUR,LF,target,right,yellow,pleasantness,liberal,no,9,1,1.13329782156,-,-
2019_Apr_04,103,001,0,source,43,MAGGOT,LF,target,left,aqua,imageability,liberal,yes,9,0,0.62652883309,-,-
2019_Apr_04,103,001,0,source,44,UNWARY,LF,target,right,yellow,pleasantness,conservative,no,3,0,0.933320844335,-,-
2019_Apr_04,103,001,0,source,45,POSITION,HF,target,left,aqua,imageability,conservative,no,3,1,0.746504974459,-,-
2019_Apr_04,103,001,0,source,46,WINDOW,HF,target,left,aqua,imageability,conservative,no,1,1,1.50645737451,-,-
2019_Apr_04,103,001,0,source,47,AFOOT,LF,target,left,aqua,imageability,conservative,no,3,1,0.959750107598,-,-
2019_Apr_04,103,001,0,recog,0,UNLESS,HF,lure,-,-,-,conservative,no,z,0,2.99918833728,-3,-3
2019_Apr_04,103,001,0,recog,1,WINDOW,HF,target,left,aqua,imageability,conservative,no,z,1,3.46566087456,1,-2
2019_Apr_04,103,001,0,recog,2,CUCKOO,LF,lure,-,-,-,conservative,no,m,1,5.95798710578,3,1
2019_Apr_04,103,001,0,recog,3,BULBOUS,LF,target,left,aqua,imageability,liberal,no,z,1,1.99941856501,3,4
2019_Apr_04,103,001,0,recog,4,ZIGZAG,LF,target,right,yellow,pleasantness,conservative,no,z,1,1.47978688538,1,5
2019_Apr_04,103,001,0,recog,5,AMALGAM,LF,lure,-,-,-,conservative,no,m,1,0.959818296065,3,8
2019_Apr_04,103,001,0,recog,6,DAUGHTER,HF,target,right,yellow,pleasantness,conservative,no,z,1,1.13326812658,1,9
2019_Apr_04,103,001,0,recog,7,TYCOONS,LF,lure,-,-,-,liberal,no,m,1,0.919989999025,1,10
2019_Apr_04,103,001,0,recog,8,PERHAPS,HF,lure,-,-,-,liberal,no,m,1,1.05325959203,1,11
2019_Apr_04,103,001,0,recog,9,HAPPEN,HF,lure,-,-,-,conservative,no,m,1,1.25351885484,3,14
2019_Apr_04,103,001,0,recog,10,TIPSY,LF,target,right,yellow,pleasantness,liberal,no,z,1,1.91958013501,3,17
2019_Apr_04,103,001,0,recog,11,HOIST,LF,lure,-,-,-,liberal,no,m,1,2.14617774314,1,18
2019_Apr_04,103,001,0,recog,12,MODERN,HF,target,left,aqua,imageability,conservative,no,z,1,1.51979005284,1,19
2019_Apr_04,103,001,0,recog,13,USUAL,HF,target,right,yellow,pleasantness,liberal,no,z,1,0.906336175008,3,22
2019_Apr_04,103,001,0,recog,14,DAPPER,LF,lure,-,-,-,liberal,no,m,1,0.853396262245,1,23
2019_Apr_04,103,001,0,recog,15,SYSTEM,HF,target,right,yellow,pleasantness,liberal,no,m,0,2.85257763404,-3,20
2019_Apr_04,103,001,0,recog,16,FIANCE,LF,target,left,aqua,imageability,liberal,no,z,1,0.920014561537,3,23
2019_Apr_04,103,001,0,recog,17,ORPHANAGE,LF,lure,-,-,-,conservative,no,m,1,1.62641445244,3,26
2019_Apr_04,103,001,0,recog,18,TRUTH,HF,target,right,yellow,pleasantness,conservative,no,z,1,0.826697177951,1,27
2019_Apr_04,103,001,0,recog,19,INACTION,LF,target,left,aqua,imageability,conservative,no,z,1,0.693511537415,1,28
2019_Apr_04,103,001,0,recog,20,WATCH,HF,lure,-,-,-,liberal,no,m,1,1.24018654312,1,29
2019_Apr_04,103,001,0,recog,21,HAGGLING,LF,target,right,yellow,pleasantness,conservative,no,z,1,0.773396892806,1,30
2019_Apr_04,103,001,0,recog,22,GARDEN,HF,lure,-,-,-,liberal,no,m,1,0.74673153614,1,31
2019_Apr_04,103,001,0,recog,23,RAPACIOUS,LF,lure,-,-,-,conservative,no,m,1,1.07994841139,3,34
2019_Apr_04,103,001,0,recog,24,LEVEL,HF,target,left,aqua,imageability,conservative,no,m,0,0.746764897164,-1,33
2019_Apr_04,103,001,0,recog,25,LOBBIES,LF,target,right,yellow,pleasantness,conservative,no,z,1,1.07997040767,1,34
2019_Apr_04,103,001,0,recog,26,TWENTY,HF,lure,-,-,-,conservative,no,m,1,0.973358106032,3,37
2019_Apr_04,103,001,0,recog,27,ANCHORAGE,LF,lure,-,-,-,conservative,no,z,0,1.95963022787,-3,34
2019_Apr_04,103,001,0,recog,28,ENERGY,HF,target,right,yellow,pleasantness,liberal,no,z,1,0.693438949692,3,37
2019_Apr_04,103,001,0,recog,29,SOCIAL,HF,lure,-,-,-,conservative,no,m,1,2.97252114759,3,40
2019_Apr_04,103,001,0,recog,30,OUTSIDE,HF,target,right,yellow,pleasantness,conservative,yes,m,0,1.38625870411,-1,39
2019_Apr_04,103,001,0,recog,31,VOICE,HF,target,right,yellow,pleasantness,conservative,no,z,1,4.10515981397,1,40
2019_Apr_04,103,001,0,recog,32,NORTH,HF,lure,-,-,-,conservative,no,m,1,3.55891593535,3,43
2019_Apr_04,103,001,0,recog,33,HAVING,HF,target,left,aqua,imageability,liberal,yes,z,1,1.18667179424,3,46
2019_Apr_04,103,001,0,recog,34,BABBLED,LF,lure,-,-,-,liberal,no,m,1,2.89253754215,1,47
2019_Apr_04,103,001,0,recog,35,TERMS,HF,lure,-,-,-,conservative,no,m,1,2.75926281668,3,50
2019_Apr_04,103,001,0,recog,36,DECIDED,HF,target,left,aqua,imageability,liberal,no,z,1,1.21298044457,3,53
2019_Apr_04,103,001,0,recog,37,GIRLS,HF,target,right,yellow,pleasantness,conservative,no,z,1,1.26650325875,1,54
2019_Apr_04,103,001,0,recog,38,RAIDER,LF,lure,-,-,-,conservative,no,m,1,1.87960372969,3,57
2019_Apr_04,103,001,0,recog,39,APPEARED,HF,target,right,yellow,pleasantness,liberal,yes,z,1,0.893376700221,3,60
2019_Apr_04,103,001,0,recog,40,MAGGOT,LF,target,left,aqua,imageability,liberal,no,z,1,1.3598257748,3,63
2019_Apr_04,103,001,0,recog,41,TREES,HF,target,right,yellow,pleasantness,liberal,no,z,1,0.746767096792,3,66
2019_Apr_04,103,001,0,recog,42,THEORY,HF,lure,-,-,-,conservative,no,m,1,0.747998888455,3,69
2019_Apr_04,103,001,0,recog,43,INTEREST,HF,lure,-,-,-,liberal,no,m,1,1.01327365498,1,70
2019_Apr_04,103,001,0,recog,44,RICKETS,LF,lure,-,-,-,liberal,no,z,0,0.999980569953,-1,69
2019_Apr_04,103,001,0,recog,45,RAKING,LF,target,left,aqua,imageability,liberal,no,z,1,0.653492239346,3,72
2019_Apr_04,103,001,0,recog,46,MUTATIONS,LF,target,right,yellow,pleasantness,liberal,no,m,0,1.15989535637,-3,69
2019_Apr_04,103,001,0,recog,47,FEELING,HF,target,right,yellow,pleasantness,liberal,no,z,1,1.59950896972,3,72
2019_Apr_04,103,001,0,recog,48,TALKING,HF,lure,-,-,-,liberal,no,z,0,2.97260803289,-1,71
2019_Apr_04,103,001,0,recog,49,REOPEN,LF,target,right,yellow,pleasantness,conservative,no,z,1,2.50616335757,1,72
2019_Apr_04,103,001,0,recog,50,DICHOTOMY,LF,target,left,aqua,imageability,liberal,no,z,1,0.960016262583,3,75
2019_Apr_04,103,001,0,recog,51,MATERIAL,HF,lure,-,-,-,liberal,no,m,1,0.840117474798,1,76
2019_Apr_04,103,001,0,recog,52,GANGWAY,LF,lure,-,-,-,conservative,no,m,1,1.46624267616,3,79
2019_Apr_04,103,001,0,recog,53,HIPPY,LF,lure,-,-,-,conservative,no,m,1,1.42647486888,3,82
2019_Apr_04,103,001,0,recog,54,AFOOT,LF,target,left,aqua,imageability,conservative,no,z,1,1.11971291922,1,83
2019_Apr_04,103,001,0,recog,55,SMEARING,LF,lure,-,-,-,liberal,no,m,1,2.21276964689,1,84
2019_Apr_04,103,001,0,recog,56,FIVER,LF,target,left,aqua,imageability,conservative,no,z,1,0.946673685924,1,85
2019_Apr_04,103,001,0,recog,57,PIZZA,LF,lure,-,-,-,conservative,no,m,1,0.853550236203,3,88
2019_Apr_04,103,001,0,recog,58,HOBBLE,LF,lure,-,-,-,liberal,no,m,1,1.77292837205,1,89
2019_Apr_04,103,001,0,recog,59,TELEPHONE,HF,lure,-,-,-,conservative,no,m,1,0.746838951305,3,92
2019_Apr_04,103,001,0,recog,60,OBVIOUSLY,HF,lure,-,-,-,liberal,no,m,1,0.746722737628,1,93
2019_Apr_04,103,001,0,recog,61,BEAUTIFUL,HF,lure,-,-,-,liberal,no,m,1,0.626906802496,1,94
2019_Apr_04,103,001,0,recog,62,DEMEANOUR,LF,target,right,yellow,pleasantness,liberal,no,z,1,0.640104570314,3,97
2019_Apr_04,103,001,0,recog,63,SKETCHY,LF,lure,-,-,-,liberal,no,m,1,2.15954634873,1,98
2019_Apr_04,103,001,0,recog,64,KIPPERS,LF,lure,-,-,-,liberal,no,m,1,0.813390161944,1,99
2019_Apr_04,103,001,0,recog,65,USING,HF,target,left,aqua,imageability,conservative,no,z,1,0.653462910973,1,100
2019_Apr_04,103,001,0,recog,66,PUTTS,LF,lure,-,-,-,conservative,no,m,1,1.26653038749,3,103
2019_Apr_04,103,001,0,recog,67,UNWARY,LF,target,right,yellow,pleasantness,conservative,no,m,0,1.14660080492,-1,102
2019_Apr_04,103,001,0,recog,68,EXACTLY,HF,lure,-,-,-,conservative,no,z,0,1.85273087478,-3,99
2019_Apr_04,103,001,0,recog,69,DUELLING,LF,target,left,aqua,imageability,liberal,no,z,1,1.15965852975,3,102
2019_Apr_04,103,001,0,recog,70,DAMASK,LF,target,left,aqua,imageability,conservative,no,z,1,1.34653745563,1,103
2019_Apr_04,103,001,0,recog,71,SUFFERER,LF,lure,-,-,-,liberal,no,m,1,1.31987539841,1,104
2019_Apr_04,103,001,0,recog,72,TAKEN,HF,lure,-,-,-,conservative,no,m,1,1.15998517451,3,107
2019_Apr_04,103,001,0,recog,73,CALLED,HF,target,left,aqua,imageability,liberal,no,z,1,1.87962169332,3,110
2019_Apr_04,103,001,0,recog,74,LIVED,HF,lure,-,-,-,liberal,no,m,1,1.10655584452,1,111
2019_Apr_04,103,001,0,recog,75,SOMEONE,HF,lure,-,-,-,liberal,no,m,1,1.10659177178,1,112
2019_Apr_04,103,001,0,recog,76,DISARMED,LF,target,left,aqua,imageability,conservative,no,z,1,1.39994478934,1,113
2019_Apr_04,103,001,0,recog,77,NUANCE,LF,target,right,yellow,pleasantness,liberal,no,z,1,0.786876579608,3,116
2019_Apr_04,103,001,0,recog,78,EMBATTLED,LF,lure,-,-,-,conservative,no,m,1,0.800034020913,3,119
2019_Apr_04,103,001,0,recog,79,ORDER,HF,target,left,aqua,imageability,liberal,no,z,1,1.38648416598,3,122
2019_Apr_04,103,001,0,recog,80,WOODCOCK,LF,target,right,yellow,pleasantness,liberal,no,z,1,1.03995440904,3,125
2019_Apr_04,103,001,0,recog,81,AUSPICES,LF,target,right,yellow,pleasantness,liberal,no,z,1,0.560187686923,3,128
2019_Apr_04,103,001,0,recog,82,ALREADY,HF,target,left,aqua,imageability,liberal,no,z,1,0.866683848205,3,131
2019_Apr_04,103,001,0,recog,83,FREEDOM,HF,target,left,aqua,imageability,liberal,no,z,1,0.653476475346,3,134
2019_Apr_04,103,001,0,recog,84,STYLED,LF,target,left,aqua,imageability,conservative,no,z,1,0.666791556655,1,135
2019_Apr_04,103,001,0,recog,85,JADED,LF,lure,-,-,-,liberal,no,m,1,1.49310416632,1,136
2019_Apr_04,103,001,0,recog,86,UNION,HF,lure,-,-,-,liberal,no,m,1,0.893320609708,1,137
2019_Apr_04,103,001,0,recog,87,PAMPERED,LF,lure,-,-,-,liberal,no,m,1,1.42647010302,1,138
2019_Apr_04,103,001,0,recog,88,POSITION,HF,target,left,aqua,imageability,conservative,no,m,0,1.01336603936,-1,137
2019_Apr_04,103,001,0,recog,89,MONEY,HF,target,right,yellow,pleasantness,conservative,no,z,1,0.786538936714,1,138
2019_Apr_04,103,001,0,recog,90,FURTHER,HF,lure,-,-,-,conservative,no,z,0,1.11993398183,-3,135
2019_Apr_04,103,001,0,recog,91,SPLASHES,LF,target,right,yellow,pleasantness,conservative,yes,m,0,0.853429989874,-1,134
2019_Apr_04,103,001,0,recog,92,MOMENT,HF,lure,-,-,-,conservative,no,m,1,1.57275892737,3,137
2019_Apr_04,103,001,0,recog,93,RETURN,HF,target,left,aqua,imageability,conservative,no,z,1,0.960013329745,1,138
2019_Apr_04,103,001,0,recog,94,AREAS,HF,lure,-,-,-,liberal,no,m,1,0.826711475532,1,139
2019_Apr_04,103,001,0,recog,95,JOCKEYS,LF,lure,-,-,-,conservative,no,m,1,0.906576667666,3,142
2019_Apr_04,103,001,1,source,0,VOUCH,LF,target,left,aqua,imageability,conservative,no,3,1,1.78640659243,-,-
2019_Apr_04,103,001,1,source,1,LUCERNE,LF,target,left,aqua,imageability,liberal,no,7,0,1.19970458996,-,-
2019_Apr_04,103,001,1,source,2,BEECHES,LF,target,right,yellow,pleasantness,conservative,no,3,0,0.519913965218,-,-
2019_Apr_04,103,001,1,source,3,OMITTING,LF,target,left,aqua,imageability,liberal,no,7,0,0.240273061816,-,-
2019_Apr_04,103,001,1,source,4,SIMILAR,HF,target,left,aqua,imageability,liberal,no,3,1,0.573470507022,-,-
2019_Apr_04,103,001,1,source,5,ENDEARING,LF,target,right,yellow,pleasantness,conservative,no,7,1,1.2129665136,-,-
2019_Apr_04,103,001,1,source,6,GLIDED,LF,target,left,aqua,imageability,conservative,no,7,0,0.333450769027,-,-
2019_Apr_04,103,001,1,source,7,SORRY,HF,target,left,aqua,imageability,conservative,no,7,0,0.880008094631,-,-
2019_Apr_04,103,001,1,source,8,IRONICAL,LF,target,left,aqua,imageability,liberal,no,3,1,0.800103309194,-,-
2019_Apr_04,103,001,1,source,9,ANIMAL,HF,target,left,aqua,imageability,liberal,no,3,1,0.640111535802,-,-
2019_Apr_04,103,001,1,source,10,MASKING,LF,target,right,yellow,pleasantness,liberal,yes,3,0,0.813151135705,-,-
2019_Apr_04,103,001,1,source,11,EXECUTING,LF,target,left,aqua,imageability,conservative,no,7,0,0.880015793329,-,-
2019_Apr_04,103,001,1,source,12,UPROOTED,LF,target,left,aqua,imageability,conservative,no,3,1,0.653413785948,-,-
2019_Apr_04,103,001,1,source,13,CRICKETER,LF,target,right,yellow,pleasantness,liberal,no,7,1,0.720095874451,-,-
2019_Apr_04,103,001,1,source,14,JAILS,LF,target,left,aqua,imageability,conservative,no,3,1,0.826710742323,-,-
2019_Apr_04,103,001,1,source,15,GENERAL,HF,target,left,aqua,imageability,conservative,no,3,1,2.01289861841,-,-
2019_Apr_04,103,001,1,source,16,PAPER,HF,target,left,aqua,imageability,liberal,no,3,1,0.786709774487,-,-
2019_Apr_04,103,001,1,source,17,DEVELOPED,HF,target,right,yellow,pleasantness,liberal,no,7,1,0.959999765373,-,-
2019_Apr_04,103,001,1,source,18,SUMMER,HF,target,right,yellow,pleasantness,conservative,no,3,0,0.626766392911,-,-
2019_Apr_04,103,001,1,source,19,RUDIMENTS,LF,target,right,yellow,pleasantness,conservative,no,2,0,0.760064947682,-,-
2019_Apr_04,103,001,1,source,20,LOLLED,LF,target,left,aqua,imageability,liberal,no,3,1,1.02641936494,-,-
2019_Apr_04,103,001,1,source,21,NEURAL,LF,target,right,yellow,pleasantness,liberal,no,3,0,0.919983400141,-,-
2019_Apr_04,103,001,1,source,22,BUTCHERED,LF,target,right,yellow,pleasantness,liberal,no,8,1,0.933305446939,-,-
2019_Apr_04,103,001,1,source,23,WITHIN,HF,target,right,yellow,pleasantness,liberal,no,9,1,1.4131535553,-,-
2019_Apr_04,103,001,1,source,24,RANGE,HF,target,left,aqua,imageability,conservative,no,8,0,0.906640823482,-,-
2019_Apr_04,103,001,1,source,25,HERSELF,HF,target,left,aqua,imageability,conservative,no,2,1,0.933417627965,-,-
2019_Apr_04,103,001,1,source,26,THANK,HF,target,right,yellow,pleasantness,liberal,no,3,0,0.413543256051,-,-
2019_Apr_04,103,001,1,source,27,ASTERN,LF,target,right,yellow,pleasantness,liberal,no,7,1,0.600109834757,-,-
2019_Apr_04,103,001,1,source,28,PREPARED,HF,target,right,yellow,pleasantness,conservative,no,8,1,0.600114234013,-,-
2019_Apr_04,103,001,1,source,29,BUSINESS,HF,target,left,aqua,imageability,liberal,no,2,1,0.346671632938,-,-
2019_Apr_04,103,001,1,source,30,ATHEIST,LF,target,right,yellow,pleasantness,conservative,no,3,0,0.400335956512,-,-
2019_Apr_04,103,001,1,source,31,CONCERNED,HF,target,right,yellow,pleasantness,liberal,no,8,1,0.55994609445,-,-
2019_Apr_04,103,001,1,source,32,AHEAD,HF,target,right,yellow,pleasantness,liberal,no,7,1,0.480179518971,-,-
2019_Apr_04,103,001,1,source,33,WHATEVER,HF,target,left,aqua,imageability,conservative,no,8,0,0.480179885575,-,-
2019_Apr_04,103,001,1,source,34,EFFECT,HF,target,right,yellow,pleasantness,conservative,no,8,1,0.440235374857,-,-
2019_Apr_04,103,001,1,source,35,POLICE,HF,target,left,aqua,imageability,liberal,no,8,0,0.346632039634,-,-
2019_Apr_04,103,001,1,source,36,SERIOUS,HF,target,right,yellow,pleasantness,conservative,no,8,1,0.320247135535,-,-
2019_Apr_04,103,001,1,source,37,MIXER,LF,target,left,aqua,imageability,liberal,yes,7,0,0.253734051781,-,-
2019_Apr_04,103,001,1,source,38,COOING,LF,target,right,yellow,pleasantness,conservative,no,7,1,0.933323777172,-,-
2019_Apr_04,103,001,1,source,39,DITTO,LF,target,right,yellow,pleasantness,liberal,no,3,0,0.520139427085,-,-
2019_Apr_04,103,001,1,source,40,REUNITED,LF,target,right,yellow,pleasantness,conservative,no,3,0,0.333574681402,-,-
2019_Apr_04,103,001,1,source,41,RESEARCH,HF,target,right,yellow,pleasantness,conservative,yes,3,0,0.786728837929,-,-
2019_Apr_04,103,001,1,source,42,FAMILY,HF,target,right,yellow,pleasantness,conservative,no,8,1,0.181516232888,-,-
2019_Apr_04,103,001,1,source,43,SWIFTNESS,LF,target,left,aqua,imageability,conservative,no,7,0,3.21243053758,-,-
2019_Apr_04,103,001,1,source,44,TROUBLE,HF,target,left,aqua,imageability,liberal,yes,3,1,0.666782758143,-,-
2019_Apr_04,103,001,1,source,45,WAITING,HF,target,right,yellow,pleasantness,liberal,no,3,0,2.34607186771,-,-
2019_Apr_04,103,001,1,source,46,TWAIN,LF,target,left,aqua,imageability,liberal,no,7,0,0.800033287703,-,-
2019_Apr_04,103,001,1,source,47,MOUTH,HF,target,left,aqua,imageability,conservative,no,3,1,1.77298446256,-,-
2019_Apr_04,103,001,1,recog,0,KNOWLEDGE,HF,lure,-,-,-,conservative,no,m,1,2.21281803871,3,145
2019_Apr_04,103,001,1,recog,1,SEVEN,HF,lure,-,-,-,liberal,no,m,1,2.37275372159,1,146
2019_Apr_04,103,001,1,recog,2,TROUBLE,HF,target,left,aqua,imageability,liberal,no,m,0,2.37276691935,-3,143
2019_Apr_04,103,001,1,recog,3,MOUTH,HF,target,left,aqua,imageability,conservative,no,m,0,1.43982881029,-1,142
2019_Apr_04,103,001,1,recog,4,PREPARED,HF,target,right,yellow,pleasantness,conservative,no,z,1,0.920084949632,1,143
2019_Apr_04,103,001,1,recog,5,ENDEARING,LF,target,right,yellow,pleasantness,conservative,no,z,1,0.800071781193,1,144
2019_Apr_04,103,001,1,recog,6,ICILY,LF,lure,-,-,-,conservative,no,z,0,0.653563727255,-3,141
2019_Apr_04,103,001,1,recog,7,ASKED,HF,lure,-,-,-,liberal,no,m,1,0.826711108928,1,142
2019_Apr_04,103,001,1,recog,8,WITHIN,HF,target,right,yellow,pleasantness,liberal,no,z,1,1.49314815887,3,145
2019_Apr_04,103,001,1,recog,9,DEVELOPED,HF,target,right,yellow,pleasantness,liberal,no,z,1,0.733436618087,3,148
2019_Apr_04,103,001,1,recog,10,BUTCHERED,LF,target,right,yellow,pleasantness,liberal,no,z,1,0.80015023459,3,151
2019_Apr_04,103,001,1,recog,11,LUCERNE,LF,target,left,aqua,imageability,liberal,no,z,1,0.98666438883,3,154
2019_Apr_04,103,001,1,recog,12,STAFF,HF,lure,-,-,-,conservative,no,m,1,1.1598663946,3,157
2019_Apr_04,103,001,1,recog,13,EARLIER,HF,lure,-,-,-,conservative,no,m,1,0.800112840915,3,160
2019_Apr_04,103,001,1,recog,14,HERSELF,HF,target,left,aqua,imageability,conservative,no,z,1,0.773384061642,1,161
2019_Apr_04,103,001,1,recog,15,POLICE,HF,target,left,aqua,imageability,liberal,no,z,1,0.693478542996,3,164
2019_Apr_04,103,001,1,recog,16,ASTERN,LF,target,right,yellow,pleasantness,liberal,no,z,1,0.826771598697,3,167
2019_Apr_04,103,001,1,recog,17,BUSINESS,HF,target,left,aqua,imageability,liberal,no,m,0,0.773388094294,-3,164
2019_Apr_04,103,001,1,recog,18,OBTAINS,LF,lure,-,-,-,liberal,no,z,0,1.03997787174,-1,163
2019_Apr_04,103,001,1,recog,19,TIMES,HF,lure,-,-,-,liberal,no,m,1,1.19989229155,1,164
2019_Apr_04,103,001,1,recog,20,THING,HF,lure,-,-,-,conservative,no,m,1,1.02636180801,3,167
2019_Apr_04,103,001,1,recog,21,AHEAD,HF,target,right,yellow,pleasantness,liberal,no,z,1,0.973394766499,3,170
2019_Apr_04,103,001,1,recog,22,GUILDHALL,LF,lure,-,-,-,liberal,no,m,1,0.866702911648,1,171
2019_Apr_04,103,001,1,recog,23,SIMILAR,HF,target,left,aqua,imageability,liberal,no,m,0,1.55976279212,-3,168
2019_Apr_04,103,001,1,recog,24,MASKING,LF,target,right,yellow,pleasantness,liberal,no,z,1,1.12002893244,3,171
2019_Apr_04,103,001,1,recog,25,TADPOLES,LF,lure,-,-,-,conservative,no,z,0,1.34649859554,-3,168
2019_Apr_04,103,001,1,recog,26,JOURNEYED,LF,lure,-,-,-,liberal,no,z,0,1.18659554047,-1,167
2019_Apr_04,103,001,1,recog,27,RANGE,HF,target,left,aqua,imageability,conservative,yes,m,0,0.653447880182,-1,166
2019_Apr_04,103,001,1,recog,28,BASIC,HF,lure,-,-,-,liberal,no,m,1,4.17187269726,1,167
2019_Apr_04,103,001,1,recog,29,BREAK,HF,lure,-,-,-,liberal,no,m,1,1.87940356354,1,168
2019_Apr_04,103,001,1,recog,30,MEMBERS,HF,lure,-,-,-,liberal,yes,z,0,1.91960909678,-1,167
2019_Apr_04,103,001,1,recog,31,UPROOTED,LF,target,left,aqua,imageability,conservative,no,None,-1,-1,-1,166
2019_Apr_04,103,001,1,recog,32,OMITTING,LF,target,left,aqua,imageability,liberal,no,z,1,2.14618397542,3,169
2019_Apr_04,103,001,1,recog,33,EFFECT,HF,target,right,yellow,pleasantness,conservative,no,z,1,0.773365731409,1,170
2019_Apr_04,103,001,1,recog,34,SERIOUS,HF,target,right,yellow,pleasantness,conservative,no,z,1,1.70637716141,1,171
2019_Apr_04,103,001,1,recog,35,AMONG,HF,lure,-,-,-,conservative,no,m,1,0.906688115483,3,174
2019_Apr_04,103,001,1,recog,36,DITTO,LF,target,right,yellow,pleasantness,liberal,no,z,1,0.719854648584,3,177
2019_Apr_04,103,001,1,recog,37,PAPER,HF,target,left,aqua,imageability,liberal,no,z,1,0.733487942739,3,180
2019_Apr_04,103,001,1,recog,38,BENIGNLY,LF,lure,-,-,-,liberal,no,m,1,1.18656694531,1,181
2019_Apr_04,103,001,1,recog,39,ADOPTIVE,LF,lure,-,-,-,conservative,no,m,1,0.986412898032,3,184
2019_Apr_04,103,001,1,recog,40,CRICKETER,LF,target,right,yellow,pleasantness,liberal,no,z,1,0.653437248647,3,187
2019_Apr_04,103,001,1,recog,41,MACARONI,LF,lure,-,-,-,conservative,no,m,1,0.786508508528,3,190
2019_Apr_04,103,001,1,recog,42,OMELETTE,LF,lure,-,-,-,liberal,no,m,1,0.933324510381,1,191
2019_Apr_04,103,001,1,recog,43,ATHEIST,LF,target,right,yellow,pleasantness,conservative,no,z,1,0.880187730915,1,192
2019_Apr_04,103,001,1,recog,44,CAGED,LF,lure,-,-,-,conservative,no,z,0,0.906674184506,-3,189
2019_Apr_04,103,001,1,recog,45,HUNDRED,HF,lure,-,-,-,liberal,no,m,1,2.10618814005,1,190
2019_Apr_04,103,001,1,recog,46,REQUIRED,HF,lure,-,-,-,conservative,no,m,1,1.49311663087,3,193
2019_Apr_04,103,001,1,recog,47,SORRY,HF,target,left,aqua,imageability,conservative,no,z,1,1.02659936783,1,194
2019_Apr_04,103,001,1,recog,48,ECONOMIC,HF,lure,-,-,-,liberal,no,z,0,0.706742666257,-1,193
2019_Apr_04,103,001,1,recog,49,CORNER,HF,lure,-,-,-,conservative,no,m,1,0.906726975577,3,196
2019_Apr_04,103,001,1,recog,50,SUMMER,HF,target,right,yellow,pleasantness,conservative,no,z,1,1.01330591619,1,197
2019_Apr_04,103,001,1,recog,51,UNRAVEL,LF,lure,-,-,-,conservative,yes,z,0,1.45312922741,-3,194
2019_Apr_04,103,001,1,recog,52,HAUNCHES,LF,lure,-,-,-,liberal,no,m,1,3.57231826857,1,195
2019_Apr_04,103,001,1,recog,53,EXECUTING,LF,target,left,aqua,imageability,conservative,no,z,1,1.51981571517,1,196
2019_Apr_04,103,001,1,recog,54,RUDIMENTS,LF,target,right,yellow,pleasantness,conservative,no,m,0,1.70615206615,-1,195
2019_Apr_04,103,001,1,recog,55,NEURAL,LF,target,right,yellow,pleasantness,liberal,no,m,0,0.93332524359,-3,192
2019_Apr_04,103,001,1,recog,56,LOLLED,LF,target,left,aqua,imageability,liberal,no,z,1,0.826494812178,3,195
2019_Apr_04,103,001,1,recog,57,LATER,HF,lure,-,-,-,conservative,no,z,0,2.06621576737,-3,192
2019_Apr_04,103,001,1,recog,58,RIMMED,LF,lure,-,-,-,conservative,no,m,1,1.05326765733,3,195
2019_Apr_04,103,001,1,recog,59,ULCER,LF,lure,-,-,-,conservative,no,m,1,1.06638660515,3,198
2019_Apr_04,103,001,1,recog,60,JAILS,LF,target,left,aqua,imageability,conservative,no,z,1,0.866706211089,1,199
2019_Apr_04,103,001,1,recog,61,ANYONE,HF,lure,-,-,-,conservative,no,z,0,1.82634340445,-3,196
2019_Apr_04,103,001,1,recog,62,VOUCH,LF,target,left,aqua,imageability,conservative,no,z,1,0.733417554644,1,197
2019_Apr_04,103,001,1,recog,63,THANK,HF,target,right,yellow,pleasantness,liberal,no,m,0,1.0666113338,-3,194
2019_Apr_04,103,001,1,recog,64,REUNITED,LF,target,right,yellow,pleasantness,conservative,no,z,1,0.760082178101,1,195
2019_Apr_04,103,001,1,recog,65,HANDS,HF,lure,-,-,-,liberal,no,m,1,1.21320553984,1,196
2019_Apr_04,103,001,1,recog,66,FAMILY,HF,target,right,yellow,pleasantness,conservative,no,z,1,1.22633071993,1,197
2019_Apr_04,103,001,1,recog,67,BEECHES,LF,target,right,yellow,pleasantness,conservative,no,m,0,1.53316599053,-1,196
2019_Apr_04,103,001,1,recog,68,ANOINTED,LF,lure,-,-,-,liberal,no,m,1,1.50623301246,1,197
2019_Apr_04,103,001,1,recog,69,REREAD,LF,lure,-,-,-,conservative,no,m,1,0.893333440871,3,200
2019_Apr_04,103,001,1,recog,70,SNIGGERED,LF,lure,-,-,-,conservative,no,m,1,1.45317028713,3,203
2019_Apr_04,103,001,1,recog,71,BEGAN,HF,lure,-,-,-,conservative,no,z,0,1.58617555817,-3,200
2019_Apr_04,103,001,1,recog,72,HYACINTHS,LF,lure,-,-,-,liberal,no,m,1,0.91974034125,1,201
2019_Apr_04,103,001,1,recog,73,CONCERNED,HF,target,right,yellow,pleasantness,liberal,no,m,0,0.893391364407,-3,198
2019_Apr_04,103,001,1,recog,74,SENSE,HF,lure,-,-,-,conservative,no,m,1,1.33319084632,3,201
2019_Apr_04,103,001,1,recog,75,GENERAL,HF,target,left,aqua,imageability,conservative,no,m,0,1.33316738362,-1,200
2019_Apr_04,103,001,1,recog,76,MUSIC,HF,lure,-,-,-,liberal,no,m,1,0.720085976125,1,201
2019_Apr_04,103,001,1,recog,77,TWAIN,LF,target,left,aqua,imageability,liberal,no,z,1,0.600127065176,3,204
2019_Apr_04,103,001,1,recog,78,GLIDED,LF,target,left,aqua,imageability,conservative,no,z,1,0.800118706589,1,205
2019_Apr_04,103,001,1,recog,79,EVENING,HF,lure,-,-,-,liberal,no,z,0,0.613481373184,-1,204
2019_Apr_04,103,001,1,recog,80,MIXER,LF,target,left,aqua,imageability,liberal,no,z,1,1.0000942174,3,207
2019_Apr_04,103,001,1,recog,81,CLEAR,HF,lure,-,-,-,liberal,no,m,1,0.840124073682,1,208
2019_Apr_04,103,001,1,recog,82,COOING,LF,target,right,yellow,pleasantness,conservative,no,z,1,0.760086943962,1,209
2019_Apr_04,103,001,1,recog,83,BOLDNESS,LF,lure,-,-,-,conservative,no,m,1,1.05331055008,3,212
2019_Apr_04,103,001,1,recog,84,WAITING,HF,target,right,yellow,pleasantness,liberal,no,z,1,1.33317141627,3,215
2019_Apr_04,103,001,1,recog,85,ANIMAL,HF,target,left,aqua,imageability,liberal,no,z,1,0.63991320268,3,218
2019_Apr_04,103,001,1,recog,86,SWIFTNESS,LF,target,left,aqua,imageability,conservative,no,z,1,0.547164422924,1,219
2019_Apr_04,103,001,1,recog,87,GYPSIES,LF,lure,-,-,-,conservative,no,z,0,0.813158101193,-3,216
2019_Apr_04,103,001,1,recog,88,TWOFOLD,LF,lure,-,-,-,liberal,no,z,0,0.973322178775,-1,215
2019_Apr_04,103,001,1,recog,89,TATTERS,LF,lure,-,-,-,liberal,no,z,0,0.813397127432,-1,214
2019_Apr_04,103,001,1,recog,90,RESEARCH,HF,target,right,yellow,pleasantness,conservative,no,z,1,1.25318891065,1,215
2019_Apr_04,103,001,1,recog,91,RABBIS,LF,lure,-,-,-,liberal,no,m,1,2.01292501395,1,216
2019_Apr_04,103,001,1,recog,92,TOWARDS,HF,lure,-,-,-,conservative,no,m,1,1.8129777317,3,219
2019_Apr_04,103,001,1,recog,93,IRONICAL,LF,target,left,aqua,imageability,liberal,no,z,1,0.879785565601,3,222
2019_Apr_04,103,001,1,recog,94,UMBILICAL,LF,lure,-,-,-,liberal,yes,z,0,1.27985573373,-1,221
2019_Apr_04,103,001,1,recog,95,WHATEVER,HF,target,left,aqua,imageability,conservative,no,m,0,4.10536804542,-1,220
2019_Apr_04,103,001,2,source,0,SOUND,HF,target,left,aqua,imageability,liberal,no,3,1,1.5461481948,-,-
2019_Apr_04,103,001,2,source,1,NEITHER,HF,target,right,yellow,pleasantness,liberal,no,7,1,0.56015762534,-,-
2019_Apr_04,103,001,2,source,2,PASSED,HF,target,left,aqua,imageability,liberal,no,8,0,0.879772734438,-,-
2019_Apr_04,103,001,2,source,3,CANNOT,HF,target,right,yellow,pleasantness,conservative,no,3,0,1.18657757685,-,-
2019_Apr_04,103,001,2,source,4,EAVES,LF,target,right,yellow,pleasantness,liberal,no,8,1,0.879775300671,-,-
2019_Apr_04,103,001,2,source,5,TAUNTED,LF,target,left,aqua,imageability,conservative,no,3,1,0.813414724456,-,-
2019_Apr_04,103,001,2,source,6,SUCCESS,HF,target,left,aqua,imageability,conservative,no,8,0,0.866466451641,-,-
2019_Apr_04,103,001,2,source,7,VALUE,HF,target,left,aqua,imageability,liberal,no,3,1,0.999754741481,-,-
2019_Apr_04,103,001,2,source,8,LONGER,HF,target,left,aqua,imageability,liberal,no,8,0,0.773426587783,-,-
2019_Apr_04,103,001,2,source,9,SHORT,HF,target,right,yellow,pleasantness,liberal,no,8,1,0.946652789458,-,-
2019_Apr_04,103,001,2,source,10,HARDLY,HF,target,right,yellow,pleasantness,conservative,yes,7,1,1.00006232279,-,-
2019_Apr_04,103,001,2,source,11,REEDY,LF,target,right,yellow,pleasantness,conservative,yes,3,0,1.21323633463,-,-
2019_Apr_04,103,001,2,source,12,CHIEF,HF,target,left,aqua,imageability,conservative,no,2,1,0.813151868914,-,-
2019_Apr_04,103,001,2,source,13,CAIRN,LF,target,right,yellow,pleasantness,conservative,no,8,1,0.83999026298,-,-
2019_Apr_04,103,001,2,source,14,LETTER,HF,target,right,yellow,pleasantness,liberal,no,2,0,1.78614923596,-,-
2019_Apr_04,103,001,2,source,15,AFRAID,HF,target,left,aqua,imageability,conservative,no,2,1,0.560192452783,-,-
2019_Apr_04,103,001,2,source,16,BAPTIZED,LF,target,right,yellow,pleasantness,liberal,no,3,0,1.34627973255,-,-
2019_Apr_04,103,001,2,source,17,BOMBARDED,LF,target,left,aqua,imageability,liberal,no,7,0,0.759875046467,-,-
2019_Apr_04,103,001,2,source,18,AGONIZED,LF,target,left,aqua,imageability,liberal,no,8,0,0.72008634273,-,-
2019_Apr_04,103,001,2,source,19,PRIVATE,HF,target,left,aqua,imageability,liberal,no,7,0,0.920007962653,-,-
2019_Apr_04,103,001,2,source,20,TYRANTS,LF,target,right,yellow,pleasantness,liberal,no,3,0,0.920138473913,-,-
2019_Apr_04,103,001,2,source,21,MYRIADS,LF,target,left,aqua,imageability,liberal,no,7,0,0.986806631438,-,-
2019_Apr_04,103,001,2,source,22,PAWNS,LF,target,right,yellow,pleasantness,liberal,yes,3,0,0.933324876986,-,-
2019_Apr_04,103,001,2,source,23,PIECE,HF,target,right,yellow,pleasantness,liberal,no,7,1,1.02642486401,-,-
2019_Apr_04,103,001,2,source,24,SCHOOL,HF,target,left,aqua,imageability,liberal,no,3,1,1.1065697755,-,-
2019_Apr_04,103,001,2,source,25,FATHER,HF,target,right,yellow,pleasantness,conservative,no,7,1,0.853352269686,-,-
2019_Apr_04,103,001,2,source,26,WHETHER,HF,target,left,aqua,imageability,conservative,yes,3,1,1.06660180208,-,-
2019_Apr_04,103,001,2,source,27,TEMERITY,LF,target,left,aqua,imageability,conservative,no,8,0,0.973318512729,-,-
2019_Apr_04,103,001,2,source,28,ACIDITY,LF,target,right,yellow,pleasantness,conservative,no,2,0,0.626825782866,-,-
2019_Apr_04,103,001,2,source,29,EQUALLED,LF,target,right,yellow,pleasantness,conservative,no,7,1,0.533545792955,-,-
2019_Apr_04,103,001,2,source,30,NERVY,LF,target,right,yellow,pleasantness,conservative,no,3,0,0.773178029822,-,-
2019_Apr_04,103,001,2,source,31,AGILITY,LF,target,left,aqua,imageability,conservative,no,2,1,0.706755130816,-,-
2019_Apr_04,103,001,2,source,32,ZENITH,LF,target,left,aqua,imageability,conservative,no,1,1,1.2129907095,-,-
2019_Apr_04,103,001,2,source,33,MISFITS,LF,target,right,yellow,pleasantness,liberal,no,7,1,1.07970681892,-,-
2019_Apr_04,103,001,2,source,34,RASCAL,LF,target,left,aqua,imageability,conservative,no,3,1,0.880022758817,-,-
2019_Apr_04,103,001,2,source,35,SPACE,HF,target,right,yellow,pleasantness,liberal,no,3,0,0.986675753574,-,-
2019_Apr_04,103,001,2,source,36,VECTORS,LF,target,left,aqua,imageability,conservative,no,2,1,0.760079611868,-,-
2019_Apr_04,103,001,2,source,37,AILMENT,LF,target,left,aqua,imageability,liberal,no,1,1,1.31984167078,-,-
2019_Apr_04,103,001,2,source,38,SADDER,LF,target,right,yellow,pleasantness,liberal,no,3,0,0.853316709034,-,-
2019_Apr_04,103,001,2,source,39,BEDLAM,LF,target,right,yellow,pleasantness,conservative,no,3,0,0.586813450285,-,-
2019_Apr_04,103,001,2,source,40,CASES,HF,target,right,yellow,pleasantness,conservative,no,3,0,0.680098572661,-,-
2019_Apr_04,103,001,2,source,41,PULSAR,LF,target,left,aqua,imageability,liberal,no,7,0,0.706504373227,-,-
2019_Apr_04,103,001,2,source,42,HOWEVER,HF,target,left,aqua,imageability,conservative,no,3,1,0.640145630036,-,-
2019_Apr_04,103,001,2,source,43,SPUDS,LF,target,left,aqua,imageability,liberal,no,8,0,0.799824689651,-,-
2019_Apr_04,103,001,2,source,44,BEYOND,HF,target,right,yellow,pleasantness,conservative,no,3,0,0.73334093427,-,-
2019_Apr_04,103,001,2,source,45,IMPORTANT,HF,target,left,aqua,imageability,conservative,no,2,1,0.653382257947,-,-
2019_Apr_04,103,001,2,source,46,SEEMED,HF,target,right,yellow,pleasantness,liberal,no,9,1,0.973097450118,-,-
2019_Apr_04,103,001,2,source,47,GETTING,HF,target,right,yellow,pleasantness,conservative,no,3,0,0.826499211433,-,-
2019_Apr_04,103,001,2,recog,0,TYPHOID,LF,lure,-,-,-,conservative,no,z,0,1.94629644973,-3,217
2019_Apr_04,103,001,2,recog,1,EAVES,LF,target,right,yellow,pleasantness,liberal,no,z,1,0.866682381786,3,220
2019_Apr_04,103,001,2,recog,2,CANNOT,HF,target,right,yellow,pleasantness,conservative,no,z,1,1.75966608181,1,221
2019_Apr_04,103,001,2,recog,3,TOGETHER,HF,lure,-,-,-,liberal,no,z,0,1.82627924864,-1,220
2019_Apr_04,103,001,2,recog,4,PISTONS,LF,lure,-,-,-,conservative,no,m,1,1.15999214,3,223
2019_Apr_04,103,001,2,recog,5,NOTHING,HF,lure,-,-,-,liberal,no,m,1,1.70638192727,1,224
2019_Apr_04,103,001,2,recog,6,KNUCKLE,LF,lure,-,-,-,liberal,no,m,1,0.866472317315,1,225
2019_Apr_04,103,001,2,recog,7,DOUBT,HF,lure,-,-,-,liberal,no,m,1,1.37317238411,1,226
2019_Apr_04,103,001,2,recog,8,RUNNING,HF,lure,-,-,-,conservative,no,z,0,1.5597301643,-3,223
2019_Apr_04,103,001,2,recog,9,BOXCAR,LF,lure,-,-,-,conservative,yes,m,1,1.03993791183,3,226
2019_Apr_04,103,001,2,recog,10,AROUND,HF,lure,-,-,-,liberal,no,m,1,2.66563308592,1,227
2019_Apr_04,103,001,2,recog,11,HOWEVER,HF,target,left,aqua,imageability,conservative,no,z,1,0.866684581415,1,228
2019_Apr_04,103,001,2,recog,12,GORGED,LF,lure,-,-,-,liberal,no,z,0,2.02624009526,-1,227
2019_Apr_04,103,001,2,recog,13,VECTORS,LF,target,left,aqua,imageability,conservative,no,z,1,0.799823223232,1,228
2019_Apr_04,103,001,2,recog,14,AGONIZED,LF,target,left,aqua,imageability,liberal,no,z,1,0.640177158037,3,231
2019_Apr_04,103,001,2,recog,15,EQUALLED,LF,target,right,yellow,pleasantness,conservative,no,z,1,1.09328218954,1,232
2019_Apr_04,103,001,2,recog,16,SOUND,HF,target,left,aqua,imageability,liberal,no,z,1,0.760052849728,3,235
2019_Apr_04,103,001,2,recog,17,GURGLE,LF,lure,-,-,-,liberal,no,m,1,1.06659117055,1,236
2019_Apr_04,103,001,2,recog,18,QUESTION,HF,lure,-,-,-,liberal,no,m,1,0.986632494224,1,237
2019_Apr_04,103,001,2,recog,19,WEAKENS,LF,lure,-,-,-,conservative,no,m,1,0.826758034324,3,240
2019_Apr_04,103,001,2,recog,20,WEIRDLY,LF,lure,-,-,-,conservative,no,z,0,2.02626429117,-3,237
2019_Apr_04,103,001,2,recog,21,MYRIADS,LF,target,left,aqua,imageability,liberal,no,z,1,0.693526568206,3,240
2019_Apr_04,103,001,2,recog,22,SPUDS,LF,target,left,aqua,imageability,liberal,no,z,1,0.66676919377,3,243
2019_Apr_04,103,001,2,recog,23,PAWNS,LF,target,right,yellow,pleasantness,liberal,no,m,0,0.986740275995,-3,240
2019_Apr_04,103,001,2,recog,24,TABLE,HF,lure,-,-,-,liberal,no,m,1,1.06639467045,1,241
2019_Apr_04,103,001,2,recog,25,ELLIPSE,LF,lure,-,-,-,liberal,no,m,1,0.999738977481,1,242
2019_Apr_04,103,001,2,recog,26,SPACE,HF,target,right,yellow,pleasantness,liberal,no,z,1,0.77338699448,3,245
2019_Apr_04,103,001,2,recog,27,SUCCESS,HF,target,left,aqua,imageability,conservative,no,m,0,1.42551399807,-1,244
2019_Apr_04,103,001,2,recog,28,RATHER,HF,lure,-,-,-,conservative,no,z,0,1.10637620824,-3,241
2019_Apr_04,103,001,2,recog,29,SKIDDED,LF,lure,-,-,-,liberal,no,m,1,1.58641715065,1,242
2019_Apr_04,103,001,2,recog,30,IMPORTANT,HF,target,left,aqua,imageability,conservative,no,z,1,0.986703615529,1,243
2019_Apr_04,103,001,2,recog,31,PUBLIC,HF,lure,-,-,-,conservative,no,m,1,0.840013725679,3,246
2019_Apr_04,103,001,2,recog,32,ECHELONS,LF,lure,-,-,-,liberal,no,z,0,1.45287077112,-1,245
2019_Apr_04,103,001,2,recog,33,FOOLHARDY,LF,lure,-,-,-,conservative,no,m,1,0.973316679705,3,248
2019_Apr_04,103,001,2,recog,34,HIMSELF,HF,lure,-,-,-,conservative,no,m,1,1.039950743,3,251
2019_Apr_04,103,001,2,recog,35,VARIOUS,HF,lure,-,-,-,conservative,no,z,0,1.10658407308,-3,248
2019_Apr_04,103,001,2,recog,36,CARRIED,HF,lure,-,-,-,conservative,no,z,0,1.06660693455,-3,245
2019_Apr_04,103,001,2,recog,37,MUGGING,LF,lure,-,-,-,liberal,no,z,0,1.70634600001,-1,244
2019_Apr_04,103,001,2,recog,38,BAPTIZED,LF,target,right,yellow,pleasantness,liberal,no,z,1,0.693422085878,3,247
2019_Apr_04,103,001,2,recog,39,BECAME,HF,lure,-,-,-,liberal,no,m,1,0.906777567021,1,248
2019_Apr_04,103,001,2,recog,40,TAUNTED,LF,target,left,aqua,imageability,conservative,no,m,0,1.1732437987,-1,247
2019_Apr_04,103,001,2,recog,41,RASCAL,LF,target,left,aqua,imageability,conservative,no,m,0,1.59975716107,-1,246
2019_Apr_04,103,001,2,recog,42,ZENITH,LF,target,left,aqua,imageability,conservative,no,z,1,0.840135805031,1,247
2019_Apr_04,103,001,2,recog,43,REEDY,LF,target,right,yellow,pleasantness,conservative,yes,m,0,1.02663272885,-1,246
2019_Apr_04,103,001,2,recog,44,NEITHER,HF,target,right,yellow,pleasantness,liberal,no,m,0,1.79963588825,-3,243
2019_Apr_04,103,001,2,recog,45,NUCLEAR,HF,lure,-,-,-,liberal,no,m,1,1.27994958453,1,244
2019_Apr_04,103,001,2,recog,46,BUZZARD,LF,lure,-,-,-,conservative,no,m,1,2.78595970135,3,247
2019_Apr_04,103,001,2,recog,47,GETTING,HF,target,right,yellow,pleasantness,conservative,no,z,1,1.35991082708,1,248
2019_Apr_04,103,001,2,recog,48,RECENT,HF,lure,-,-,-,liberal,no,m,1,1.27986746508,1,249
2019_Apr_04,103,001,2,recog,49,MISFITS,LF,target,right,yellow,pleasantness,liberal,no,z,1,0.92001089549,3,252
2019_Apr_04,103,001,2,recog,50,AILMENT,LF,target,left,aqua,imageability,liberal,no,z,1,0.666794856097,3,255
2019_Apr_04,103,001,2,recog,51,MEETING,HF,lure,-,-,-,liberal,no,z,0,0.72006507966,-1,254
2019_Apr_04,103,001,2,recog,52,FATHER,HF,target,right,yellow,pleasantness,conservative,no,z,1,1.90627751826,1,255
2019_Apr_04,103,001,2,recog,53,SCHOOL,HF,target,left,aqua,imageability,liberal,no,z,1,0.653436148833,3,258
2019_Apr_04,103,001,2,recog,54,BEYOND,HF,target,right,yellow,pleasantness,conservative,no,z,1,0.746884410283,1,259
2019_Apr_04,103,001,2,recog,55,AGILITY,LF,target,left,aqua,imageability,conservative,no,z,1,0.613446912346,1,260
2019_Apr_04,103,001,2,recog,56,CASES,HF,target,right,yellow,pleasantness,conservative,no,z,1,0.840042687447,1,261
2019_Apr_04,103,001,2,recog,57,LEDGES,LF,lure,-,-,-,liberal,no,m,1,1.7063291362,1,262
2019_Apr_04,103,001,2,recog,58,SEEMED,HF,target,right,yellow,pleasantness,liberal,no,z,1,0.733378327945,3,265
2019_Apr_04,103,001,2,recog,59,PHYSICAL,HF,lure,-,-,-,conservative,no,m,1,0.786732137371,3,268
2019_Apr_04,103,001,2,recog,60,PASSED,HF,target,left,aqua,imageability,liberal,no,m,0,1.53324517713,-3,265
2019_Apr_04,103,001,2,recog,61,SPRATS,LF,lure,-,-,-,conservative,no,m,1,0.93339049922,3,268
2019_Apr_04,103,001,2,recog,62,SAYING,HF,lure,-,-,-,conservative,yes,m,1,0.826744836557,3,271
2019_Apr_04,103,001,2,recog,63,ACIDITY,LF,target,right,yellow,pleasantness,conservative,no,z,1,0.773399459038,1,272
2019_Apr_04,103,001,2,recog,64,NERVY,LF,target,right,yellow,pleasantness,conservative,no,z,1,0.586858542659,1,273
2019_Apr_04,103,001,2,recog,65,SNEAKED,LF,lure,-,-,-,conservative,no,m,1,0.853336139081,3,276
2019_Apr_04,103,001,2,recog,66,PRIVATE,HF,target,left,aqua,imageability,liberal,no,m,0,0.746849216236,-3,273
2019_Apr_04,103,001,2,recog,67,CAIRN,LF,target,right,yellow,pleasantness,conservative,no,z,1,1.03977550597,1,274
2019_Apr_04,103,001,2,recog,68,TEMERITY,LF,target,left,aqua,imageability,conservative,no,z,1,0.893335640499,1,275
2019_Apr_04,103,001,2,recog,69,PAUNCH,LF,lure,-,-,-,liberal,no,z,0,1.77296686554,-1,274
2019_Apr_04,103,001,2,recog,70,SHORT,HF,target,right,yellow,pleasantness,liberal,no,m,0,1.35958748177,-3,271
2019_Apr_04,103,001,2,recog,71,LETTER,HF,target,right,yellow,pleasantness,liberal,no,z,1,0.613504835882,3,274
2019_Apr_04,103,001,2,recog,72,PULSAR,LF,target,left,aqua,imageability,liberal,no,z,1,0.826462917572,3,277
2019_Apr_04,103,001,2,recog,73,CHURCH,HF,lure,-,-,-,conservative,no,m,1,1.66649020762,3,280
2019_Apr_04,103,001,2,recog,74,SOJOURN,LF,lure,-,-,-,conservative,no,m,1,1.22655398217,3,283
2019_Apr_04,103,001,2,recog,75,DIFFERENT,HF,lure,-,-,-,conservative,no,m,1,0.866692280112,3,286
2019_Apr_04,103,001,2,recog,76,TENABLE,LF,lure,-,-,-,conservative,no,m,1,1.06663296348,3,289
2019_Apr_04,103,001,2,recog,77,DEBACLE,LF,lure,-,-,-,liberal,no,m,1,0.800037686959,1,290
2019_Apr_04,103,001,2,recog,78,CAPITAL,HF,lure,-,-,-,conservative,no,m,1,1.01330005052,3,293
2019_Apr_04,103,001,2,recog,79,DUSTER,LF,lure,-,-,-,liberal,no,m,1,1.19966976252,1,294
2019_Apr_04,103,001,2,recog,80,HARDLY,HF,target,right,yellow,pleasantness,conservative,yes,m,0,0.919785067019,-1,293
2019_Apr_04,103,001,2,recog,81,BEDLAM,LF,target,right,yellow,pleasantness,conservative,no,z,1,1.09325799363,1,294
2019_Apr_04,103,001,2,recog,82,AFRAID,HF,target,left,aqua,imageability,conservative,no,z,1,1.55984381175,1,295
2019_Apr_04,103,001,2,recog,83,MEANS,HF,lure,-,-,-,conservative,no,m,1,1.09324296284,3,298
2019_Apr_04,103,001,2,recog,84,VALUE,HF,target,left,aqua,imageability,liberal,no,z,1,2.50603357952,3,301
2019_Apr_04,103,001,2,recog,85,WHETHER,HF,target,left,aqua,imageability,conservative,no,z,1,1.01358673536,1,302
2019_Apr_04,103,001,2,recog,86,KRONOR,LF,lure,-,-,-,liberal,no,m,1,0.880009927654,1,303
2019_Apr_04,103,001,2,recog,87,SADDER,LF,target,right,yellow,pleasantness,liberal,no,z,1,2.18595031627,3,306
2019_Apr_04,103,001,2,recog,88,TYRANTS,LF,target,right,yellow,pleasantness,liberal,no,z,1,0.653461444554,3,309
2019_Apr_04,103,001,2,recog,89,BOMBARDED,LF,target,left,aqua,imageability,liberal,no,z,1,0.893388798175,3,312
2019_Apr_04,103,001,2,recog,90,INVOLVED,HF,lure,-,-,-,liberal,no,z,0,0.893347005243,-1,311
2019_Apr_04,103,001,2,recog,91,CHIEF,HF,target,left,aqua,imageability,conservative,no,z,1,0.920116111028,1,312
2019_Apr_04,103,001,2,recog,92,PIECE,HF,target,right,yellow,pleasantness,liberal,no,z,1,0.986419130311,3,315
2019_Apr_04,103,001,2,recog,93,EVIDENCE,HF,lure,-,-,-,liberal,no,z,0,0.839796329114,-1,314
2019_Apr_04,103,001,2,recog,94,AXLES,LF,lure,-,-,-,conservative,no,m,1,1.03994927658,3,317
2019_Apr_04,103,001,2,recog,95,LONGER,HF,target,left,aqua,imageability,liberal,no,z,1,1.30652438984,3,320
2019_Apr_04,103,001,3,source,0,NATIONAL,HF,target,right,yellow,pleasantness,conservative,no,3,0,1.83941579348,-,-
2019_Apr_04,103,001,3,source,1,TRYING,HF,target,right,yellow,pleasantness,conservative,no,7,1,0.973373870033,-,-
2019_Apr_04,103,001,3,source,2,IDEAS,HF,target,right,yellow,pleasantness,conservative,no,3,0,1.27987443057,-,-
2019_Apr_04,103,001,3,source,3,LYNCH,LF,target,right,yellow,pleasantness,conservative,no,8,1,0.999978736929,-,-
2019_Apr_04,103,001,3,source,4,SCUFFED,LF,target,left,aqua,imageability,liberal,no,3,1,0.933452088803,-,-
2019_Apr_04,103,001,3,source,5,ROUND,HF,target,left,aqua,imageability,conservative,no,8,0,1.05345719194,-,-
2019_Apr_04,103,001,3,source,6,FLYWHEEL,LF,target,right,yellow,pleasantness,liberal,yes,2,0,0.853342004756,-,-
2019_Apr_04,103,001,3,source,7,LIARS,LF,target,right,yellow,pleasantness,conservative,no,7,1,0.893320609708,-,-
2019_Apr_04,103,001,3,source,8,BUDDIES,LF,target,right,yellow,pleasantness,conservative,no,3,0,1.0664141005,-,-
2019_Apr_04,103,001,3,source,9,COILING,LF,target,left,aqua,imageability,liberal,no,7,0,0.839855352465,-,-
2019_Apr_04,103,001,3,source,10,VULTURE,LF,target,right,yellow,pleasantness,conservative,no,8,1,0.786731770767,-,-
2019_Apr_04,103,001,3,source,11,POUNDS,HF,target,left,aqua,imageability,conservative,no,1,1,1.33345846772,-,-
2019_Apr_04,103,001,3,source,12,ARTIFACTS,LF,target,right,yellow,pleasantness,liberal,no,9,1,0.960019562025,-,-
2019_Apr_04,103,001,3,source,13,HUMAN,HF,target,left,aqua,imageability,conservative,no,3,1,0.853345670802,-,-
2019_Apr_04,103,001,3,source,14,COVER,HF,target,right,yellow,pleasantness,liberal,no,7,1,1.00014627526,-,-
2019_Apr_04,103,001,3,source,15,HUSBAND,HF,target,left,aqua,imageability,conservative,no,7,0,0.799803426581,-,-
2019_Apr_04,103,001,3,source,16,KANGAROO,LF,target,left,aqua,imageability,conservative,no,7,0,1.05325299314,-,-
2019_Apr_04,103,001,3,source,17,MAKES,HF,target,right,yellow,pleasantness,liberal,no,7,1,0.653497738416,-,-
2019_Apr_04,103,001,3,source,18,GIPSY,LF,target,left,aqua,imageability,conservative,no,7,0,0.706955663565,-,-
2019_Apr_04,103,001,3,source,19,NIGHT,HF,target,left,aqua,imageability,conservative,yes,2,1,0.853146971076,-,-
2019_Apr_04,103,001,3,source,20,ATTACK,HF,target,left,aqua,imageability,liberal,no,1,1,1.26649519345,-,-
2019_Apr_04,103,001,3,source,21,KRAALS,LF,target,left,aqua,imageability,liberal,no,3,1,0.760092076427,-,-
2019_Apr_04,103,001,3,source,22,OPENED,HF,target,left,aqua,imageability,liberal,no,3,1,0.973095983699,-,-
2019_Apr_04,103,001,3,source,23,UNVEILED,LF,target,left,aqua,imageability,conservative,no,2,1,1.10658480629,-,-
2019_Apr_04,103,001,3,source,24,VENDETTA,LF,target,left,aqua,imageability,conservative,no,7,0,1.09322536582,-,-
2019_Apr_04,103,001,3,source,25,CHAIR,HF,target,left,aqua,imageability,liberal,no,1,1,1.07993154758,-,-
2019_Apr_04,103,001,3,source,26,SMIRK,LF,target,left,aqua,imageability,liberal,no,8,0,1.2398785952,-,-
2019_Apr_04,103,001,3,source,27,EXPECT,HF,target,left,aqua,imageability,conservative,no,3,1,1.53311356606,-,-
2019_Apr_04,103,001,3,source,28,NOBLEMAN,LF,target,right,yellow,pleasantness,liberal,no,9,1,1.13300783727,-,-
2019_Apr_04,103,001,3,source,29,LITANY,LF,target,left,aqua,imageability,conservative,no,8,0,1.01330298336,-,-
2019_Apr_04,103,001,3,source,30,HOSPITAL,HF,target,right,yellow,pleasantness,liberal,no,8,1,1.10660240331,-,-
2019_Apr_04,103,001,3,source,31,THWART,LF,target,right,yellow,pleasantness,conservative,no,3,0,2.10625596191,-,-
2019_Apr_04,103,001,3,source,32,ESPECIAL,LF,target,left,aqua,imageability,conservative,no,7,0,1.54647007369,-,-
2019_Apr_04,103,001,3,source,33,WICKEDLY,LF,target,left,aqua,imageability,liberal,no,3,1,1.51956459098,-,-
2019_Apr_04,103,001,3,source,34,SLACKEN,LF,target,right,yellow,pleasantness,liberal,yes,7,1,1.03941073433,-,-
2019_Apr_04,103,001,3,source,35,ALMOST,HF,target,left,aqua,imageability,liberal,no,2,1,1.00003262781,-,-
2019_Apr_04,103,001,3,source,36,REIGNING,LF,target,right,yellow,pleasantness,liberal,no,8,1,1.2266665298,-,-
2019_Apr_04,103,001,3,source,37,BEFALL,LF,target,right,yellow,pleasantness,liberal,yes,8,1,0.693406688482,-,-
2019_Apr_04,103,001,3,source,38,RENAMED,LF,target,left,aqua,imageability,liberal,no,2,1,1.53307103992,-,-
2019_Apr_04,103,001,3,source,39,APART,HF,target,left,aqua,imageability,liberal,no,9,0,1.1996682961,-,-
2019_Apr_04,103,001,3,source,40,ENOUGH,HF,target,right,yellow,pleasantness,conservative,no,9,1,1.81304555356,-,-
2019_Apr_04,103,001,3,source,41,DEGREE,HF,target,right,yellow,pleasantness,conservative,no,9,1,0.906461187198,-,-
2019_Apr_04,103,001,3,source,42,ARRIVED,HF,target,right,yellow,pleasantness,liberal,no,2,0,1.07970681892,-,-
2019_Apr_04,103,001,3,source,43,INSIDE,HF,target,right,yellow,pleasantness,liberal,no,3,0,1.17349272326,-,-
2019_Apr_04,103,001,3,source,44,ENGULF,LF,target,right,yellow,pleasantness,conservative,no,8,1,0.90642599315,-,-
2019_Apr_04,103,001,3,source,45,DOING,HF,target,right,yellow,pleasantness,conservative,no,3,0,0.826714774974,-,-
2019_Apr_04,103,001,3,source,46,BRING,HF,target,left,aqua,imageability,liberal,no,2,1,0.879994163654,-,-
2019_Apr_04,103,001,3,source,47,ITSELF,HF,target,right,yellow,pleasantness,liberal,no,3,0,0.906682983018,-,-
2019_Apr_04,103,001,3,recog,0,INDEED,HF,lure,-,-,-,conservative,no,m,1,1.559800919,3,323
2019_Apr_04,103,001,3,recog,1,HIVES,LF,lure,-,-,-,liberal,no,m,1,0.959977035884,1,324
2019_Apr_04,103,001,3,recog,2,HUMAN,HF,target,left,aqua,imageability,conservative,no,z,1,1.2665619155,1,325
2019_Apr_04,103,001,3,recog,3,CACOPHONY,LF,lure,-,-,-,conservative,no,m,1,1.39981757752,3,328
2019_Apr_04,103,001,3,recog,4,FLYWHEEL,LF,target,right,yellow,pleasantness,liberal,no,z,1,1.86627215117,3,331
2019_Apr_04,103,001,3,recog,5,FOLLOWED,HF,lure,-,-,-,conservative,no,z,0,1.13329158928,-3,328
2019_Apr_04,103,001,3,recog,6,QUICKLY,HF,lure,-,-,-,conservative,no,m,1,2.01267095692,3,331
2019_Apr_04,103,001,3,recog,7,POWER,HF,lure,-,-,-,liberal,no,m,1,1.11991858444,1,332
2019_Apr_04,103,001,3,recog,8,VULTURE,LF,target,right,yellow,pleasantness,conservative,no,z,1,1.05329148663,1,333
2019_Apr_04,103,001,3,recog,9,OPENED,HF,target,left,aqua,imageability,liberal,no,z,1,0.866671017042,3,336
2019_Apr_04,103,001,3,recog,10,INSIDE,HF,target,right,yellow,pleasantness,liberal,no,z,1,0.666778725492,3,339
2019_Apr_04,103,001,3,recog,11,THOUSAND,HF,lure,-,-,-,conservative,no,z,0,1.49215062759,-3,336
2019_Apr_04,103,001,3,recog,12,ENFORCING,LF,lure,-,-,-,conservative,no,m,1,1.03994854337,3,339
2019_Apr_04,103,001,3,recog,13,LEARN,HF,lure,-,-,-,conservative,no,m,1,0.786720772627,3,342
2019_Apr_04,103,001,3,recog,14,ATTACK,HF,target,left,aqua,imageability,liberal,no,z,1,1.37313462383,3,345
2019_Apr_04,103,001,3,recog,15,NATIONAL,HF,target,right,yellow,pleasantness,conservative,no,z,1,0.840052585773,1,346
2019_Apr_04,103,001,3,recog,16,ENOUGH,HF,target,right,yellow,pleasantness,conservative,no,z,1,1.21298814327,1,347
2019_Apr_04,103,001,3,recog,17,UNVEILED,LF,target,left,aqua,imageability,conservative,no,z,1,0.813244619893,1,348
2019_Apr_04,103,001,3,recog,18,LANGUAGE,HF,lure,-,-,-,conservative,no,z,0,0.893346272034,-3,345
2019_Apr_04,103,001,3,recog,19,THWART,LF,target,right,yellow,pleasantness,conservative,no,z,1,0.760121038195,1,346
2019_Apr_04,103,001,3,recog,20,WANTED,HF,lure,-,-,-,conservative,yes,m,1,0.999983136186,3,349
2019_Apr_04,103,001,3,recog,21,DIVAN,LF,lure,-,-,-,liberal,no,m,1,0.919982666932,1,350
2019_Apr_04,103,001,3,recog,22,VENDETTA,LF,target,left,aqua,imageability,conservative,no,z,1,0.800013124447,1,351
2019_Apr_04,103,001,3,recog,23,COILING,LF,target,left,aqua,imageability,liberal,no,z,1,0.626784723144,3,354
2019_Apr_04,103,001,3,recog,24,COVER,HF,target,right,yellow,pleasantness,liberal,no,z,1,0.733448716041,3,357
2019_Apr_04,103,001,3,recog,25,WIZENED,LF,lure,-,-,-,conservative,no,m,1,0.839954335724,3,360
2019_Apr_04,103,001,3,recog,26,MOVED,HF,lure,-,-,-,liberal,no,m,1,1.51976695675,1,361
2019_Apr_04,103,001,3,recog,27,ESPECIAL,LF,target,left,aqua,imageability,conservative,no,z,1,0.78671234072,1,362
2019_Apr_04,103,001,3,recog,28,REIGNING,LF,target,right,yellow,pleasantness,liberal,no,z,1,0.946698615041,3,365
2019_Apr_04,103,001,3,recog,29,KANGAROO,LF,target,left,aqua,imageability,conservative,no,z,1,0.693418786436,1,366
2019_Apr_04,103,001,3,recog,30,BAGGY,LF,lure,-,-,-,liberal,no,m,1,1.06667072376,1,367
2019_Apr_04,103,001,3,recog,31,MARKET,HF,lure,-,-,-,conservative,no,m,1,1.53313079648,3,370
2019_Apr_04,103,001,3,recog,32,PARENTS,HF,lure,-,-,-,conservative,no,m,1,1.37316688504,3,373
2019_Apr_04,103,001,3,recog,33,NECESSARY,HF,lure,-,-,-,liberal,no,z,0,1.34645826902,-1,372
2019_Apr_04,103,001,3,recog,34,POPES,LF,lure,-,-,-,liberal,no,m,1,1.02664702643,1,373
2019_Apr_04,103,001,3,recog,35,BRING,HF,target,left,aqua,imageability,liberal,no,m,0,2.58608757306,-3,370
2019_Apr_04,103,001,3,recog,36,LITANY,LF,target,left,aqua,imageability,conservative,yes,m,0,0.893342605987,-1,369
2019_Apr_04,103,001,3,recog,37,APART,HF,target,left,aqua,imageability,liberal,no,m,0,1.87967668402,-3,366
2019_Apr_04,103,001,3,recog,38,ARTIFACTS,LF,target,right,yellow,pleasantness,liberal,no,z,1,0.773403125085,3,369
2019_Apr_04,103,001,3,recog,39,BANALITY,LF,lure,-,-,-,conservative,no,z,0,2.17282256994,-3,366
2019_Apr_04,103,001,3,recog,40,ZOOLOGY,LF,lure,-,-,-,conservative,no,m,1,1.66636006297,3,369
2019_Apr_04,103,001,3,recog,41,SLACKEN,LF,target,right,yellow,pleasantness,liberal,no,m,0,1.30637224891,-3,366
2019_Apr_04,103,001,3,recog,42,DOING,HF,target,right,yellow,pleasantness,conservative,no,z,1,0.800065915518,1,367
2019_Apr_04,103,001,3,recog,43,WARDROBES,LF,lure,-,-,-,liberal,no,z,0,1.03997933816,-1,366
2019_Apr_04,103,001,3,recog,44,SLIGHTLY,HF,lure,-,-,-,liberal,no,m,1,1.18629785749,1,367
2019_Apr_04,103,001,3,recog,45,PAINTWORK,LF,lure,-,-,-,conservative,no,m,1,0.933297015031,3,370
2019_Apr_04,103,001,3,recog,46,ENGULF,LF,target,right,yellow,pleasantness,conservative,no,z,1,0.693416586808,1,371
2019_Apr_04,103,001,3,recog,47,EXPECT,HF,target,left,aqua,imageability,conservative,no,m,0,1.61306014443,-1,370
2019_Apr_04,103,001,3,recog,48,PILGRIM,LF,lure,-,-,-,conservative,no,m,1,0.840080081122,3,373
2019_Apr_04,103,001,3,recog,49,BORAX,LF,lure,-,-,-,liberal,no,m,1,0.840015192097,1,374
2019_Apr_04,103,001,3,recog,50,SMIRK,LF,target,left,aqua,imageability,liberal,no,z,1,0.853361434803,3,377
2019_Apr_04,103,001,3,recog,51,GIPSY,LF,target,left,aqua,imageability,conservative,no,z,1,0.613483206207,1,378
2019_Apr_04,103,001,3,recog,52,DEGREE,HF,target,right,yellow,pleasantness,conservative,no,z,1,0.546579688489,1,379
2019_Apr_04,103,001,3,recog,53,MAKES,HF,target,right,yellow,pleasantness,liberal,no,z,1,0.679898406516,3,382
2019_Apr_04,103,001,3,recog,54,EASILY,HF,lure,-,-,-,conservative,no,z,0,0.853367300477,-3,379
2019_Apr_04,103,001,3,recog,55,CEMENTED,LF,lure,-,-,-,liberal,no,m,1,0.826486746875,1,380
2019_Apr_04,103,001,3,recog,56,ARRIVED,HF,target,right,yellow,pleasantness,liberal,no,z,1,2.19961183898,3,383
2019_Apr_04,103,001,3,recog,57,HUSBAND,HF,target,left,aqua,imageability,conservative,no,z,1,1.63971120351,1,384
2019_Apr_04,103,001,3,recog,58,NUMBER,HF,lure,-,-,-,conservative,no,m,1,0.826451186223,3,387
2019_Apr_04,103,001,3,recog,59,PICTURE,HF,lure,-,-,-,liberal,no,m,1,0.91975133939,1,388
2019_Apr_04,103,001,3,recog,60,BLACK,HF,lure,-,-,-,liberal,no,m,1,1.0933423127,1,389
2019_Apr_04,103,001,3,recog,61,WASHBASIN,LF,lure,-,-,-,liberal,no,m,1,0.933345040242,1,390
2019_Apr_04,103,001,3,recog,62,LIARS,LF,target,right,yellow,pleasantness,conservative,no,z,1,0.986652657481,1,391
2019_Apr_04,103,001,3,recog,63,ROUND,HF,target,left,aqua,imageability,conservative,no,z,1,1.10658810573,1,392
2019_Apr_04,103,001,3,recog,64,LOOKED,HF,lure,-,-,-,liberal,no,m,1,1.3065368544,1,393
2019_Apr_04,103,001,3,recog,65,BUILDING,HF,lure,-,-,-,liberal,no,m,1,2.5861300992,1,394
2019_Apr_04,103,001,3,recog,66,BUDDIES,LF,target,right,yellow,pleasantness,conservative,no,z,1,0.746917404703,1,395
2019_Apr_04,103,001,3,recog,67,WISPY,LF,lure,-,-,-,liberal,no,z,0,0.73319465901,-1,394
2019_Apr_04,103,001,3,recog,68,SCUFFED,LF,target,left,aqua,imageability,liberal,no,z,1,1.2398551325,3,397
2019_Apr_04,103,001,3,recog,69,KRAALS,LF,target,left,aqua,imageability,liberal,no,z,1,0.680164194896,3,400
2019_Apr_04,103,001,3,recog,70,MOISTENED,LF,lure,-,-,-,conservative,no,m,1,0.706904338913,3,403
2019_Apr_04,103,001,3,recog,71,INHABITS,LF,lure,-,-,-,liberal,no,m,1,1.47987450389,1,404
2019_Apr_04,103,001,3,recog,72,RENAMED,LF,target,left,aqua,imageability,liberal,no,z,1,1.09329098805,3,407
2019_Apr_04,103,001,3,recog,73,BETTER,HF,lure,-,-,-,liberal,no,m,1,0.946687250297,1,408
2019_Apr_04,103,001,3,recog,74,ITSELF,HF,target,right,yellow,pleasantness,liberal,no,z,1,1.06634701184,3,411
2019_Apr_04,103,001,3,recog,75,IDEAS,HF,target,right,yellow,pleasantness,conservative,no,z,1,1.17319980614,1,412
2019_Apr_04,103,001,3,recog,76,POUNDS,HF,target,left,aqua,imageability,conservative,no,z,1,0.680128634244,1,413
2019_Apr_04,103,001,3,recog,77,NIGHT,HF,target,left,aqua,imageability,conservative,no,m,0,1.09342443215,-1,412
2019_Apr_04,103,001,3,recog,78,SECOND,HF,lure,-,-,-,liberal,no,z,0,1.53305124327,-1,411
2019_Apr_04,103,001,3,recog,79,HASSLE,LF,lure,-,-,-,conservative,no,m,1,1.01331948056,3,414
2019_Apr_04,103,001,3,recog,80,ALMOST,HF,target,left,aqua,imageability,liberal,no,m,0,1.74633890255,-3,411
2019_Apr_04,103,001,3,recog,81,RUGGER,LF,lure,-,-,-,conservative,no,z,0,0.90668078339,-3,408
2019_Apr_04,103,001,3,recog,82,LYNCH,LF,target,right,yellow,pleasantness,conservative,no,z,1,0.800137770032,1,409
2019_Apr_04,103,001,3,recog,83,BEFALL,LF,target,right,yellow,pleasantness,liberal,yes,z,1,1.34647916549,3,412
2019_Apr_04,103,001,3,recog,84,CHAIR,HF,target,left,aqua,imageability,liberal,no,z,1,1.01348445266,3,415
2019_Apr_04,103,001,3,recog,85,VERBALLY,LF,lure,-,-,-,liberal,no,m,1,0.733489042553,1,416
2019_Apr_04,103,001,3,recog,86,HISTORY,HF,lure,-,-,-,liberal,no,z,0,0.799859883698,-1,415
2019_Apr_04,103,001,3,recog,87,SUDDENLY,HF,lure,-,-,-,conservative,no,z,0,1.03992838011,-3,412
2019_Apr_04,103,001,3,recog,88,OUGHT,HF,lure,-,-,-,liberal,no,z,0,0.893375600407,-1,411
2019_Apr_04,103,001,3,recog,89,WICKEDLY,LF,target,left,aqua,imageability,liberal,yes,z,1,1.2798212729,3,414
2019_Apr_04,103,001,3,recog,90,NOBLEMAN,LF,target,right,yellow,pleasantness,liberal,no,z,1,0.959997565745,3,417
2019_Apr_04,103,001,3,recog,91,DOGMAS,LF,lure,-,-,-,conservative,no,m,1,1.15992578455,3,420
2019_Apr_04,103,001,3,recog,92,LULLED,LF,lure,-,-,-,conservative,no,m,1,0.893084149701,3,423
2019_Apr_04,103,001,3,recog,93,TRYING,HF,target,right,yellow,pleasantness,conservative,no,m,0,1.66635126446,-1,422
2019_Apr_04,103,001,3,recog,94,UPHEAVALS,LF,lure,-,-,-,liberal,no,m,1,0.9066815166,1,423
2019_Apr_04,103,001,3,recog,95,HOSPITAL,HF,target,right,yellow,pleasantness,liberal,no,z,1,1.06687748879,3,426
2019_Apr_04,103,001,4,source,0,ABOVE,HF,target,right,yellow,pleasantness,liberal,no,8,1,1.54648033863,-,-
2019_Apr_04,103,001,4,source,1,BRACES,LF,target,left,aqua,imageability,liberal,no,3,1,0.840049652935,-,-
2019_Apr_04,103,001,4,source,2,BROUGHT,HF,target,right,yellow,pleasantness,liberal,no,7,1,0.786529038389,-,-
2019_Apr_04,103,001,4,source,3,WHITE,HF,target,right,yellow,pleasantness,liberal,no,8,1,0.613470741649,-,-
2019_Apr_04,103,001,4,source,4,ARSENALS,LF,target,left,aqua,imageability,liberal,no,2,1,0.999979103534,-,-
2019_Apr_04,103,001,4,source,5,STRAIGHT,HF,target,left,aqua,imageability,conservative,no,3,1,0.693486974903,-,-
2019_Apr_04,103,001,4,source,6,PUPPETS,LF,target,left,aqua,imageability,conservative,no,3,1,1.15988032557,-,-
2019_Apr_04,103,001,4,source,7,ADDED,HF,target,left,aqua,imageability,liberal,no,3,1,0.653207020919,-,-
2019_Apr_04,103,001,4,source,8,ACROSS,HF,target,left,aqua,imageability,liberal,no,7,0,0.839841788092,-,-
2019_Apr_04,103,001,4,source,9,VILLAGE,HF,target,right,yellow,pleasantness,conservative,no,2,0,0.78673910286,-,-
2019_Apr_04,103,001,4,source,10,REPORT,HF,target,right,yellow,pleasantness,conservative,no,8,1,1.07992788153,-,-
2019_Apr_04,103,001,4,source,11,ACQUIRES,LF,target,right,yellow,pleasantness,conservative,no,9,1,0.906707912135,-,-
2019_Apr_04,103,001,4,source,12,BYPASS,LF,target,right,yellow,pleasantness,liberal,no,1,0,0.693434550436,-,-
2019_Apr_04,103,001,4,source,13,DUNGEON,LF,target,left,aqua,imageability,liberal,no,2,1,0.639864077656,-,-
2019_Apr_04,103,001,4,source,14,FAKING,LF,target,left,aqua,imageability,conservative,no,1,1,1.00003702707,-,-
2019_Apr_04,103,001,4,source,15,KITCHEN,HF,target,left,aqua,imageability,liberal,no,1,1,0.72010833901,-,-
2019_Apr_04,103,001,4,source,16,FLECKED,LF,target,left,aqua,imageability,conservative,no,1,1,0.733427819575,-,-
2019_Apr_04,103,001,4,source,17,PEOPLED,LF,target,left,aqua,imageability,liberal,yes,3,1,0.813138671146,-,-
2019_Apr_04,103,001,4,source,18,CERTAIN,HF,target,right,yellow,pleasantness,liberal,no,7,1,0.679870911167,-,-
2019_Apr_04,103,001,4,source,19,NOSTRIL,LF,target,right,yellow,pleasantness,conservative,no,8,1,0.800064815704,-,-
2019_Apr_04,103,001,4,source,20,STOOD,HF,target,left,aqua,imageability,conservative,no,2,1,0.826775264744,-,-
2019_Apr_04,103,001,4,source,21,MOTHER,HF,target,right,yellow,pleasantness,liberal,no,9,1,0.760086943962,-,-
2019_Apr_04,103,001,4,source,22,MIDDLE,HF,target,left,aqua,imageability,liberal,no,2,1,0.760056515775,-,-
2019_Apr_04,103,001,4,source,23,COGENT,LF,target,right,yellow,pleasantness,conservative,no,1,0,1.10636667652,-,-
2019_Apr_04,103,001,4,source,24,GUARDSMEN,LF,target,right,yellow,pleasantness,conservative,yes,2,0,0.599890238565,-,-
2019_Apr_04,103,001,4,source,25,JUDICIOUS,LF,target,left,aqua,imageability,conservative,no,3,1,0.80004721868,-,-
2019_Apr_04,103,001,4,source,26,LIKELY,HF,target,right,yellow,pleasantness,liberal,no,7,1,0.773423288341,-,-
2019_Apr_04,103,001,4,source,27,FIGURE,HF,target,left,aqua,imageability,liberal,no,8,0,0.640092105755,-,-
2019_Apr_04,103,001,4,source,28,MERELY,HF,target,left,aqua,imageability,conservative,no,2,1,1.8264178252,-,-
2019_Apr_04,103,001,4,source,29,TAVERNS,LF,target,left,aqua,imageability,conservative,no,2,1,1.26629282767,-,-
2019_Apr_04,103,001,4,source,30,UNDER,HF,target,left,aqua,imageability,conservative,no,3,1,1.11993544825,-,-
2019_Apr_04,103,001,4,source,31,VAGABOND,LF,target,left,aqua,imageability,conservative,no,1,1,1.14658540752,-,-
2019_Apr_04,103,001,4,source,32,LOUDEST,LF,target,left,aqua,imageability,liberal,no,8,0,0.920075051306,-,-
2019_Apr_04,103,001,4,source,33,FRIEND,HF,target,right,yellow,pleasantness,conservative,yes,8,1,0.533516831187,-,-
2019_Apr_04,103,001,4,source,34,MINISTER,HF,target,right,yellow,pleasantness,conservative,no,9,1,1.00001099814,-,-
2019_Apr_04,103,001,4,source,35,LEFTISTS,LF,target,right,yellow,pleasantness,liberal,no,9,1,0.733414621807,-,-
2019_Apr_04,103,001,4,source,36,GALACTIC,LF,target,right,yellow,pleasantness,liberal,no,9,1,0.760118471962,-,-
2019_Apr_04,103,001,4,source,37,VEHEMENCE,LF,target,left,aqua,imageability,liberal,no,1,1,0.799836787605,-,-
2019_Apr_04,103,001,4,source,38,WRONG,HF,target,left,aqua,imageability,liberal,no,2,1,0.866748370626,-,-
2019_Apr_04,103,001,4,source,39,BLOOD,HF,target,left,aqua,imageability,conservative,yes,8,0,0.680110304011,-,-
2019_Apr_04,103,001,4,source,40,PLEASE,HF,target,left,aqua,imageability,conservative,no,3,1,0.893232991194,-,-
2019_Apr_04,103,001,4,source,41,AFTERNOON,HF,target,right,yellow,pleasantness,conservative,no,9,1,0.733564563114,-,-
2019_Apr_04,103,001,4,source,42,GIBBERISH,LF,target,right,yellow,pleasantness,conservative,no,9,1,0.746746933535,-,-
2019_Apr_04,103,001,4,source,43,BIGNESS,LF,target,right,yellow,pleasantness,liberal,no,2,0,0.733370995853,-,-
2019_Apr_04,103,001,4,source,44,FITFUL,LF,target,right,yellow,pleasantness,conservative,no,2,0,1.14658027506,-,-
2019_Apr_04,103,001,4,source,45,COMES,HF,target,right,yellow,pleasantness,conservative,no,2,0,0.586579189906,-,-
2019_Apr_04,103,001,4,source,46,FIXTURE,LF,target,right,yellow,pleasantness,liberal,no,8,1,0.640129132826,-,-
2019_Apr_04,103,001,4,source,47,HIKING,LF,target,right,yellow,pleasantness,liberal,no,3,0,1.07996417539,-,-
2019_Apr_04,103,001,4,recog,0,MIDDLE,HF,target,left,aqua,imageability,liberal,no,z,1,1.31983433869,3,429
2019_Apr_04,103,001,4,recog,1,ERRANT,LF,lure,-,-,-,liberal,no,m,1,1.13328095775,1,430
2019_Apr_04,103,001,4,recog,2,STOOD,HF,target,left,aqua,imageability,conservative,no,m,0,1.74635283352,-1,429
2019_Apr_04,103,001,4,recog,3,NEARLY,HF,lure,-,-,-,liberal,no,m,1,1.35983420671,1,430
2019_Apr_04,103,001,4,recog,4,PUPPETS,LF,target,left,aqua,imageability,conservative,no,z,1,0.90644798943,1,431
2019_Apr_04,103,001,4,recog,5,BOOKS,HF,lure,-,-,-,conservative,yes,m,1,0.933396364895,3,434
2019_Apr_04,103,001,4,recog,6,HIKING,LF,target,right,yellow,pleasantness,liberal,no,z,1,0.76007814545,3,437
2019_Apr_04,103,001,4,recog,7,GLASS,HF,lure,-,-,-,liberal,no,m,1,0.893528474551,1,438
2019_Apr_04,103,001,4,recog,8,CERTAIN,HF,target,right,yellow,pleasantness,liberal,no,z,1,0.973293217007,3,441
2019_Apr_04,103,001,4,recog,9,TEETERED,LF,lure,-,-,-,conservative,no,m,1,1.35988993062,3,444
2019_Apr_04,103,001,4,recog,10,BLOOD,HF,target,left,aqua,imageability,conservative,no,m,0,0.813157001379,-1,443
2019_Apr_04,103,001,4,recog,11,ARSENALS,LF,target,left,aqua,imageability,liberal,no,z,1,0.733458614366,3,446
2019_Apr_04,103,001,4,recog,12,ENTIRELY,HF,lure,-,-,-,conservative,no,z,0,0.760068980333,-3,443
2019_Apr_04,103,001,4,recog,13,FRIEND,HF,target,right,yellow,pleasantness,conservative,no,m,0,0.826958567074,-1,442
2019_Apr_04,103,001,4,recog,14,YOUNG,HF,lure,-,-,-,liberal,no,m,1,0.733418654459,1,443
2019_Apr_04,103,001,4,recog,15,CLOSE,HF,lure,-,-,-,liberal,no,m,1,1.71973990132,1,444
2019_Apr_04,103,001,4,recog,16,ARGUABLE,LF,lure,-,-,-,liberal,no,m,1,0.920154237913,1,445
2019_Apr_04,103,001,4,recog,17,COGENT,LF,target,right,yellow,pleasantness,conservative,no,z,1,0.866953669236,1,446
2019_Apr_04,103,001,4,recog,18,BRACES,LF,target,left,aqua,imageability,liberal,no,z,1,0.573464274742,3,449
2019_Apr_04,103,001,4,recog,19,VAGABOND,LF,target,left,aqua,imageability,conservative,no,z,1,0.573463174928,1,450
2019_Apr_04,103,001,4,recog,20,HEIFERS,LF,lure,-,-,-,conservative,no,m,1,1.50639431851,3,453
2019_Apr_04,103,001,4,recog,21,GULLIBLE,LF,lure,-,-,-,liberal,no,m,1,0.879744872484,1,454
2019_Apr_04,103,001,4,recog,22,UNCANNILY,LF,lure,-,-,-,liberal,no,m,1,1.03993424579,1,455
2019_Apr_04,103,001,4,recog,23,DODGED,LF,lure,-,-,-,conservative,no,m,1,1.11990868611,3,458
2019_Apr_04,103,001,4,recog,24,PADDLE,LF,lure,-,-,-,conservative,no,m,1,1.0399588083,3,461
2019_Apr_04,103,001,4,recog,25,FIXTURE,LF,target,right,yellow,pleasantness,liberal,no,z,1,0.920013828328,3,464
2019_Apr_04,103,001,4,recog,26,VEHEMENCE,LF,target,left,aqua,imageability,liberal,no,z,1,0.560164957433,3,467
2019_Apr_04,103,001,4,recog,27,LIGHT,HF,lure,-,-,-,conservative,no,m,1,1.14635884584,3,470
2019_Apr_04,103,001,4,recog,28,OTHERS,HF,lure,-,-,-,conservative,no,m,1,0.680098206057,3,473
2019_Apr_04,103,001,4,recog,29,UNDER,HF,target,left,aqua,imageability,conservative,no,z,1,1.2532398687,1,474
2019_Apr_04,103,001,4,recog,30,BROUGHT,HF,target,right,yellow,pleasantness,liberal,no,z,1,0.786736903232,3,477
2019_Apr_04,103,001,4,recog,31,GROUND,HF,lure,-,-,-,liberal,no,m,1,0.866470117688,1,478
2019_Apr_04,103,001,4,recog,32,PUNCTUAL,LF,lure,-,-,-,conservative,no,m,1,0.773404958108,3,481
2019_Apr_04,103,001,4,recog,33,WHITE,HF,target,right,yellow,pleasantness,liberal,no,z,1,1.10666325969,3,484
2019_Apr_04,103,001,4,recog,34,ALONE,HF,lure,-,-,-,conservative,no,m,1,1.43982367782,3,487
2019_Apr_04,103,001,4,recog,35,BIGNESS,LF,target,right,yellow,pleasantness,liberal,no,z,1,0.760050283496,3,490
2019_Apr_04,103,001,4,recog,36,KITCHEN,HF,target,left,aqua,imageability,liberal,no,z,1,0.613515100812,3,493
2019_Apr_04,103,001,4,recog,37,MENFOLK,LF,lure,-,-,-,conservative,no,m,1,1.21322167044,3,496
2019_Apr_04,103,001,4,recog,38,REPORT,HF,target,right,yellow,pleasantness,conservative,no,m,0,0.880131640402,-1,495
2019_Apr_04,103,001,4,recog,39,SAWDUST,LF,lure,-,-,-,liberal,no,m,1,0.906722209717,1,496
2019_Apr_04,103,001,4,recog,40,GALACTIC,LF,target,right,yellow,pleasantness,liberal,yes,z,1,0.893340039755,3,499
2019_Apr_04,103,001,4,recog,41,DUNGEON,LF,target,left,aqua,imageability,liberal,no,z,1,1.7061326361,3,502
2019_Apr_04,103,001,4,recog,42,ANEMONES,LF,lure,-,-,-,liberal,no,m,1,1.51976842317,1,503
2019_Apr_04,103,001,4,recog,43,YORKER,LF,lure,-,-,-,liberal,no,m,1,0.706520870437,1,504
2019_Apr_04,103,001,4,recog,44,GIVEN,HF,lure,-,-,-,conservative,no,m,1,1.09326055986,3,507
2019_Apr_04,103,001,4,recog,45,ENAMELLED,LF,lure,-,-,-,conservative,no,z,0,1.14629872268,-3,504
2019_Apr_04,103,001,4,recog,46,LEFTISTS,LF,target,right,yellow,pleasantness,liberal,no,z,1,0.880054286818,3,507
2019_Apr_04,103,001,4,recog,47,HOPPER,LF,lure,-,-,-,conservative,no,m,1,0.880013593701,3,510
2019_Apr_04,103,001,4,recog,48,MINISTER,HF,target,right,yellow,pleasantness,conservative,no,z,1,0.840040121214,1,511
2019_Apr_04,103,001,4,recog,49,GIBBERISH,LF,target,right,yellow,pleasantness,conservative,no,z,1,0.533589052305,1,512
2019_Apr_04,103,001,4,recog,50,ALLOWED,HF,lure,-,-,-,conservative,no,z,0,0.773387727689,-3,509
2019_Apr_04,103,001,4,recog,51,BYPASS,LF,target,right,yellow,pleasantness,liberal,no,z,1,0.746831985817,3,512
2019_Apr_04,103,001,4,recog,52,OLDER,HF,lure,-,-,-,conservative,no,z,0,1.71970873993,-3,509
2019_Apr_04,103,001,4,recog,53,TRADE,HF,lure,-,-,-,conservative,no,m,1,0.763992016817,3,512
2019_Apr_04,103,001,4,recog,54,MOTHER,HF,target,right,yellow,pleasantness,liberal,no,z,1,0.666781291724,3,515
2019_Apr_04,103,001,4,recog,55,VANDALS,LF,lure,-,-,-,liberal,no,z,0,0.866680548763,-1,514
2019_Apr_04,103,001,4,recog,56,FAKING,LF,target,left,aqua,imageability,conservative,no,z,1,0.666776159259,1,515
2019_Apr_04,103,001,4,recog,57,SUGARY,LF,lure,-,-,-,conservative,yes,m,1,0.986643492364,3,518
2019_Apr_04,103,001,4,recog,58,FITFUL,LF,target,right,yellow,pleasantness,conservative,no,z,1,1.81298616361,1,519
2019_Apr_04,103,001,4,recog,59,ACTION,HF,lure,-,-,-,liberal,no,m,1,0.866464618618,1,520
2019_Apr_04,103,001,4,recog,60,PIPELINES,LF,lure,-,-,-,conservative,no,m,1,1.21326273016,3,523
2019_Apr_04,103,001,4,recog,61,SLEEP,HF,lure,-,-,-,liberal,no,m,1,0.773198193079,1,524
2019_Apr_04,103,001,4,recog,62,LARGE,HF,lure,-,-,-,liberal,no,m,1,1.33316628381,1,525
2019_Apr_04,103,001,4,recog,63,MANDARIN,LF,lure,-,-,-,liberal,no,m,1,0.986371471705,1,526
2019_Apr_04,103,001,4,recog,64,COUNCIL,HF,lure,-,-,-,liberal,no,m,1,1.19993298467,1,527
2019_Apr_04,103,001,4,recog,65,MERELY,HF,target,left,aqua,imageability,conservative,no,m,0,1.90600843044,-1,526
2019_Apr_04,103,001,4,recog,66,NOSTRIL,LF,target,right,yellow,pleasantness,conservative,no,z,1,1.05328268812,1,527
2019_Apr_04,103,001,4,recog,67,ACQUIRES,LF,target,right,yellow,pleasantness,conservative,no,m,0,1.05328782059,-1,526
2019_Apr_04,103,001,4,recog,68,INITIATES,LF,lure,-,-,-,liberal,no,z,0,1.54641764923,-1,525
2019_Apr_04,103,001,4,recog,69,POINT,HF,lure,-,-,-,conservative,no,m,1,1.30652255682,3,528
2019_Apr_04,103,001,4,recog,70,ACROSS,HF,target,left,aqua,imageability,liberal,no,z,1,1.06641776654,3,531
2019_Apr_04,103,001,4,recog,71,STRAIGHT,HF,target,left,aqua,imageability,conservative,no,m,0,1.37318374885,-1,530
2019_Apr_04,103,001,4,recog,72,FLECKED,LF,target,left,aqua,imageability,conservative,no,z,1,0.880221458544,1,531
2019_Apr_04,103,001,4,recog,73,ABOVE,HF,target,right,yellow,pleasantness,liberal,no,z,1,1.22653345231,3,534
2019_Apr_04,103,001,4,recog,74,ALTHOUGH,HF,lure,-,-,-,liberal,no,m,1,0.920107679121,1,535
2019_Apr_04,103,001,4,recog,75,PEACEABLY,LF,lure,-,-,-,conservative,no,m,1,0.906489049152,3,538
2019_Apr_04,103,001,4,recog,76,AFTERNOON,HF,target,right,yellow,pleasantness,conservative,no,z,1,0.946693482576,1,539
2019_Apr_04,103,001,4,recog,77,FORCE,HF,lure,-,-,-,liberal,no,m,1,1.21321177212,1,540
2019_Apr_04,103,001,4,recog,78,WAYSIDE,LF,lure,-,-,-,liberal,no,m,1,0.826465850409,1,541
2019_Apr_04,103,001,4,recog,79,LIKELY,HF,target,right,yellow,pleasantness,liberal,no,z,1,1.10658773913,3,544
2019_Apr_04,103,001,4,recog,80,TAVERNS,LF,target,left,aqua,imageability,conservative,no,z,1,0.57325017762,1,545
2019_Apr_04,103,001,4,recog,81,PLEASE,HF,target,left,aqua,imageability,conservative,no,z,1,1.43978115168,1,546
2019_Apr_04,103,001,4,recog,82,JUDICIOUS,LF,target,left,aqua,imageability,conservative,no,z,1,1.21334191677,1,547
2019_Apr_04,103,001,4,recog,83,HEALTH,HF,lure,-,-,-,liberal,no,m,1,0.680106637964,1,548
2019_Apr_04,103,001,4,recog,84,LOUDEST,LF,target,left,aqua,imageability,liberal,no,z,1,0.666972659358,3,551
2019_Apr_04,103,001,4,recog,85,GUARDSMEN,LF,target,right,yellow,pleasantness,conservative,no,m,0,1.01325679117,-1,550
2019_Apr_04,103,001,4,recog,86,FIGURE,HF,target,left,aqua,imageability,liberal,no,z,1,0.92003839084,3,553
2019_Apr_04,103,001,4,recog,87,WRONG,HF,target,left,aqua,imageability,liberal,no,z,1,0.933340274381,3,556
2019_Apr_04,103,001,4,recog,88,SINCE,HF,lure,-,-,-,conservative,no,m,1,0.733401790644,3,559
2019_Apr_04,103,001,4,recog,89,LAWFUL,LF,lure,-,-,-,conservative,no,z,0,0.826817790884,-3,556
2019_Apr_04,103,001,4,recog,90,TODAY,HF,lure,-,-,-,conservative,no,m,1,1.42651592861,3,559
2019_Apr_04,103,001,4,recog,91,ADDED,HF,target,left,aqua,imageability,liberal,no,z,1,0.866452154059,3,562
2019_Apr_04,103,001,4,recog,92,VILLAGE,HF,target,right,yellow,pleasantness,conservative,no,z,1,1.57305441073,1,563
2019_Apr_04,103,001,4,recog,93,PEOPLED,LF,target,left,aqua,imageability,liberal,yes,z,1,0.866749837044,3,566
2019_Apr_04,103,001,4,recog,94,GAUCHE,LF,lure,-,-,-,liberal,no,m,1,0.826719540835,1,567
2019_Apr_04,103,001,4,recog,95,COMES,HF,target,right,yellow,pleasantness,conservative,no,m,0,1.82646731683,-1,566
