date,subj,session,cycle,task,trial,item,wf,type,source,colour,encoding,bias,null,response,corr,rt,points,total
2019_Apr_04,104,001,0,source,0,OPPOSES,LF,target,right,aqua,pleasantness,conservative,no,7,1,3.78550511157,-,-
2019_Apr_04,104,001,0,source,1,DIFFERENT,HF,target,right,aqua,pleasantness,liberal,no,7,1,3.14585293141,-,-
2019_Apr_04,104,001,0,source,2,PIECE,HF,target,left,yellow,imageability,conservative,no,1,1,3.05249008884,-,-
2019_Apr_04,104,001,0,source,3,ANSWER,HF,target,left,yellow,imageability,liberal,no,8,0,3.46570303409,-,-
2019_Apr_04,104,001,0,source,4,RETURN,HF,target,left,yellow,imageability,conservative,no,2,1,3.49234859411,-,-
2019_Apr_04,104,001,0,source,5,TALKING,HF,target,right,aqua,pleasantness,conservative,no,9,1,3.59872590216,-,-
2019_Apr_04,104,001,0,source,6,WANTED,HF,target,left,yellow,imageability,liberal,no,8,0,2.62598515838,-,-
2019_Apr_04,104,001,0,source,7,MICROCOSM,LF,target,right,aqua,pleasantness,conservative,yes,7,1,2.58600838645,-,-
2019_Apr_04,104,001,0,source,8,ALMOST,HF,target,right,aqua,pleasantness,conservative,no,7,1,3.46564291093,-,-
2019_Apr_04,104,001,0,source,9,QUESTION,HF,target,left,yellow,imageability,conservative,no,1,1,1.8662824161,-,-
2019_Apr_04,104,001,0,source,10,LOWED,LF,target,left,yellow,imageability,conservative,no,1,1,1.17324636493,-,-
2019_Apr_04,104,001,0,source,11,MOVED,HF,target,left,yellow,imageability,liberal,yes,3,1,4.39839038557,-,-
2019_Apr_04,104,001,0,source,12,SWAGGER,LF,target,left,yellow,imageability,liberal,no,1,1,1.65325211329,-,-
2019_Apr_04,104,001,0,source,13,ZEBRA,LF,target,left,yellow,imageability,conservative,no,1,1,0.826497378411,-,-
2019_Apr_04,104,001,0,source,14,DRYER,LF,target,left,yellow,imageability,liberal,no,1,1,0.759853050187,-,-
2019_Apr_04,104,001,0,source,15,FLOOR,HF,target,left,yellow,imageability,conservative,no,1,1,2.38613515834,-,-
2019_Apr_04,104,001,0,source,16,HORDE,LF,target,left,yellow,imageability,conservative,no,1,1,2.50604054501,-,-
2019_Apr_04,104,001,0,source,17,SAYING,HF,target,right,aqua,pleasantness,conservative,no,9,1,2.82590787811,-,-
2019_Apr_04,104,001,0,source,18,MONEY,HF,target,left,yellow,imageability,conservative,no,1,1,3.69202055626,-,-
2019_Apr_04,104,001,0,source,19,IDEAS,HF,target,left,yellow,imageability,liberal,no,8,0,2.21280080829,-,-
2019_Apr_04,104,001,0,source,20,ENCLOSE,LF,target,left,yellow,imageability,conservative,no,8,0,1.23981847204,-,-
2019_Apr_04,104,001,0,source,21,UNKEMPT,LF,target,left,yellow,imageability,conservative,no,8,0,1.62645404574,-,-
2019_Apr_04,104,001,0,source,22,RATHER,HF,target,right,aqua,pleasantness,liberal,no,8,1,2.26616818209,-,-
2019_Apr_04,104,001,0,source,23,SUING,LF,target,left,yellow,imageability,liberal,no,1,1,2.05297693983,-,-
2019_Apr_04,104,001,0,source,24,LOBBIES,LF,target,right,aqua,pleasantness,liberal,no,1,0,1.3199300225,-,-
2019_Apr_04,104,001,0,source,25,HOMESTEAD,LF,target,right,aqua,pleasantness,conservative,no,9,1,2.8790065307,-,-
2019_Apr_04,104,001,0,source,26,EVIDENCE,HF,target,left,yellow,imageability,conservative,no,7,0,1.95938533596,-,-
2019_Apr_04,104,001,0,source,27,FURTHER,HF,target,right,aqua,pleasantness,liberal,no,3,0,3.55872676735,-,-
2019_Apr_04,104,001,0,source,28,BREAK,HF,target,right,aqua,pleasantness,liberal,no,8,1,3.62536083064,-,-
2019_Apr_04,104,001,0,source,29,CODING,LF,target,right,aqua,pleasantness,conservative,no,9,1,2.38610289713,-,-
2019_Apr_04,104,001,0,source,30,BUOYANCY,LF,target,left,yellow,imageability,liberal,no,1,1,1.30654858575,-,-
2019_Apr_04,104,001,0,source,31,FIELD,HF,target,right,aqua,pleasantness,liberal,no,9,1,2.03954674466,-,-
2019_Apr_04,104,001,0,source,32,CATALYST,LF,target,right,aqua,pleasantness,liberal,yes,8,1,1.47965820714,-,-
2019_Apr_04,104,001,0,source,33,GROUND,HF,target,right,aqua,pleasantness,conservative,no,1,0,3.22584570196,-,-
2019_Apr_04,104,001,0,source,34,ALTHOUGH,HF,target,right,aqua,pleasantness,liberal,no,8,1,2.41275945528,-,-
2019_Apr_04,104,001,0,source,35,ENMESHED,LF,target,right,aqua,pleasantness,liberal,no,9,1,2.14617884295,-,-
2019_Apr_04,104,001,0,source,36,HAPPEN,HF,target,right,aqua,pleasantness,conservative,no,8,1,2.34618148251,-,-
2019_Apr_04,104,001,0,source,37,SABLE,LF,target,right,aqua,pleasantness,liberal,no,9,1,1.67947901078,-,-
2019_Apr_04,104,001,0,source,38,TIGHTNESS,LF,target,right,aqua,pleasantness,conservative,no,7,1,2.0259915373,-,-
2019_Apr_04,104,001,0,source,39,VESTIBULE,LF,target,right,aqua,pleasantness,liberal,no,9,1,1.45312959402,-,-
2019_Apr_04,104,001,0,source,40,RESEARCH,HF,target,right,aqua,pleasantness,conservative,no,8,1,1.54642644774,-,-
2019_Apr_04,104,001,0,source,41,ROUND,HF,target,left,yellow,imageability,liberal,no,1,1,2.18616917925,-,-
2019_Apr_04,104,001,0,source,42,SORRY,HF,target,left,yellow,imageability,liberal,no,1,1,1.57325421027,-,-
2019_Apr_04,104,001,0,source,43,TETHER,LF,target,left,yellow,imageability,liberal,yes,8,0,1.34627386688,-,-
2019_Apr_04,104,001,0,source,44,ETHER,LF,target,left,yellow,imageability,liberal,no,1,1,2.01304159423,-,-
2019_Apr_04,104,001,0,source,45,SACRAMENT,LF,target,right,aqua,pleasantness,liberal,no,9,1,6.31784147575,-,-
2019_Apr_04,104,001,0,source,46,HURDLES,LF,target,left,yellow,imageability,conservative,no,1,1,1.33322494056,-,-
2019_Apr_04,104,001,0,source,47,GODMOTHER,LF,target,right,aqua,pleasantness,conservative,no,8,1,2.78567228329,-,-
2019_Apr_04,104,001,0,recog,0,SAYING,HF,target,right,aqua,pleasantness,conservative,no,m,0,2.75926098366,-1,-1
2019_Apr_04,104,001,0,recog,1,JOVIAL,LF,lure,-,-,-,liberal,no,m,1,2.73267774644,1,0
2019_Apr_04,104,001,0,recog,2,CENTRAL,HF,lure,-,-,-,conservative,no,z,0,2.26610365967,-3,-3
2019_Apr_04,104,001,0,recog,3,SACRAMENT,LF,target,right,aqua,pleasantness,liberal,no,z,1,3.65203241958,3,0
2019_Apr_04,104,001,0,recog,4,MOVED,HF,target,left,yellow,imageability,liberal,no,m,0,2.38585543898,-3,-3
2019_Apr_04,104,001,0,recog,5,PAGANISM,LF,lure,-,-,-,conservative,no,z,0,2.51934572799,-3,-6
2019_Apr_04,104,001,0,recog,6,BOUGH,LF,lure,-,-,-,liberal,no,m,1,3.62540005734,1,-5
2019_Apr_04,104,001,0,recog,7,NUCLEAR,HF,lure,-,-,-,conservative,no,m,1,1.27986783169,3,-2
2019_Apr_04,104,001,0,recog,8,PAMPERED,LF,lure,-,-,-,liberal,no,m,1,4.42529770132,1,-1
2019_Apr_04,104,001,0,recog,9,UNDER,HF,lure,-,-,-,liberal,yes,z,0,1.71948694411,-1,-2
2019_Apr_04,104,001,0,recog,10,OPPOSES,LF,target,right,aqua,pleasantness,conservative,no,z,1,3.43899955054,1,-1
2019_Apr_04,104,001,0,recog,11,STAFF,HF,lure,-,-,-,conservative,no,m,1,5.3583160968,3,2
2019_Apr_04,104,001,0,recog,12,SABLE,LF,target,right,aqua,pleasantness,liberal,no,z,1,1.50643537823,3,5
2019_Apr_04,104,001,0,recog,13,LUCERNE,LF,lure,-,-,-,liberal,no,m,1,1.30652622286,1,6
2019_Apr_04,104,001,0,recog,14,HORDE,LF,target,left,yellow,imageability,conservative,yes,m,0,2.42614895734,-1,5
2019_Apr_04,104,001,0,recog,15,BREAK,HF,target,right,aqua,pleasantness,liberal,no,z,1,3.17241233933,3,8
2019_Apr_04,104,001,0,recog,16,QUICKLY,HF,lure,-,-,-,conservative,no,m,1,6.37093682888,3,11
2019_Apr_04,104,001,0,recog,17,WATCH,HF,lure,-,-,-,liberal,no,m,1,1.86607345144,1,12
2019_Apr_04,104,001,0,recog,18,SECOND,HF,lure,-,-,-,liberal,no,m,1,1.29323203802,1,13
2019_Apr_04,104,001,0,recog,19,HAPPEN,HF,target,right,aqua,pleasantness,conservative,no,z,1,1.19998870858,1,14
2019_Apr_04,104,001,0,recog,20,HURDLES,LF,target,left,yellow,imageability,conservative,no,z,1,0.866672850066,1,15
2019_Apr_04,104,001,0,recog,21,ORDER,HF,lure,-,-,-,liberal,no,z,0,3.46570670014,-1,14
2019_Apr_04,104,001,0,recog,22,RESEARCH,HF,target,right,aqua,pleasantness,conservative,no,z,1,2.74594590235,1,15
2019_Apr_04,104,001,0,recog,23,LABOUR,HF,lure,-,-,-,conservative,no,m,1,3.89222299535,3,18
2019_Apr_04,104,001,0,recog,24,QUESTION,HF,target,left,yellow,imageability,conservative,no,z,1,1.58616456003,1,19
2019_Apr_04,104,001,0,recog,25,EVIDENCE,HF,target,left,yellow,imageability,conservative,no,z,1,1.90752690695,1,20
2019_Apr_04,104,001,0,recog,26,GOUGED,LF,lure,-,-,-,conservative,no,m,1,1.03976670746,3,23
2019_Apr_04,104,001,0,recog,27,ENAMELLED,LF,lure,-,-,-,conservative,no,m,1,2.65273923337,3,26
2019_Apr_04,104,001,0,recog,28,TALKING,HF,target,right,aqua,pleasantness,conservative,no,z,1,0.973417129382,1,27
2019_Apr_04,104,001,0,recog,29,DIETING,LF,lure,-,-,-,liberal,no,m,1,0.933339541172,1,28
2019_Apr_04,104,001,0,recog,30,ELICIT,LF,lure,-,-,-,conservative,no,m,1,0.959963471511,3,31
2019_Apr_04,104,001,0,recog,31,UNTIL,HF,lure,-,-,-,conservative,yes,m,1,2.2928918289,3,34
2019_Apr_04,104,001,0,recog,32,EMPATHY,LF,lure,-,-,-,liberal,no,z,0,3.25241720784,-1,33
2019_Apr_04,104,001,0,recog,33,TIGHTNESS,LF,target,right,aqua,pleasantness,conservative,no,z,1,1.05322183175,1,34
2019_Apr_04,104,001,0,recog,34,DUMMIES,LF,lure,-,-,-,conservative,no,m,1,0.813456150783,3,37
2019_Apr_04,104,001,0,recog,35,CATALYST,LF,target,right,aqua,pleasantness,liberal,no,z,1,1.38755648461,3,40
2019_Apr_04,104,001,0,recog,36,SUING,LF,target,left,yellow,imageability,liberal,no,z,1,0.693396056947,3,43
2019_Apr_04,104,001,0,recog,37,VEILING,LF,lure,-,-,-,liberal,no,m,1,1.47977991989,1,44
2019_Apr_04,104,001,0,recog,38,ENCLOSE,LF,target,left,yellow,imageability,conservative,no,z,1,1.15992468474,1,45
2019_Apr_04,104,001,0,recog,39,SPOKE,HF,lure,-,-,-,liberal,no,m,1,1.25321127353,1,46
2019_Apr_04,104,001,0,recog,40,UNBEATEN,LF,lure,-,-,-,conservative,no,m,1,4.47863391372,3,49
2019_Apr_04,104,001,0,recog,41,RATHER,HF,target,right,aqua,pleasantness,liberal,no,z,1,2.4395857514,3,52
2019_Apr_04,104,001,0,recog,42,MYSELF,HF,lure,-,-,-,liberal,no,m,1,0.853377932012,1,53
2019_Apr_04,104,001,0,recog,43,FOLLOWED,HF,lure,-,-,-,liberal,no,m,1,1.85235877105,1,54
2019_Apr_04,104,001,0,recog,44,PIECE,HF,target,left,yellow,imageability,conservative,no,z,1,0.959891250393,1,55
2019_Apr_04,104,001,0,recog,45,DIFFERENT,HF,target,right,aqua,pleasantness,liberal,no,z,1,0.946490383592,3,58
2019_Apr_04,104,001,0,recog,46,TABLE,HF,lure,-,-,-,liberal,no,z,0,1.15965926296,-1,57
2019_Apr_04,104,001,0,recog,47,LOBBIES,LF,target,right,aqua,pleasantness,liberal,no,z,1,0.693560295836,3,60
2019_Apr_04,104,001,0,recog,48,BODICE,LF,lure,-,-,-,liberal,no,m,1,0.760222587686,1,61
2019_Apr_04,104,001,0,recog,49,CODING,LF,target,right,aqua,pleasantness,conservative,no,z,1,1.10660570276,1,62
2019_Apr_04,104,001,0,recog,50,CHIEF,HF,lure,-,-,-,conservative,no,m,1,0.72009734087,3,65
2019_Apr_04,104,001,0,recog,51,MONEY,HF,target,left,yellow,imageability,conservative,no,z,1,0.640156261571,1,66
2019_Apr_04,104,001,0,recog,52,MICROCOSM,LF,target,right,aqua,pleasantness,conservative,no,m,0,0.999953074604,-1,65
2019_Apr_04,104,001,0,recog,53,ETHER,LF,target,left,yellow,imageability,liberal,no,z,1,2.66615146492,3,68
2019_Apr_04,104,001,0,recog,54,ICEBOX,LF,lure,-,-,-,conservative,no,m,1,0.706537001041,3,71
2019_Apr_04,104,001,0,recog,55,RAMBLE,LF,lure,-,-,-,conservative,no,z,0,1.19991832048,-3,68
2019_Apr_04,104,001,0,recog,56,WANTED,HF,target,left,yellow,imageability,liberal,no,z,1,0.826722473672,3,71
2019_Apr_04,104,001,0,recog,57,VILLAGE,HF,lure,-,-,-,liberal,no,m,1,2.21281437266,1,72
2019_Apr_04,104,001,0,recog,58,LIARS,LF,lure,-,-,-,conservative,no,m,1,0.79980342658,3,75
2019_Apr_04,104,001,0,recog,59,SWAGGER,LF,target,left,yellow,imageability,liberal,no,z,1,0.69329560727,3,78
2019_Apr_04,104,001,0,recog,60,HOMESTEAD,LF,target,right,aqua,pleasantness,conservative,no,z,1,0.920019327398,1,79
2019_Apr_04,104,001,0,recog,61,ANSWER,HF,target,left,yellow,imageability,liberal,no,z,1,1.33317288269,3,82
2019_Apr_04,104,001,0,recog,62,POWER,HF,lure,-,-,-,conservative,no,m,1,0.840026556842,3,85
2019_Apr_04,104,001,0,recog,63,UNKEMPT,LF,target,left,yellow,imageability,conservative,no,z,1,1.06661609966,1,86
2019_Apr_04,104,001,0,recog,64,GROUND,HF,target,right,aqua,pleasantness,conservative,no,z,1,0.853342737965,1,87
2019_Apr_04,104,001,0,recog,65,GODMOTHER,LF,target,right,aqua,pleasantness,conservative,no,z,1,0.840088879634,1,88
2019_Apr_04,104,001,0,recog,66,LATER,HF,lure,-,-,-,conservative,no,z,0,1.13326372733,-3,85
2019_Apr_04,104,001,0,recog,67,BUOYANCY,LF,target,left,yellow,imageability,liberal,no,z,1,1.0666036351,3,88
2019_Apr_04,104,001,0,recog,68,ALTHOUGH,HF,target,right,aqua,pleasantness,liberal,no,z,1,2.0266836869,3,91
2019_Apr_04,104,001,0,recog,69,WITHIN,HF,lure,-,-,-,liberal,no,z,0,1.30647746444,-1,90
2019_Apr_04,104,001,0,recog,70,LOWED,LF,target,left,yellow,imageability,conservative,no,z,1,1.54618302224,1,91
2019_Apr_04,104,001,0,recog,71,SORRY,HF,target,left,yellow,imageability,liberal,no,z,1,1.31959091319,3,94
2019_Apr_04,104,001,0,recog,72,IDEAS,HF,target,left,yellow,imageability,liberal,no,z,1,1.01328648615,3,97
2019_Apr_04,104,001,0,recog,73,WALKED,HF,lure,-,-,-,liberal,no,z,0,0.760059815217,-1,96
2019_Apr_04,104,001,0,recog,74,BALDING,LF,lure,-,-,-,liberal,no,m,1,0.786838086119,1,97
2019_Apr_04,104,001,0,recog,75,FURTHER,HF,target,right,aqua,pleasantness,liberal,no,z,1,1.10640297038,3,100
2019_Apr_04,104,001,0,recog,76,DECIDED,HF,lure,-,-,-,liberal,no,m,1,0.919760504506,1,101
2019_Apr_04,104,001,0,recog,77,TETHER,LF,target,left,yellow,imageability,liberal,no,m,0,1.1597014225,-3,98
2019_Apr_04,104,001,0,recog,78,FUTURE,HF,lure,-,-,-,conservative,no,z,0,1.39994918859,-3,95
2019_Apr_04,104,001,0,recog,79,RETURN,HF,target,left,yellow,imageability,conservative,no,z,1,1.06639503705,1,96
2019_Apr_04,104,001,0,recog,80,ZEBRA,LF,target,left,yellow,imageability,conservative,no,z,1,0.640181190688,1,97
2019_Apr_04,104,001,0,recog,81,VESTIBULE,LF,target,right,aqua,pleasantness,liberal,no,z,1,0.973522344921,3,100
2019_Apr_04,104,001,0,recog,82,CEASELESS,LF,lure,-,-,-,conservative,no,m,1,0.760067513915,3,103
2019_Apr_04,104,001,0,recog,83,SOCIAL,HF,lure,-,-,-,conservative,no,m,1,0.880246387661,3,106
2019_Apr_04,104,001,0,recog,84,ALMOST,HF,target,right,aqua,pleasantness,conservative,no,z,1,0.733105574077,1,107
2019_Apr_04,104,001,0,recog,85,LOYALIST,LF,lure,-,-,-,liberal,no,m,1,0.586778256238,1,108
2019_Apr_04,104,001,0,recog,86,FIELD,HF,target,right,aqua,pleasantness,liberal,no,z,1,0.746727870093,3,111
2019_Apr_04,104,001,0,recog,87,YORKER,LF,lure,-,-,-,liberal,no,m,1,0.680104071731,1,112
2019_Apr_04,104,001,0,recog,88,LOANED,LF,lure,-,-,-,liberal,no,z,0,1.07995244404,-1,111
2019_Apr_04,104,001,0,recog,89,ROUND,HF,target,left,yellow,imageability,liberal,no,z,1,2.46603884396,3,114
2019_Apr_04,104,001,0,recog,90,DYNAMISM,LF,lure,-,-,-,conservative,yes,m,1,1.47975572398,3,117
2019_Apr_04,104,001,0,recog,91,LACING,LF,lure,-,-,-,conservative,no,m,1,1.17323426698,3,120
2019_Apr_04,104,001,0,recog,92,DRYER,LF,target,left,yellow,imageability,liberal,no,z,1,0.69320212308,3,123
2019_Apr_04,104,001,0,recog,93,ENMESHED,LF,target,right,aqua,pleasantness,liberal,no,z,1,2.99894674481,3,126
2019_Apr_04,104,001,0,recog,94,FLOOR,HF,target,left,yellow,imageability,conservative,no,z,1,0.919816228416,1,127
2019_Apr_04,104,001,0,recog,95,MAKES,HF,lure,-,-,-,conservative,no,m,1,0.693431984204,3,130
2019_Apr_04,104,001,1,source,0,SWEARS,LF,target,left,yellow,imageability,conservative,no,2,1,6.27763410948,-,-
2019_Apr_04,104,001,1,source,1,FISHY,LF,target,right,aqua,pleasantness,conservative,no,9,1,2.22618921053,-,-
2019_Apr_04,104,001,1,source,2,APPEARED,HF,target,left,yellow,imageability,liberal,no,2,1,4.26533672272,-,-
2019_Apr_04,104,001,1,source,3,PAYOFF,LF,target,left,yellow,imageability,liberal,yes,9,0,1.94626565493,-,-
2019_Apr_04,104,001,1,source,4,ROYALS,LF,target,left,yellow,imageability,liberal,no,1,1,3.21218637888,-,-
2019_Apr_04,104,001,1,source,5,BETTER,HF,target,right,aqua,pleasantness,conservative,no,9,1,4.27867636654,-,-
2019_Apr_04,104,001,1,source,6,PALATABLE,LF,target,left,yellow,imageability,conservative,no,1,1,1.70615316596,-,-
2019_Apr_04,104,001,1,source,7,DOING,HF,target,left,yellow,imageability,liberal,no,1,1,1.33316371758,-,-
2019_Apr_04,104,001,1,source,8,PADDLE,LF,target,right,aqua,pleasantness,liberal,no,2,0,3.33237221811,-,-
2019_Apr_04,104,001,1,source,9,ANAEMIC,LF,target,left,yellow,imageability,liberal,no,1,1,1.29317411448,-,-
2019_Apr_04,104,001,1,source,10,DINER,LF,target,left,yellow,imageability,conservative,no,1,1,0.720176527477,-,-
2019_Apr_04,104,001,1,source,11,MEETING,HF,target,right,aqua,pleasantness,liberal,no,9,1,1.61303484871,-,-
2019_Apr_04,104,001,1,source,12,THING,HF,target,left,yellow,imageability,liberal,no,1,1,5.66456809938,-,-
2019_Apr_04,104,001,1,source,13,GREATER,HF,target,left,yellow,imageability,liberal,no,8,0,5.21161814165,-,-
2019_Apr_04,104,001,1,source,14,ITSELF,HF,target,left,yellow,imageability,conservative,no,8,0,1.17302933497,-,-
2019_Apr_04,104,001,1,source,15,NEBULOUS,LF,target,right,aqua,pleasantness,liberal,yes,8,1,0.879974367002,-,-
2019_Apr_04,104,001,1,source,16,POACHED,LF,target,right,aqua,pleasantness,conservative,no,9,1,2.66618702557,-,-
2019_Apr_04,104,001,1,source,17,NUMBER,HF,target,right,aqua,pleasantness,liberal,no,9,1,1.61289883838,-,-
2019_Apr_04,104,001,1,source,18,FINAL,HF,target,right,aqua,pleasantness,conservative,no,9,1,0.946869086209,-,-
2019_Apr_04,104,001,1,source,19,FOUND,HF,target,right,aqua,pleasantness,conservative,no,9,1,2.01288798688,-,-
2019_Apr_04,104,001,1,source,20,BULBOUS,LF,target,left,yellow,imageability,liberal,no,1,1,1.0664067684,-,-
2019_Apr_04,104,001,1,source,21,PSEUDONYM,LF,target,left,yellow,imageability,liberal,no,1,1,1.772767066,-,-
2019_Apr_04,104,001,1,source,22,JEWELLED,LF,target,left,yellow,imageability,conservative,no,1,1,0.706756230629,-,-
2019_Apr_04,104,001,1,source,23,SOMEONE,HF,target,left,yellow,imageability,conservative,no,1,1,3.07912208448,-,-
2019_Apr_04,104,001,1,source,24,ABETTED,LF,target,right,aqua,pleasantness,liberal,no,9,1,1.0799722407,-,-
2019_Apr_04,104,001,1,source,25,HELICAL,LF,target,right,aqua,pleasantness,conservative,no,9,1,1.25320357484,-,-
2019_Apr_04,104,001,1,source,26,FATHER,HF,target,right,aqua,pleasantness,liberal,no,9,1,1.00004949163,-,-
2019_Apr_04,104,001,1,source,27,WRITE,HF,target,right,aqua,pleasantness,conservative,no,9,1,1.19989962364,-,-
2019_Apr_04,104,001,1,source,28,FLAGGED,LF,target,right,aqua,pleasantness,liberal,no,9,1,0.853385997315,-,-
2019_Apr_04,104,001,1,source,29,VAINLY,LF,target,right,aqua,pleasantness,liberal,yes,1,0,0.866445555175,-,-
2019_Apr_04,104,001,1,source,30,CHURCH,HF,target,left,yellow,imageability,conservative,no,1,1,1.7994276568,-,-
2019_Apr_04,104,001,1,source,31,TAKEN,HF,target,left,yellow,imageability,conservative,no,1,1,5.31803394319,-,-
2019_Apr_04,104,001,1,source,32,VALUE,HF,target,right,aqua,pleasantness,liberal,no,1,0,3.74558846281,-,-
2019_Apr_04,104,001,1,source,33,MUSIC,HF,target,right,aqua,pleasantness,liberal,no,9,1,0.946434659684,-,-
2019_Apr_04,104,001,1,source,34,AWAITS,LF,target,left,yellow,imageability,liberal,no,2,1,4.38530553199,-,-
2019_Apr_04,104,001,1,source,35,NEARLY,HF,target,right,aqua,pleasantness,liberal,no,2,0,1.41317188553,-,-
2019_Apr_04,104,001,1,source,36,TICKLE,LF,target,right,aqua,pleasantness,conservative,no,9,1,0.973315946497,-,-
2019_Apr_04,104,001,1,source,37,BOASTS,LF,target,left,yellow,imageability,conservative,no,9,0,1.10663539773,-,-
2019_Apr_04,104,001,1,source,38,TOADS,LF,target,right,aqua,pleasantness,liberal,no,9,1,0.746666647115,-,-
2019_Apr_04,104,001,1,source,39,INSIDE,HF,target,left,yellow,imageability,liberal,no,2,1,1.63971560277,-,-
2019_Apr_04,104,001,1,source,40,VEXED,LF,target,right,aqua,pleasantness,conservative,no,9,1,0.746712839302,-,-
2019_Apr_04,104,001,1,source,41,TOTAL,HF,target,right,aqua,pleasantness,conservative,no,9,1,0.866641322064,-,-
2019_Apr_04,104,001,1,source,42,ECONOMIC,HF,target,left,yellow,imageability,conservative,no,1,1,1.81274017188,-,-
2019_Apr_04,104,001,1,source,43,CIVILITY,LF,target,right,aqua,pleasantness,conservative,no,9,1,0.839846920558,-,-
2019_Apr_04,104,001,1,source,44,BRING,HF,target,right,aqua,pleasantness,conservative,no,1,0,1.09302483307,-,-
2019_Apr_04,104,001,1,source,45,SLOWLY,HF,target,left,yellow,imageability,liberal,yes,2,1,0.773490376994,-,-
2019_Apr_04,104,001,1,source,46,DESERTER,LF,target,left,yellow,imageability,conservative,no,1,1,2.18616294697,-,-
2019_Apr_04,104,001,1,source,47,NOTHING,HF,target,left,yellow,imageability,conservative,no,1,1,0.786707208254,-,-
2019_Apr_04,104,001,1,recog,0,SWEARS,LF,target,left,yellow,imageability,conservative,no,z,1,2.78593147279,1,131
2019_Apr_04,104,001,1,recog,1,DURING,HF,lure,-,-,-,liberal,no,m,1,2.10618740684,1,132
2019_Apr_04,104,001,1,recog,2,MUSIC,HF,target,right,aqua,pleasantness,liberal,no,z,1,1.25323436963,3,135
2019_Apr_04,104,001,1,recog,3,CRUCIALLY,LF,lure,-,-,-,conservative,no,m,1,4.49192186628,3,138
2019_Apr_04,104,001,1,recog,4,DEFEATING,LF,lure,-,-,-,conservative,no,m,1,2.34608103283,3,141
2019_Apr_04,104,001,1,recog,5,WRITE,HF,target,right,aqua,pleasantness,conservative,no,z,1,1.06668465474,1,142
2019_Apr_04,104,001,1,recog,6,ENERGY,HF,lure,-,-,-,conservative,no,m,1,0.746738135023,3,145
2019_Apr_04,104,001,1,recog,7,ITSELF,HF,target,left,yellow,imageability,conservative,no,z,1,1.11994607979,1,146
2019_Apr_04,104,001,1,recog,8,ROYALS,LF,target,left,yellow,imageability,liberal,no,z,1,0.706581360206,3,149
2019_Apr_04,104,001,1,recog,9,APPEARED,HF,target,left,yellow,imageability,liberal,no,z,1,1.13339387198,3,152
2019_Apr_04,104,001,1,recog,10,KITCHEN,HF,lure,-,-,-,conservative,no,m,1,2.01292758018,3,155
2019_Apr_04,104,001,1,recog,11,TAKEN,HF,target,left,yellow,imageability,conservative,no,z,1,0.959735076807,1,156
2019_Apr_04,104,001,1,recog,12,AIRBED,LF,lure,-,-,-,conservative,no,m,1,0.800078380076,3,159
2019_Apr_04,104,001,1,recog,13,ANAEMIC,LF,target,left,yellow,imageability,liberal,no,z,1,1.05330395119,3,162
2019_Apr_04,104,001,1,recog,14,PSEUDONYM,LF,target,left,yellow,imageability,liberal,no,z,1,1.18656327926,3,165
2019_Apr_04,104,001,1,recog,15,UNRAVEL,LF,lure,-,-,-,liberal,no,m,1,0.773489643785,1,166
2019_Apr_04,104,001,1,recog,16,UNABATED,LF,lure,-,-,-,conservative,no,m,1,1.37317495034,3,169
2019_Apr_04,104,001,1,recog,17,MALIGNED,LF,lure,-,-,-,conservative,no,m,1,1.19966279703,3,172
2019_Apr_04,104,001,1,recog,18,THING,HF,target,left,yellow,imageability,liberal,no,z,1,1.13326079449,3,175
2019_Apr_04,104,001,1,recog,19,SMALL,HF,lure,-,-,-,conservative,no,m,1,0.666987323544,3,178
2019_Apr_04,104,001,1,recog,20,FINAL,HF,target,right,aqua,pleasantness,conservative,no,z,1,1.63972660091,1,179
2019_Apr_04,104,001,1,recog,21,TOTAL,HF,target,right,aqua,pleasantness,conservative,no,z,1,0.90668078339,1,180
2019_Apr_04,104,001,1,recog,22,TOADS,LF,target,right,aqua,pleasantness,liberal,no,z,1,0.639878375237,3,183
2019_Apr_04,104,001,1,recog,23,HOBBLE,LF,lure,-,-,-,liberal,no,m,1,1.37318081602,1,184
2019_Apr_04,104,001,1,recog,24,JEWELLED,LF,target,left,yellow,imageability,conservative,no,z,1,2.41279281631,1,185
2019_Apr_04,104,001,1,recog,25,PALATABLE,LF,target,left,yellow,imageability,conservative,no,z,1,3.53230996864,1,186
2019_Apr_04,104,001,1,recog,26,WHETHER,HF,lure,-,-,-,conservative,no,m,1,0.960156672169,3,189
2019_Apr_04,104,001,1,recog,27,REUNITED,LF,lure,-,-,-,liberal,no,m,1,1.06674147846,1,190
2019_Apr_04,104,001,1,recog,28,GREATER,HF,target,left,yellow,imageability,liberal,no,m,0,3.91883116169,-3,187
2019_Apr_04,104,001,1,recog,29,BRING,HF,target,right,aqua,pleasantness,conservative,no,z,1,1.22666799622,1,188
2019_Apr_04,104,001,1,recog,30,DESERTER,LF,target,left,yellow,imageability,conservative,no,z,1,0.666542265485,1,189
2019_Apr_04,104,001,1,recog,31,EJECTED,LF,lure,-,-,-,liberal,no,m,1,0.853378298617,1,190
2019_Apr_04,104,001,1,recog,32,SEEMED,HF,lure,-,-,-,liberal,no,m,1,0.6665748933,1,191
2019_Apr_04,104,001,1,recog,33,LIVED,HF,lure,-,-,-,liberal,no,m,1,0.533536627838,1,192
2019_Apr_04,104,001,1,recog,34,KILOWATT,LF,lure,-,-,-,conservative,no,z,0,0.640295571342,-3,189
2019_Apr_04,104,001,1,recog,35,DOING,HF,target,left,yellow,imageability,liberal,no,m,0,0.986837792835,-3,186
2019_Apr_04,104,001,1,recog,36,SCENARIOS,LF,lure,-,-,-,conservative,no,m,1,6.85075854171,3,189
2019_Apr_04,104,001,1,recog,37,ARCADES,LF,lure,-,-,-,conservative,no,m,1,0.773450783691,3,192
2019_Apr_04,104,001,1,recog,38,MILES,HF,lure,-,-,-,liberal,no,m,1,0.746486277621,1,193
2019_Apr_04,104,001,1,recog,39,HARDLY,HF,lure,-,-,-,conservative,no,m,1,0.573518532233,3,196
2019_Apr_04,104,001,1,recog,40,NOVAS,LF,lure,-,-,-,liberal,no,m,1,0.573468307393,1,197
2019_Apr_04,104,001,1,recog,41,ROSEBUD,LF,lure,-,-,-,conservative,no,m,1,0.65347134288,3,200
2019_Apr_04,104,001,1,recog,42,INVOLVED,HF,lure,-,-,-,liberal,no,m,1,1.79966228379,1,201
2019_Apr_04,104,001,1,recog,43,BLEACH,LF,lure,-,-,-,liberal,no,m,1,0.760108207032,1,202
2019_Apr_04,104,001,1,recog,44,INSIDE,HF,target,left,yellow,imageability,liberal,no,m,0,0.666798155538,-3,199
2019_Apr_04,104,001,1,recog,45,AWAITS,LF,target,left,yellow,imageability,liberal,no,m,0,1.50645884093,-3,196
2019_Apr_04,104,001,1,recog,46,ABETTED,LF,target,right,aqua,pleasantness,liberal,no,z,1,0.893369368127,3,199
2019_Apr_04,104,001,1,recog,47,EDUCATION,HF,lure,-,-,-,conservative,no,m,1,0.773367931037,3,202
2019_Apr_04,104,001,1,recog,48,ANIMAL,HF,lure,-,-,-,conservative,no,m,1,0.866758635556,3,205
2019_Apr_04,104,001,1,recog,49,PADDLE,LF,target,right,aqua,pleasantness,liberal,no,z,1,0.5869483608,3,208
2019_Apr_04,104,001,1,recog,50,NIGHT,HF,lure,-,-,-,liberal,no,m,1,0.653449713205,1,209
2019_Apr_04,104,001,1,recog,51,FECKLESS,LF,lure,-,-,-,liberal,no,m,1,0.946642891133,1,210
2019_Apr_04,104,001,1,recog,52,ACROSS,HF,lure,-,-,-,conservative,no,m,1,0.840043420656,3,213
2019_Apr_04,104,001,1,recog,53,NEARLY,HF,target,right,aqua,pleasantness,liberal,no,z,1,1.83970944381,3,216
2019_Apr_04,104,001,1,recog,54,DINER,LF,target,left,yellow,imageability,conservative,no,z,1,0.666744631259,1,217
2019_Apr_04,104,001,1,recog,55,SLOWLY,HF,target,left,yellow,imageability,liberal,no,z,1,3.54543111608,3,220
2019_Apr_04,104,001,1,recog,56,TICKLE,LF,target,right,aqua,pleasantness,conservative,no,z,1,0.546852075752,1,221
2019_Apr_04,104,001,1,recog,57,BOASTS,LF,target,left,yellow,imageability,conservative,no,z,1,0.626796087889,1,222
2019_Apr_04,104,001,1,recog,58,CHURCH,HF,target,left,yellow,imageability,conservative,no,z,1,2.38608676653,1,223
2019_Apr_04,104,001,1,recog,59,FISHY,LF,target,right,aqua,pleasantness,conservative,no,z,1,0.520164356201,1,224
2019_Apr_04,104,001,1,recog,60,ECONOMIC,HF,target,left,yellow,imageability,conservative,no,z,1,2.61270893716,1,225
2019_Apr_04,104,001,1,recog,61,NOTHING,HF,target,left,yellow,imageability,conservative,no,z,1,1.57308630534,1,226
2019_Apr_04,104,001,1,recog,62,HELICAL,LF,target,right,aqua,pleasantness,conservative,yes,m,0,0.840088879634,-1,225
2019_Apr_04,104,001,1,recog,63,SOMEONE,HF,target,left,yellow,imageability,conservative,no,z,1,2.14597171132,1,226
2019_Apr_04,104,001,1,recog,64,FOUND,HF,target,right,aqua,pleasantness,conservative,no,z,1,0.73360049037,1,227
2019_Apr_04,104,001,1,recog,65,VEXED,LF,target,right,aqua,pleasantness,conservative,no,m,0,0.853085748097,-1,226
2019_Apr_04,104,001,1,recog,66,ABATED,LF,lure,-,-,-,liberal,no,z,0,1.03984589406,-1,225
2019_Apr_04,104,001,1,recog,67,HOWEVER,HF,lure,-,-,-,liberal,yes,m,1,0.586811617262,1,226
2019_Apr_04,104,001,1,recog,68,WHITE,HF,lure,-,-,-,conservative,no,m,1,1.74639939232,3,229
2019_Apr_04,104,001,1,recog,69,BECAME,HF,lure,-,-,-,liberal,no,m,1,0.560158725154,1,230
2019_Apr_04,104,001,1,recog,70,VAINLY,LF,target,right,aqua,pleasantness,liberal,no,z,1,1.33315711869,3,233
2019_Apr_04,104,001,1,recog,71,LAUNCHER,LF,lure,-,-,-,liberal,no,m,1,0.733376494922,1,234
2019_Apr_04,104,001,1,recog,72,GIVEN,HF,lure,-,-,-,conservative,no,m,1,0.920008695863,3,237
2019_Apr_04,104,001,1,recog,73,NEBULOUS,LF,target,right,aqua,pleasantness,liberal,no,z,1,0.906555037991,3,240
2019_Apr_04,104,001,1,recog,74,SUCCESS,HF,lure,-,-,-,liberal,no,m,1,0.746485911017,1,241
2019_Apr_04,104,001,1,recog,75,THEORY,HF,lure,-,-,-,liberal,yes,m,1,0.773320639036,1,242
2019_Apr_04,104,001,1,recog,76,POACHED,LF,target,right,aqua,pleasantness,conservative,no,z,1,0.720231518176,1,243
2019_Apr_04,104,001,1,recog,77,PAYOFF,LF,target,left,yellow,imageability,liberal,no,m,0,0.626553028997,-3,240
2019_Apr_04,104,001,1,recog,78,MEETING,HF,target,right,aqua,pleasantness,liberal,no,m,0,1.26653661977,-3,237
2019_Apr_04,104,001,1,recog,79,FATHER,HF,target,right,aqua,pleasantness,liberal,no,z,1,1.19968442671,3,240
2019_Apr_04,104,001,1,recog,80,BETTER,HF,target,right,aqua,pleasantness,conservative,no,z,1,1.1732830254,1,241
2019_Apr_04,104,001,1,recog,81,ENSCONCED,LF,lure,-,-,-,conservative,no,m,1,3.79878206599,3,244
2019_Apr_04,104,001,1,recog,82,TWENTY,HF,lure,-,-,-,liberal,no,m,1,1.02664189397,1,245
2019_Apr_04,104,001,1,recog,83,MODERN,HF,lure,-,-,-,liberal,no,m,1,0.720286508875,1,246
2019_Apr_04,104,001,1,recog,84,FLAGGED,LF,target,right,aqua,pleasantness,liberal,no,m,0,1.83963465646,-3,243
2019_Apr_04,104,001,1,recog,85,PHYSICAL,HF,lure,-,-,-,conservative,no,z,0,3.93686334518,-3,240
2019_Apr_04,104,001,1,recog,86,ESCALATED,LF,lure,-,-,-,liberal,no,z,0,6.46422964996,-1,239
2019_Apr_04,104,001,1,recog,87,VALUE,HF,target,right,aqua,pleasantness,liberal,yes,m,0,0.706741199838,-3,236
2019_Apr_04,104,001,1,recog,88,PAWNS,LF,lure,-,-,-,liberal,no,m,1,2.03954051238,1,237
2019_Apr_04,104,001,1,recog,89,SEVEN,HF,lure,-,-,-,conservative,no,m,1,0.693453980483,3,240
2019_Apr_04,104,001,1,recog,90,BULBOUS,LF,target,left,yellow,imageability,liberal,no,z,1,0.586788154564,3,243
2019_Apr_04,104,001,1,recog,91,ABBOT,LF,lure,-,-,-,conservative,no,m,1,0.773397626015,3,246
2019_Apr_04,104,001,1,recog,92,NUMBER,HF,target,right,aqua,pleasantness,liberal,no,z,1,0.733453848507,3,249
2019_Apr_04,104,001,1,recog,93,OSTRACISM,LF,lure,-,-,-,conservative,no,m,1,0.604419639159,3,252
2019_Apr_04,104,001,1,recog,94,CIVILITY,LF,target,right,aqua,pleasantness,conservative,no,z,1,1.25321347316,1,253
2019_Apr_04,104,001,1,recog,95,WILDFOWL,LF,lure,-,-,-,liberal,no,m,1,0.706548732391,1,254
2019_Apr_04,104,001,2,source,0,INHABITS,LF,target,left,yellow,imageability,conservative,no,2,1,3.54571193525,-,-
2019_Apr_04,104,001,2,source,1,CALLED,HF,target,left,yellow,imageability,liberal,no,1,1,1.46621371439,-,-
2019_Apr_04,104,001,2,source,2,CAPITAL,HF,target,left,yellow,imageability,conservative,no,1,1,1.03997860495,-,-
2019_Apr_04,104,001,2,source,3,KNOWLEDGE,HF,target,right,aqua,pleasantness,liberal,no,9,1,2.41275688905,-,-
2019_Apr_04,104,001,2,source,4,DEGREE,HF,target,right,aqua,pleasantness,liberal,no,9,1,0.906696180786,-,-
2019_Apr_04,104,001,2,source,5,CLEAR,HF,target,right,aqua,pleasantness,liberal,no,9,1,1.30629526193,-,-
2019_Apr_04,104,001,2,source,6,MANDARIN,LF,target,left,yellow,imageability,liberal,no,1,1,1.14635811263,-,-
2019_Apr_04,104,001,2,source,7,CLOSE,HF,target,left,yellow,imageability,liberal,no,1,1,2.75904322049,-,-
2019_Apr_04,104,001,2,source,8,CAIRN,LF,target,right,aqua,pleasantness,conservative,no,9,1,0.853349703454,-,-
2019_Apr_04,104,001,2,source,9,HIVES,LF,target,left,yellow,imageability,liberal,no,9,0,1.06638257249,-,-
2019_Apr_04,104,001,2,source,10,HYPNOSIS,LF,target,left,yellow,imageability,liberal,no,1,1,1.49309060194,-,-
2019_Apr_04,104,001,2,source,11,ALONE,HF,target,right,aqua,pleasantness,conservative,no,9,1,0.973146575143,-,-
2019_Apr_04,104,001,2,source,12,PHANTOMS,LF,target,left,yellow,imageability,conservative,no,1,1,2.61263781586,-,-
2019_Apr_04,104,001,2,source,13,ADDED,HF,target,left,yellow,imageability,liberal,no,1,1,1.46611949699,-,-
2019_Apr_04,104,001,2,source,14,QUOTAS,LF,target,right,aqua,pleasantness,conservative,no,9,1,0.786697676534,-,-
2019_Apr_04,104,001,2,source,15,CUBED,LF,target,right,aqua,pleasantness,liberal,yes,8,1,0.813417290689,-,-
2019_Apr_04,104,001,2,source,16,UNJUSTLY,LF,target,left,yellow,imageability,conservative,no,2,1,3.23905666755,-,-
2019_Apr_04,104,001,2,source,17,SPEAK,HF,target,left,yellow,imageability,conservative,no,1,1,1.89294337351,-,-
2019_Apr_04,104,001,2,source,18,REQUIRED,HF,target,left,yellow,imageability,liberal,no,1,1,0.799858417279,-,-
2019_Apr_04,104,001,2,source,19,ARRIVED,HF,target,right,aqua,pleasantness,liberal,no,1,0,0.94669311597,-,-
2019_Apr_04,104,001,2,source,20,WAITING,HF,target,right,aqua,pleasantness,liberal,no,1,0,2.15926223012,-,-
2019_Apr_04,104,001,2,source,21,SERIOUS,HF,target,left,yellow,imageability,conservative,no,1,1,3.35901704492,-,-
2019_Apr_04,104,001,2,source,22,DIMMED,LF,target,right,aqua,pleasantness,liberal,no,9,1,1.03963692941,-,-
2019_Apr_04,104,001,2,source,23,AGATE,LF,target,right,aqua,pleasantness,conservative,no,9,1,0.826498111619,-,-
2019_Apr_04,104,001,2,source,24,CONCERNED,HF,target,left,yellow,imageability,conservative,no,8,0,0.866709510531,-,-
2019_Apr_04,104,001,2,source,25,BUNGALOWS,LF,target,right,aqua,pleasantness,conservative,no,9,1,0.999354775796,-,-
2019_Apr_04,104,001,2,source,26,AEGIS,LF,target,right,aqua,pleasantness,liberal,no,9,1,1.51941574948,-,-
2019_Apr_04,104,001,2,source,27,TOYED,LF,target,right,aqua,pleasantness,conservative,no,9,1,0.693173894522,-,-
2019_Apr_04,104,001,2,source,28,SHORT,HF,target,left,yellow,imageability,conservative,no,1,1,0.826473915712,-,-
2019_Apr_04,104,001,2,source,29,FOOLHARDY,LF,target,left,yellow,imageability,conservative,no,1,1,0.999688386038,-,-
2019_Apr_04,104,001,2,source,30,DORMS,LF,target,right,aqua,pleasantness,liberal,no,9,1,0.839818325394,-,-
2019_Apr_04,104,001,2,source,31,TODAY,HF,target,left,yellow,imageability,conservative,no,1,1,3.38547050409,-,-
2019_Apr_04,104,001,2,source,32,TOGETHER,HF,target,right,aqua,pleasantness,liberal,no,1,0,0.759839485815,-,-
2019_Apr_04,104,001,2,source,33,EXCEPT,HF,target,right,aqua,pleasantness,conservative,no,9,1,3.79862112655,-,-
2019_Apr_04,104,001,2,source,34,BUZZARD,LF,target,left,yellow,imageability,conservative,no,9,0,1.146355913,-,-
2019_Apr_04,104,001,2,source,35,BEAUTIFUL,HF,target,right,aqua,pleasantness,conservative,no,9,1,3.66558579392,-,-
2019_Apr_04,104,001,2,source,36,LOOKED,HF,target,right,aqua,pleasantness,conservative,yes,2,0,1.0802083341,-,-
2019_Apr_04,104,001,2,source,37,HEALTH,HF,target,right,aqua,pleasantness,conservative,no,9,1,1.81296490054,-,-
2019_Apr_04,104,001,2,source,38,PURCHASER,LF,target,left,yellow,imageability,liberal,no,9,0,1.06660143548,-,-
2019_Apr_04,104,001,2,source,39,GUILDHALL,LF,target,right,aqua,pleasantness,liberal,yes,8,1,0.906662819762,-,-
2019_Apr_04,104,001,2,source,40,APRICOT,LF,target,right,aqua,pleasantness,liberal,no,9,1,1.61306894294,-,-
2019_Apr_04,104,001,2,source,41,USING,HF,target,right,aqua,pleasantness,conservative,no,1,0,1.09323233131,-,-
2019_Apr_04,104,001,2,source,42,BOMBARDED,LF,target,right,aqua,pleasantness,conservative,no,9,1,1.90602052839,-,-
2019_Apr_04,104,001,2,source,43,JARRED,LF,target,left,yellow,imageability,liberal,no,2,1,1.33317581553,-,-
2019_Apr_04,104,001,2,source,44,PUBLIC,HF,target,left,yellow,imageability,liberal,no,2,1,1.07994951121,-,-
2019_Apr_04,104,001,2,source,45,CUTLER,LF,target,left,yellow,imageability,liberal,yes,8,0,1.18653138466,-,-
2019_Apr_04,104,001,2,source,46,DILATED,LF,target,left,yellow,imageability,conservative,no,1,1,2.53245881013,-,-
2019_Apr_04,104,001,2,source,47,UNLESS,HF,target,left,yellow,imageability,liberal,no,1,1,0.679924435447,-,-
2019_Apr_04,104,001,2,recog,0,BOMBARDED,LF,target,right,aqua,pleasantness,conservative,no,z,1,1.94629864935,1,255
2019_Apr_04,104,001,2,recog,1,LAPELS,LF,lure,-,-,-,conservative,no,m,1,0.999926312463,3,258
2019_Apr_04,104,001,2,recog,2,LIZARD,LF,lure,-,-,-,conservative,no,m,1,1.05331934859,3,261
2019_Apr_04,104,001,2,recog,3,EIGHT,HF,lure,-,-,-,conservative,no,m,1,2.17262020417,3,264
2019_Apr_04,104,001,2,recog,4,GEYSER,LF,lure,-,-,-,liberal,no,m,1,0.786703542208,1,265
2019_Apr_04,104,001,2,recog,5,UNLESS,HF,target,left,yellow,imageability,liberal,no,m,0,1.34652132503,-3,262
2019_Apr_04,104,001,2,recog,6,RUDIMENTS,LF,lure,-,-,-,conservative,no,m,1,2.29252779047,3,265
2019_Apr_04,104,001,2,recog,7,TOYED,LF,target,right,aqua,pleasantness,conservative,no,z,1,1.35983787275,1,266
2019_Apr_04,104,001,2,recog,8,CALLED,HF,target,left,yellow,imageability,liberal,no,z,1,0.666769193771,3,269
2019_Apr_04,104,001,2,recog,9,REQUIRED,HF,target,left,yellow,imageability,liberal,no,z,1,0.506843409218,3,272
2019_Apr_04,104,001,2,recog,10,PRIVATE,HF,lure,-,-,-,liberal,no,z,0,2.62600642145,-1,271
2019_Apr_04,104,001,2,recog,11,MASKING,LF,lure,-,-,-,liberal,no,m,1,0.973331710496,1,272
2019_Apr_04,104,001,2,recog,12,INCLUDING,HF,lure,-,-,-,liberal,yes,m,1,0.600143195781,1,273
2019_Apr_04,104,001,2,recog,13,TAUNTED,LF,lure,-,-,-,conservative,no,m,1,1.53310000169,3,276
2019_Apr_04,104,001,2,recog,14,AHEAD,HF,lure,-,-,-,liberal,no,m,1,1.59977952396,1,277
2019_Apr_04,104,001,2,recog,15,MIDDLE,HF,lure,-,-,-,conservative,no,m,1,1.50617838836,3,280
2019_Apr_04,104,001,2,recog,16,AEGIS,LF,target,right,aqua,pleasantness,liberal,no,z,1,1.3466060107,3,283
2019_Apr_04,104,001,2,recog,17,LOCAL,HF,lure,-,-,-,liberal,no,z,0,1.13328095775,-1,282
2019_Apr_04,104,001,2,recog,18,CANNOT,HF,lure,-,-,-,conservative,no,m,1,0.800049784913,3,285
2019_Apr_04,104,001,2,recog,19,CLOSE,HF,target,left,yellow,imageability,liberal,no,z,1,0.640106036733,3,288
2019_Apr_04,104,001,2,recog,20,AGATE,LF,target,right,aqua,pleasantness,conservative,no,z,1,0.746550066831,1,289
2019_Apr_04,104,001,2,recog,21,DOUBT,HF,lure,-,-,-,liberal,no,m,1,0.653471342881,1,290
2019_Apr_04,104,001,2,recog,22,TOWARDS,HF,lure,-,-,-,liberal,no,z,0,1.42621567939,-1,289
2019_Apr_04,104,001,2,recog,23,BEAUTIFUL,HF,target,right,aqua,pleasantness,conservative,no,z,1,0.666553996834,1,290
2019_Apr_04,104,001,2,recog,24,VIBRATE,LF,lure,-,-,-,liberal,no,m,1,0.839784597765,1,291
2019_Apr_04,104,001,2,recog,25,USING,HF,target,right,aqua,pleasantness,conservative,no,z,1,0.75975260051,1,292
2019_Apr_04,104,001,2,recog,26,HYPNOSIS,LF,target,left,yellow,imageability,liberal,no,z,1,0.999982036372,3,295
2019_Apr_04,104,001,2,recog,27,DEGREE,HF,target,right,aqua,pleasantness,liberal,no,z,1,0.70671700393,3,298
2019_Apr_04,104,001,2,recog,28,DILATED,LF,target,left,yellow,imageability,conservative,no,z,1,0.573418815764,1,299
2019_Apr_04,104,001,2,recog,29,HEALTH,HF,target,right,aqua,pleasantness,conservative,no,z,1,0.640169092734,1,300
2019_Apr_04,104,001,2,recog,30,PLEASE,HF,lure,-,-,-,liberal,no,m,1,1.75972657158,1,301
2019_Apr_04,104,001,2,recog,31,OFFER,HF,lure,-,-,-,liberal,yes,m,1,0.72008707594,1,302
2019_Apr_04,104,001,2,recog,32,BUZZARD,LF,target,left,yellow,imageability,conservative,no,z,1,0.946653156063,1,303
2019_Apr_04,104,001,2,recog,33,ALONE,HF,target,right,aqua,pleasantness,conservative,no,z,1,0.62682138361,1,304
2019_Apr_04,104,001,2,recog,34,OBNOXIOUS,LF,lure,-,-,-,conservative,no,m,1,0.813403359713,3,307
2019_Apr_04,104,001,2,recog,35,SHORT,HF,target,left,yellow,imageability,conservative,no,z,1,0.99996150651,1,308
2019_Apr_04,104,001,2,recog,36,WOODCOCK,LF,lure,-,-,-,liberal,no,m,1,0.720058480776,1,309
2019_Apr_04,104,001,2,recog,37,ATTACK,HF,lure,-,-,-,conservative,no,m,1,0.7868523837,3,312
2019_Apr_04,104,001,2,recog,38,DIMMED,LF,target,right,aqua,pleasantness,liberal,no,z,1,0.693573493603,3,315
2019_Apr_04,104,001,2,recog,39,PAINTWORK,LF,lure,-,-,-,liberal,no,m,1,1.33315528567,1,316
2019_Apr_04,104,001,2,recog,40,QUOTAS,LF,target,right,aqua,pleasantness,conservative,no,z,1,0.813377697385,1,317
2019_Apr_04,104,001,2,recog,41,MEANS,HF,lure,-,-,-,liberal,no,m,1,0.706754397606,1,318
2019_Apr_04,104,001,2,recog,42,PUBLIC,HF,target,left,yellow,imageability,liberal,no,z,1,0.560322230833,3,321
2019_Apr_04,104,001,2,recog,43,KNOWLEDGE,HF,target,right,aqua,pleasantness,liberal,no,z,1,0.480190883715,3,324
2019_Apr_04,104,001,2,recog,44,TONAL,LF,lure,-,-,-,liberal,yes,m,1,0.506940192849,1,325
2019_Apr_04,104,001,2,recog,45,APRICOT,LF,target,right,aqua,pleasantness,liberal,no,m,0,0.826715874789,-3,322
2019_Apr_04,104,001,2,recog,46,WAITING,HF,target,right,aqua,pleasantness,liberal,no,z,1,0.813153335333,3,325
2019_Apr_04,104,001,2,recog,47,INHABITS,LF,target,left,yellow,imageability,conservative,no,z,1,1.01330444977,1,326
2019_Apr_04,104,001,2,recog,48,PUFFS,LF,lure,-,-,-,liberal,no,m,1,0.746734835582,1,327
2019_Apr_04,104,001,2,recog,49,TOGETHER,HF,target,right,aqua,pleasantness,liberal,no,z,1,2.35933232493,3,330
2019_Apr_04,104,001,2,recog,50,PURCHASER,LF,target,left,yellow,imageability,liberal,no,z,1,0.693431250995,3,333
2019_Apr_04,104,001,2,recog,51,JARRED,LF,target,left,yellow,imageability,liberal,no,z,1,0.600205518574,3,336
2019_Apr_04,104,001,2,recog,52,CLEAR,HF,target,right,aqua,pleasantness,liberal,no,z,1,0.666808053864,3,339
2019_Apr_04,104,001,2,recog,53,SITTING,HF,lure,-,-,-,conservative,no,m,1,2.14617041104,3,342
2019_Apr_04,104,001,2,recog,54,LOOKED,HF,target,right,aqua,pleasantness,conservative,no,m,0,1.5464546763,-1,341
2019_Apr_04,104,001,2,recog,55,WAFER,LF,lure,-,-,-,conservative,no,m,1,0.853377198803,3,344
2019_Apr_04,104,001,2,recog,56,LETTER,HF,lure,-,-,-,conservative,no,m,1,1.41292516059,3,347
2019_Apr_04,104,001,2,recog,57,MOUTH,HF,lure,-,-,-,conservative,no,m,1,0.959983268163,3,350
2019_Apr_04,104,001,2,recog,58,FOOLHARDY,LF,target,left,yellow,imageability,conservative,no,z,1,0.639868476911,1,351
2019_Apr_04,104,001,2,recog,59,HIVES,LF,target,left,yellow,imageability,liberal,no,z,1,1.23969639268,3,354
2019_Apr_04,104,001,2,recog,60,BUNGALOWS,LF,target,right,aqua,pleasantness,conservative,no,z,1,0.56017412255,1,355
2019_Apr_04,104,001,2,recog,61,BUBBLED,LF,lure,-,-,-,conservative,no,m,1,0.961982729988,3,358
2019_Apr_04,104,001,2,recog,62,CUBED,LF,target,right,aqua,pleasantness,liberal,no,m,0,0.920231958102,-3,355
2019_Apr_04,104,001,2,recog,63,FASCINATE,LF,lure,-,-,-,conservative,no,m,1,0.680072177126,3,358
2019_Apr_04,104,001,2,recog,64,ADDED,HF,target,left,yellow,imageability,liberal,no,m,0,1.27985390071,-3,355
2019_Apr_04,104,001,2,recog,65,GIRLS,HF,lure,-,-,-,conservative,no,m,1,1.32002020725,3,358
2019_Apr_04,104,001,2,recog,66,EARLIER,HF,lure,-,-,-,conservative,no,m,1,2.46605240834,3,361
2019_Apr_04,104,001,2,recog,67,DODGED,LF,lure,-,-,-,conservative,no,m,1,1.19994141657,3,364
2019_Apr_04,104,001,2,recog,68,DOLPHIN,LF,lure,-,-,-,liberal,no,m,1,0.653495538788,1,365
2019_Apr_04,104,001,2,recog,69,CUTLER,LF,target,left,yellow,imageability,liberal,no,z,1,0.933355671777,3,368
2019_Apr_04,104,001,2,recog,70,ARRIVED,HF,target,right,aqua,pleasantness,liberal,no,z,1,0.720063246636,3,371
2019_Apr_04,104,001,2,recog,71,JAUNDICE,LF,lure,-,-,-,conservative,no,m,1,0.840051485959,3,374
2019_Apr_04,104,001,2,recog,72,UDDER,LF,lure,-,-,-,liberal,no,m,1,0.693426485133,1,375
2019_Apr_04,104,001,2,recog,73,UNJUSTLY,LF,target,left,yellow,imageability,conservative,no,m,0,1.41313339204,-1,374
2019_Apr_04,104,001,2,recog,74,SPEAK,HF,target,left,yellow,imageability,conservative,no,z,1,2.7459187736,1,375
2019_Apr_04,104,001,2,recog,75,EVENING,HF,lure,-,-,-,liberal,no,z,0,1.93291757921,-1,374
2019_Apr_04,104,001,2,recog,76,GUILDHALL,LF,target,right,aqua,pleasantness,liberal,no,z,1,1.93262099604,3,377
2019_Apr_04,104,001,2,recog,77,MANDARIN,LF,target,left,yellow,imageability,liberal,no,z,1,0.759884944793,3,380
2019_Apr_04,104,001,2,recog,78,CONCERNED,HF,target,left,yellow,imageability,conservative,no,z,1,0.839786797393,1,381
2019_Apr_04,104,001,2,recog,79,STEADFAST,LF,lure,-,-,-,liberal,no,m,1,0.893286148869,1,382
2019_Apr_04,104,001,2,recog,80,CAIRN,LF,target,right,aqua,pleasantness,conservative,no,z,1,0.95996567114,1,383
2019_Apr_04,104,001,2,recog,81,SERIOUS,HF,target,left,yellow,imageability,conservative,no,z,1,1.26655385019,1,384
2019_Apr_04,104,001,2,recog,82,CINDER,LF,lure,-,-,-,conservative,no,m,1,0.733410955761,3,387
2019_Apr_04,104,001,2,recog,83,TODAY,HF,target,left,yellow,imageability,conservative,no,z,1,1.69273286911,1,388
2019_Apr_04,104,001,2,recog,84,CORNER,HF,lure,-,-,-,conservative,no,m,1,0.813353501478,3,391
2019_Apr_04,104,001,2,recog,85,EXCEPT,HF,target,right,aqua,pleasantness,conservative,no,z,1,0.813402993108,1,392
2019_Apr_04,104,001,2,recog,86,CAPITAL,HF,target,left,yellow,imageability,conservative,no,z,1,0.746724204047,1,393
2019_Apr_04,104,001,2,recog,87,CERTAIN,HF,lure,-,-,-,conservative,no,m,1,1.09339950303,3,396
2019_Apr_04,104,001,2,recog,88,FANATICS,LF,lure,-,-,-,liberal,no,m,1,0.893336740312,1,397
2019_Apr_04,104,001,2,recog,89,PHANTOMS,LF,target,left,yellow,imageability,conservative,yes,m,0,0.74675279921,-1,396
2019_Apr_04,104,001,2,recog,90,RICKETS,LF,lure,-,-,-,liberal,no,m,1,1.78610341038,1,397
2019_Apr_04,104,001,2,recog,91,DIABETIC,LF,lure,-,-,-,conservative,no,m,1,0.946675885551,3,400
2019_Apr_04,104,001,2,recog,92,MATERIAL,HF,lure,-,-,-,conservative,no,m,1,1.07998947111,3,403
2019_Apr_04,104,001,2,recog,93,WOMAN,HF,lure,-,-,-,liberal,no,m,1,0.906922375862,1,404
2019_Apr_04,104,001,2,recog,94,DORMS,LF,target,right,aqua,pleasantness,liberal,no,z,1,0.706754397606,3,407
2019_Apr_04,104,001,2,recog,95,DOCTOR,HF,lure,-,-,-,liberal,no,m,1,0.813424989386,1,408
2019_Apr_04,104,001,3,source,0,BOLDNESS,LF,target,right,aqua,pleasantness,conservative,no,None,-1,-1,-,-
2019_Apr_04,104,001,3,source,1,NARRATOR,LF,target,left,yellow,imageability,conservative,yes,2,1,0.839777265672,-,-
2019_Apr_04,104,001,3,source,2,WHATEVER,HF,target,left,yellow,imageability,liberal,no,9,0,1.6394824422,-,-
2019_Apr_04,104,001,3,source,3,SINCE,HF,target,left,yellow,imageability,liberal,no,1,1,1.59971720116,-,-
2019_Apr_04,104,001,3,source,4,AGILITY,LF,target,left,yellow,imageability,conservative,no,1,1,1.14670418743,-,-
2019_Apr_04,104,001,3,source,5,CAUGHT,HF,target,right,aqua,pleasantness,conservative,no,8,1,1.14656341124,-,-
2019_Apr_04,104,001,3,source,6,ANTELOPES,LF,target,left,yellow,imageability,liberal,no,8,0,1.93267378711,-,-
2019_Apr_04,104,001,3,source,7,ONCOMING,LF,target,left,yellow,imageability,liberal,no,1,1,1.2396663311,-,-
2019_Apr_04,104,001,3,source,8,SONAR,LF,target,left,yellow,imageability,conservative,no,1,1,1.266523422,-,-
2019_Apr_04,104,001,3,source,9,GESTURING,LF,target,right,aqua,pleasantness,liberal,no,8,1,2.09287672478,-,-
2019_Apr_04,104,001,3,source,10,ICILY,LF,target,left,yellow,imageability,conservative,no,1,1,1.09326495912,-,-
2019_Apr_04,104,001,3,source,11,ABOVE,HF,target,right,aqua,pleasantness,liberal,no,9,1,1.57308227269,-,-
2019_Apr_04,104,001,3,source,12,NEEDED,HF,target,right,aqua,pleasantness,liberal,no,9,1,1.02641349926,-,-
2019_Apr_04,104,001,3,source,13,HEDGED,LF,target,right,aqua,pleasantness,liberal,no,9,1,1.19992125332,-,-
2019_Apr_04,104,001,3,source,14,ASHEN,LF,target,right,aqua,pleasantness,liberal,no,9,1,0.933319011311,-,-
2019_Apr_04,104,001,3,source,15,TERMS,HF,target,right,aqua,pleasantness,conservative,no,9,1,0.986628828177,-,-
2019_Apr_04,104,001,3,source,16,NATIONAL,HF,target,right,aqua,pleasantness,liberal,no,9,1,1.14650878715,-,-
2019_Apr_04,104,001,3,source,17,HAUNCHES,LF,target,left,yellow,imageability,liberal,no,9,0,1.3331655506,-,-
2019_Apr_04,104,001,3,source,18,DICHOTOMY,LF,target,left,yellow,imageability,conservative,yes,8,0,0.813369998687,-,-
2019_Apr_04,104,001,3,source,19,GARDEN,HF,target,left,yellow,imageability,liberal,no,1,1,1.17327056084,-,-
2019_Apr_04,104,001,3,source,20,COMES,HF,target,left,yellow,imageability,conservative,no,1,1,0.879795097322,-,-
2019_Apr_04,104,001,3,source,21,TROUBLE,HF,target,left,yellow,imageability,conservative,no,1,1,1.11991491839,-,-
2019_Apr_04,104,001,3,source,22,BEGAN,HF,target,left,yellow,imageability,conservative,no,1,1,0.813368165665,-,-
2019_Apr_04,104,001,3,source,23,SOVIET,HF,target,left,yellow,imageability,liberal,no,2,1,1.85266781878,-,-
2019_Apr_04,104,001,3,source,24,VIOLATING,LF,target,right,aqua,pleasantness,conservative,no,9,1,1.31962940668,-,-
2019_Apr_04,104,001,3,source,25,TRUTH,HF,target,left,yellow,imageability,liberal,no,9,0,1.03995294263,-,-
2019_Apr_04,104,001,3,source,26,SLEEP,HF,target,right,aqua,pleasantness,liberal,no,9,1,0.826662350508,-,-
2019_Apr_04,104,001,3,source,27,BUMBLING,LF,target,left,yellow,imageability,liberal,no,1,1,0.760075945821,-,-
2019_Apr_04,104,001,3,source,28,GLOBULAR,LF,target,right,aqua,pleasantness,conservative,no,1,0,0.68008354187,-,-
2019_Apr_04,104,001,3,source,29,SUMMER,HF,target,right,aqua,pleasantness,liberal,no,9,1,1.95958990136,-,-
2019_Apr_04,104,001,3,source,30,REIGNING,LF,target,right,aqua,pleasantness,conservative,no,9,1,1.91959076655,-,-
2019_Apr_04,104,001,3,source,31,RECENT,HF,target,left,yellow,imageability,conservative,no,9,0,1.73324231762,-,-
2019_Apr_04,104,001,3,source,32,GENERAL,HF,target,left,yellow,imageability,conservative,no,8,0,1.43960224861,-,-
2019_Apr_04,104,001,3,source,33,LIKELY,HF,target,right,aqua,pleasantness,conservative,no,2,0,1.03996834002,-,-
2019_Apr_04,104,001,3,source,34,PROBABLY,HF,target,right,aqua,pleasantness,conservative,yes,9,1,1.06714914284,-,-
2019_Apr_04,104,001,3,source,35,HUMAN,HF,target,right,aqua,pleasantness,conservative,no,9,1,3.11895991325,-,-
2019_Apr_04,104,001,3,source,36,SNEAKED,LF,target,left,yellow,imageability,liberal,no,1,1,1.6394978396,-,-
2019_Apr_04,104,001,3,source,37,OUGHT,HF,target,left,yellow,imageability,liberal,no,1,1,1.39960238058,-,-
2019_Apr_04,104,001,3,source,38,DUNGEON,LF,target,left,yellow,imageability,conservative,no,1,1,0.933450622385,-,-
2019_Apr_04,104,001,3,source,39,ALERTING,LF,target,left,yellow,imageability,liberal,no,1,1,1.14635334677,-,-
2019_Apr_04,104,001,3,source,40,UNNAMED,LF,target,right,aqua,pleasantness,liberal,no,2,0,2.55934742904,-,-
2019_Apr_04,104,001,3,source,41,GABLE,LF,target,right,aqua,pleasantness,conservative,no,8,1,1.25300524171,-,-
2019_Apr_04,104,001,3,source,42,PAPER,HF,target,right,aqua,pleasantness,conservative,no,9,1,1.79943425569,-,-
2019_Apr_04,104,001,3,source,43,IMPORTANT,HF,target,right,aqua,pleasantness,liberal,no,9,1,0.786724072069,-,-
2019_Apr_04,104,001,3,source,44,DIDACTIC,LF,target,right,aqua,pleasantness,liberal,yes,8,1,0.813173865194,-,-
2019_Apr_04,104,001,3,source,45,AREAS,HF,target,left,yellow,imageability,conservative,no,9,0,0.640108602965,-,-
2019_Apr_04,104,001,3,source,46,ZIGZAG,LF,target,right,aqua,pleasantness,liberal,no,9,1,0.666783491352,-,-
2019_Apr_04,104,001,3,source,47,GEOLOGIST,LF,target,right,aqua,pleasantness,conservative,no,9,1,1.1468434972,-,-
2019_Apr_04,104,001,3,recog,0,GLOBULAR,LF,target,right,aqua,pleasantness,conservative,no,z,1,1.54620061927,1,409
2019_Apr_04,104,001,3,recog,1,SINCE,HF,target,left,yellow,imageability,liberal,no,z,1,1.21321360514,3,412
2019_Apr_04,104,001,3,recog,2,GASEOUS,LF,lure,-,-,-,conservative,no,m,1,0.800060416448,3,415
2019_Apr_04,104,001,3,recog,3,HAUNCHES,LF,target,left,yellow,imageability,liberal,no,z,1,0.706785559003,3,418
2019_Apr_04,104,001,3,recog,4,AGILITY,LF,target,left,yellow,imageability,conservative,no,z,1,0.760073746194,1,419
2019_Apr_04,104,001,3,recog,5,ANTELOPES,LF,target,left,yellow,imageability,liberal,no,z,1,0.680106271359,3,422
2019_Apr_04,104,001,3,recog,6,ROCKER,LF,lure,-,-,-,conservative,no,m,1,0.573459142277,3,425
2019_Apr_04,104,001,3,recog,7,CAUGHT,HF,target,right,aqua,pleasantness,conservative,no,z,1,0.666757829026,1,426
2019_Apr_04,104,001,3,recog,8,DEITIES,LF,lure,-,-,-,conservative,yes,m,1,0.680276009318,3,429
2019_Apr_04,104,001,3,recog,9,AILMENT,LF,lure,-,-,-,conservative,no,m,1,0.816719298876,3,432
2019_Apr_04,104,001,3,recog,10,NARRATOR,LF,target,left,yellow,imageability,conservative,no,z,1,0.800143635706,1,433
2019_Apr_04,104,001,3,recog,11,ASHEN,LF,target,right,aqua,pleasantness,liberal,no,z,1,0.573495436138,3,436
2019_Apr_04,104,001,3,recog,12,SOVIET,HF,target,left,yellow,imageability,liberal,no,z,1,0.60011166778,3,439
2019_Apr_04,104,001,3,recog,13,DIDACTIC,LF,target,right,aqua,pleasantness,liberal,no,z,1,0.92010291326,3,442
2019_Apr_04,104,001,3,recog,14,AMONG,HF,lure,-,-,-,liberal,no,m,1,1.06636130942,1,443
2019_Apr_04,104,001,3,recog,15,WEIRDLY,LF,lure,-,-,-,liberal,no,m,1,0.973521245107,1,444
2019_Apr_04,104,001,3,recog,16,HEDGED,LF,target,right,aqua,pleasantness,liberal,no,z,1,0.733388592877,3,447
2019_Apr_04,104,001,3,recog,17,TRIED,HF,lure,-,-,-,conservative,no,m,1,1.31986476687,3,450
2019_Apr_04,104,001,3,recog,18,ABOVE,HF,target,right,aqua,pleasantness,liberal,no,z,1,2.15950235617,3,453
2019_Apr_04,104,001,3,recog,19,OUGHT,HF,target,left,yellow,imageability,liberal,no,m,0,0.693399722993,-3,450
2019_Apr_04,104,001,3,recog,20,HOSPITAL,HF,lure,-,-,-,conservative,no,m,1,2.22615364988,3,453
2019_Apr_04,104,001,3,recog,21,SLEEP,HF,target,right,aqua,pleasantness,liberal,no,z,1,0.666822718051,3,456
2019_Apr_04,104,001,3,recog,22,DUNGEON,LF,target,left,yellow,imageability,conservative,no,z,1,0.573522564883,1,457
2019_Apr_04,104,001,3,recog,23,VIOLATING,LF,target,right,aqua,pleasantness,conservative,no,z,1,0.533483470163,1,458
2019_Apr_04,104,001,3,recog,24,NOMAD,LF,lure,-,-,-,liberal,no,m,1,0.680301671644,1,459
2019_Apr_04,104,001,3,recog,25,SONAR,LF,target,left,yellow,imageability,conservative,no,z,1,1.15991698604,1,460
2019_Apr_04,104,001,3,recog,26,ACTION,HF,lure,-,-,-,conservative,yes,m,1,0.906709378553,3,463
2019_Apr_04,104,001,3,recog,27,AFIELD,LF,lure,-,-,-,conservative,no,m,1,1.7196907763,3,466
2019_Apr_04,104,001,3,recog,28,UMPIRE,LF,lure,-,-,-,liberal,no,m,1,0.653487106881,1,467
2019_Apr_04,104,001,3,recog,29,GABLE,LF,target,right,aqua,pleasantness,conservative,no,z,1,0.626799020726,1,468
2019_Apr_04,104,001,3,recog,30,GESTURING,LF,target,right,aqua,pleasantness,liberal,no,z,1,0.666723001583,3,471
2019_Apr_04,104,001,3,recog,31,GENERAL,HF,target,left,yellow,imageability,conservative,no,m,0,0.733142967753,-1,470
2019_Apr_04,104,001,3,recog,32,TROUBLE,HF,target,left,yellow,imageability,conservative,no,z,1,1.17323793302,1,471
2019_Apr_04,104,001,3,recog,33,PAPER,HF,target,right,aqua,pleasantness,conservative,no,z,1,0.506844875637,1,472
2019_Apr_04,104,001,3,recog,34,UNNAMED,LF,target,right,aqua,pleasantness,liberal,no,z,1,0.653230117013,3,475
2019_Apr_04,104,001,3,recog,35,ELLIPSE,LF,lure,-,-,-,liberal,no,m,1,0.813595460554,1,476
2019_Apr_04,104,001,3,recog,36,RECENT,HF,target,left,yellow,imageability,conservative,no,m,0,1.06659960245,-1,475
2019_Apr_04,104,001,3,recog,37,TERMS,HF,target,right,aqua,pleasantness,conservative,no,z,1,1.89285465518,1,476
2019_Apr_04,104,001,3,recog,38,AVAILABLE,HF,lure,-,-,-,conservative,no,m,1,1.11998090723,3,479
2019_Apr_04,104,001,3,recog,39,VOUCH,LF,lure,-,-,-,liberal,yes,m,1,0.586806484796,1,480
2019_Apr_04,104,001,3,recog,40,DICHOTOMY,LF,target,left,yellow,imageability,conservative,yes,m,0,0.546860874264,-1,479
2019_Apr_04,104,001,3,recog,41,TRUTH,HF,target,left,yellow,imageability,liberal,no,z,1,0.813388328921,3,482
2019_Apr_04,104,001,3,recog,42,ALERTING,LF,target,left,yellow,imageability,liberal,no,z,1,0.54682201417,3,485
2019_Apr_04,104,001,3,recog,43,SLIGHTLY,HF,lure,-,-,-,conservative,no,m,1,1.03995367584,3,488
2019_Apr_04,104,001,3,recog,44,FERRET,LF,lure,-,-,-,liberal,no,m,1,0.533505833047,1,489
2019_Apr_04,104,001,3,recog,45,NEEDED,HF,target,right,aqua,pleasantness,liberal,no,z,1,0.840069449587,3,492
2019_Apr_04,104,001,3,recog,46,SUMMER,HF,target,right,aqua,pleasantness,liberal,no,z,1,0.600111301175,3,495
2019_Apr_04,104,001,3,recog,47,ZIGZAG,LF,target,right,aqua,pleasantness,liberal,no,z,1,0.533449375929,3,498
2019_Apr_04,104,001,3,recog,48,AROUND,HF,lure,-,-,-,conservative,no,z,0,0.506929561313,-3,495
2019_Apr_04,104,001,3,recog,49,IDIOCY,LF,lure,-,-,-,liberal,no,m,1,1.05323136347,1,496
2019_Apr_04,104,001,3,recog,50,MORNING,HF,lure,-,-,-,liberal,no,m,1,1.57316769157,1,497
2019_Apr_04,104,001,3,recog,51,ALLOWED,HF,lure,-,-,-,liberal,no,m,1,1.2130138056,1,498
2019_Apr_04,104,001,3,recog,52,CHOICE,HF,lure,-,-,-,liberal,no,m,1,1.29320857532,1,499
2019_Apr_04,104,001,3,recog,53,EXECUTING,LF,lure,-,-,-,liberal,no,z,0,1.33294155515,-1,498
2019_Apr_04,104,001,3,recog,54,GEOLOGIST,LF,target,right,aqua,pleasantness,conservative,no,m,0,0.773412656806,-1,497
2019_Apr_04,104,001,3,recog,55,DAYBREAK,LF,lure,-,-,-,conservative,no,m,1,2.2927895462,3,500
2019_Apr_04,104,001,3,recog,56,REACHED,HF,lure,-,-,-,liberal,no,m,1,0.760108207032,1,501
2019_Apr_04,104,001,3,recog,57,HUMAN,HF,target,right,aqua,pleasantness,conservative,no,z,1,2.03959110382,1,502
2019_Apr_04,104,001,3,recog,58,SPACE,HF,lure,-,-,-,conservative,no,z,0,0.84003278912,-3,499
2019_Apr_04,104,001,3,recog,59,DRINK,HF,lure,-,-,-,liberal,no,m,1,1.04007465537,1,500
2019_Apr_04,104,001,3,recog,60,SOFTENING,LF,lure,-,-,-,conservative,no,m,1,0.733436984691,3,503
2019_Apr_04,104,001,3,recog,61,BELIEVE,HF,lure,-,-,-,conservative,no,m,1,0.893348838266,3,506
2019_Apr_04,104,001,3,recog,62,MEMBERS,HF,lure,-,-,-,conservative,no,m,1,1.30651559133,3,509
2019_Apr_04,104,001,3,recog,63,NATIONAL,HF,target,right,aqua,pleasantness,liberal,no,m,0,0.733181827846,-3,506
2019_Apr_04,104,001,3,recog,64,BOLDNESS,LF,target,right,aqua,pleasantness,conservative,no,z,1,0.640136098315,1,507
2019_Apr_04,104,001,3,recog,65,PROBABLY,HF,target,right,aqua,pleasantness,conservative,no,m,0,0.840046353494,-1,506
2019_Apr_04,104,001,3,recog,66,HAVING,HF,lure,-,-,-,liberal,no,m,1,1.39979851408,1,507
2019_Apr_04,104,001,3,recog,67,CUFFED,LF,lure,-,-,-,liberal,no,m,1,0.946497715687,1,508
2019_Apr_04,104,001,3,recog,68,ANYONE,HF,lure,-,-,-,conservative,no,z,0,0.893362769244,-3,505
2019_Apr_04,104,001,3,recog,69,OFTEN,HF,lure,-,-,-,liberal,no,m,1,0.520151525039,1,506
2019_Apr_04,104,001,3,recog,70,ENTIRELY,HF,lure,-,-,-,conservative,no,m,1,1.13324356407,3,509
2019_Apr_04,104,001,3,recog,71,GARDEN,HF,target,left,yellow,imageability,liberal,no,z,1,1.01738622608,3,512
2019_Apr_04,104,001,3,recog,72,HOURS,HF,lure,-,-,-,liberal,no,m,1,1.13335977775,1,513
2019_Apr_04,104,001,3,recog,73,AREAS,HF,target,left,yellow,imageability,conservative,no,z,1,1.33314868679,1,514
2019_Apr_04,104,001,3,recog,74,PLACE,HF,lure,-,-,-,liberal,no,m,1,0.840059551261,1,515
2019_Apr_04,104,001,3,recog,75,NECESSARY,HF,lure,-,-,-,liberal,no,m,1,0.800032187889,1,516
2019_Apr_04,104,001,3,recog,76,LUGGED,LF,lure,-,-,-,conservative,no,z,0,1.02671851434,-3,513
2019_Apr_04,104,001,3,recog,77,ICILY,LF,target,left,yellow,imageability,conservative,no,z,1,0.746745467117,1,514
2019_Apr_04,104,001,3,recog,78,BUMBLING,LF,target,left,yellow,imageability,liberal,no,z,1,0.693411820947,3,517
2019_Apr_04,104,001,3,recog,79,REIGNING,LF,target,right,aqua,pleasantness,conservative,no,z,1,0.600016350569,1,518
2019_Apr_04,104,001,3,recog,80,INJECT,LF,lure,-,-,-,conservative,no,m,1,1.03995404244,3,521
2019_Apr_04,104,001,3,recog,81,STOOD,HF,lure,-,-,-,conservative,no,m,1,0.706833217608,3,524
2019_Apr_04,104,001,3,recog,82,BEGAN,HF,target,left,yellow,imageability,conservative,no,m,0,0.653504703904,-1,523
2019_Apr_04,104,001,3,recog,83,IMPORTANT,HF,target,right,aqua,pleasantness,liberal,no,z,1,0.959975202861,3,526
2019_Apr_04,104,001,3,recog,84,SNEAKED,LF,target,left,yellow,imageability,liberal,no,z,1,0.959996832536,3,529
2019_Apr_04,104,001,3,recog,85,WHATEVER,HF,target,left,yellow,imageability,liberal,no,m,0,0.600004252614,-3,526
2019_Apr_04,104,001,3,recog,86,COMES,HF,target,left,yellow,imageability,conservative,no,z,1,0.653226817571,1,527
2019_Apr_04,104,001,3,recog,87,IDYLL,LF,lure,-,-,-,conservative,no,m,1,0.733552098555,3,530
2019_Apr_04,104,001,3,recog,88,COFFINS,LF,lure,-,-,-,conservative,no,m,1,0.560155059107,3,533
2019_Apr_04,104,001,3,recog,89,ANCHORAGE,LF,lure,-,-,-,liberal,no,z,0,0.840030222888,-1,532
2019_Apr_04,104,001,3,recog,90,WESTERN,HF,lure,-,-,-,liberal,no,m,1,1.506432812,1,533
2019_Apr_04,104,001,3,recog,91,LIKELY,HF,target,right,aqua,pleasantness,conservative,no,z,1,0.600110201361,1,534
2019_Apr_04,104,001,3,recog,92,KERNEL,LF,lure,-,-,-,liberal,no,m,1,0.560164590829,1,535
2019_Apr_04,104,001,3,recog,93,PENALIZED,LF,lure,-,-,-,conservative,no,m,1,0.786973729842,3,538
2019_Apr_04,104,001,3,recog,94,DRUDGERY,LF,lure,-,-,-,liberal,no,z,0,1.0133697054,-1,537
2019_Apr_04,104,001,3,recog,95,ONCOMING,LF,target,left,yellow,imageability,liberal,no,m,0,0.680183991547,-3,534
2019_Apr_04,104,001,4,source,0,GLASS,HF,target,right,aqua,pleasantness,liberal,no,9,1,2.63929070797,-,-
2019_Apr_04,104,001,4,source,1,FRIEND,HF,target,left,yellow,imageability,conservative,no,9,0,1.14658504092,-,-
2019_Apr_04,104,001,4,source,2,TELEPHONE,HF,target,right,aqua,pleasantness,liberal,no,9,1,0.879827725138,-,-
2019_Apr_04,104,001,4,source,3,LAYERED,LF,target,left,yellow,imageability,conservative,no,1,1,1.31985560176,-,-
2019_Apr_04,104,001,4,source,4,GLEANED,LF,target,right,aqua,pleasantness,conservative,no,8,1,1.4131381579,-,-
2019_Apr_04,104,001,4,source,5,ENLIGHTEN,LF,target,left,yellow,imageability,conservative,no,9,0,1.81298323077,-,-
2019_Apr_04,104,001,4,source,6,BEECHES,LF,target,left,yellow,imageability,conservative,no,1,1,0.719881044119,-,-
2019_Apr_04,104,001,4,source,7,AQUARIUM,LF,target,left,yellow,imageability,liberal,no,1,1,1.10661340145,-,-
2019_Apr_04,104,001,4,source,8,LANGUAGE,HF,target,right,aqua,pleasantness,liberal,no,9,1,0.853309743546,-,-
2019_Apr_04,104,001,4,source,9,VEERED,LF,target,right,aqua,pleasantness,conservative,no,1,0,1.6131679262,-,-
2019_Apr_04,104,001,4,source,10,RANGE,HF,target,left,yellow,imageability,conservative,yes,1,1,0.760187393638,-,-
2019_Apr_04,104,001,4,source,11,NEITHER,HF,target,left,yellow,imageability,liberal,no,9,0,3.06581103583,-,-
2019_Apr_04,104,001,4,source,12,HERSELF,HF,target,left,yellow,imageability,liberal,no,1,1,0.973060423047,-,-
2019_Apr_04,104,001,4,source,13,RUFFLES,LF,target,right,aqua,pleasantness,liberal,no,9,1,1.11996514323,-,-
2019_Apr_04,104,001,4,source,14,STRAIGHT,HF,target,left,yellow,imageability,conservative,no,1,1,1.21325209863,-,-
2019_Apr_04,104,001,4,source,15,GORGED,LF,target,right,aqua,pleasantness,liberal,no,9,1,0.999979470139,-,-
2019_Apr_04,104,001,4,source,16,SIDED,LF,target,right,aqua,pleasantness,liberal,no,9,1,0.813124740169,-,-
2019_Apr_04,104,001,4,source,17,MAYBE,HF,target,left,yellow,imageability,conservative,no,8,0,1.10660753578,-,-
2019_Apr_04,104,001,4,source,18,POSITION,HF,target,left,yellow,imageability,liberal,no,2,1,1.01330261675,-,-
2019_Apr_04,104,001,4,source,19,TRADE,HF,target,right,aqua,pleasantness,conservative,no,9,1,1.62647750844,-,-
2019_Apr_04,104,001,4,source,20,VIGILANT,LF,target,left,yellow,imageability,conservative,no,1,1,1.49310893218,-,-
2019_Apr_04,104,001,4,source,21,MARKET,HF,target,right,aqua,pleasantness,conservative,no,9,1,1.01306835637,-,-
2019_Apr_04,104,001,4,source,22,TUBERS,LF,target,right,aqua,pleasantness,liberal,no,9,1,0.786836619699,-,-
2019_Apr_04,104,001,4,source,23,FREEDOM,HF,target,right,aqua,pleasantness,conservative,no,8,1,2.9192091311,-,-
2019_Apr_04,104,001,4,source,24,MELODIC,LF,target,left,yellow,imageability,liberal,no,2,1,1.15990488809,-,-
2019_Apr_04,104,001,4,source,25,JOLLITY,LF,target,right,aqua,pleasantness,conservative,no,2,0,1.57310463557,-,-
2019_Apr_04,104,001,4,source,26,POLICE,HF,target,left,yellow,imageability,liberal,no,1,1,0.826695711532,-,-
2019_Apr_04,104,001,4,source,27,VOICE,HF,target,right,aqua,pleasantness,liberal,yes,2,0,0.999925579254,-,-
2019_Apr_04,104,001,4,source,28,BUILDING,HF,target,left,yellow,imageability,liberal,no,1,1,1.79963735467,-,-
2019_Apr_04,104,001,4,source,29,BRACES,LF,target,right,aqua,pleasantness,conservative,no,9,1,1.05327498942,-,-
2019_Apr_04,104,001,4,source,30,HUNDRED,HF,target,right,aqua,pleasantness,conservative,yes,9,1,0.826702677021,-,-
2019_Apr_04,104,001,4,source,31,BAOBAB,LF,target,left,yellow,imageability,liberal,no,1,1,0.986449191893,-,-
2019_Apr_04,104,001,4,source,32,LIGHT,HF,target,right,aqua,pleasantness,liberal,no,8,1,0.999744109946,-,-
2019_Apr_04,104,001,4,source,33,LICENSING,LF,target,right,aqua,pleasantness,liberal,no,9,1,0.85338636392,-,-
2019_Apr_04,104,001,4,source,34,BEYOND,HF,target,right,aqua,pleasantness,conservative,no,9,1,0.746446317713,-,-
2019_Apr_04,104,001,4,source,35,PIZZA,LF,target,left,yellow,imageability,liberal,no,1,1,0.773453349924,-,-
2019_Apr_04,104,001,4,source,36,OBESE,LF,target,left,yellow,imageability,liberal,no,1,1,0.666786057584,-,-
2019_Apr_04,104,001,4,source,37,LARGE,HF,target,left,yellow,imageability,liberal,no,1,1,1.70615793182,-,-
2019_Apr_04,104,001,4,source,38,AGONIZED,LF,target,left,yellow,imageability,conservative,no,2,1,1.34650629424,-,-
2019_Apr_04,104,001,4,source,39,WISPY,LF,target,right,aqua,pleasantness,conservative,no,9,1,0.773387727689,-,-
2019_Apr_04,104,001,4,source,40,TIMES,HF,target,left,yellow,imageability,conservative,no,8,0,1.000047292,-,-
2019_Apr_04,104,001,4,source,41,YOUNG,HF,target,right,aqua,pleasantness,conservative,no,9,1,1.71976299742,-,-
2019_Apr_04,104,001,4,source,42,BOOKS,HF,target,right,aqua,pleasantness,liberal,no,8,1,1.039966507,-,-
2019_Apr_04,104,001,4,source,43,AVIDLY,LF,target,right,aqua,pleasantness,liberal,no,1,0,1.85276093637,-,-
2019_Apr_04,104,001,4,source,44,UPSTART,LF,target,left,yellow,imageability,conservative,yes,2,1,0.773373430106,-,-
2019_Apr_04,104,001,4,source,45,TOOTHACHE,LF,target,left,yellow,imageability,liberal,no,1,1,0.760075212613,-,-
2019_Apr_04,104,001,4,source,46,AFTERNOON,HF,target,left,yellow,imageability,conservative,no,1,1,1.17323903284,-,-
2019_Apr_04,104,001,4,source,47,NUTSHELL,LF,target,right,aqua,pleasantness,conservative,no,1,0,0.826727239533,-,-
2019_Apr_04,104,001,4,recog,0,OBESE,LF,target,left,yellow,imageability,liberal,no,z,1,1.81277609914,3,537
2019_Apr_04,104,001,4,recog,1,BEYOND,HF,target,right,aqua,pleasantness,conservative,no,z,1,0.946760937833,1,538
2019_Apr_04,104,001,4,recog,2,FAMILY,HF,lure,-,-,-,liberal,no,m,1,1.02662356373,1,539
2019_Apr_04,104,001,4,recog,3,STRAIGHT,HF,target,left,yellow,imageability,conservative,no,z,1,1.15995144688,1,540
2019_Apr_04,104,001,4,recog,4,ORIGINALS,LF,lure,-,-,-,liberal,no,m,1,0.760240551315,1,541
2019_Apr_04,104,001,4,recog,5,UPSTART,LF,target,left,yellow,imageability,conservative,no,m,0,1.25300157567,-1,540
2019_Apr_04,104,001,4,recog,6,RIDDLES,LF,lure,-,-,-,conservative,no,m,1,0.813334804639,3,543
2019_Apr_04,104,001,4,recog,7,LARGE,HF,target,left,yellow,imageability,liberal,no,z,1,0.866704378066,3,546
2019_Apr_04,104,001,4,recog,8,VEERED,LF,target,right,aqua,pleasantness,conservative,no,z,1,0.773385894666,1,547
2019_Apr_04,104,001,4,recog,9,ANVIL,LF,lure,-,-,-,conservative,no,m,1,1.73302638747,3,550
2019_Apr_04,104,001,4,recog,10,ENLIGHTEN,LF,target,left,yellow,imageability,conservative,no,z,1,0.559931796869,1,551
2019_Apr_04,104,001,4,recog,11,POLICE,HF,target,left,yellow,imageability,liberal,no,z,1,0.546819814542,3,554
2019_Apr_04,104,001,4,recog,12,WISPY,LF,target,right,aqua,pleasantness,conservative,no,z,1,0.506748092006,1,555
2019_Apr_04,104,001,4,recog,13,PIZZA,LF,target,left,yellow,imageability,liberal,no,z,1,0.480151290411,3,558
2019_Apr_04,104,001,4,recog,14,POINT,HF,lure,-,-,-,liberal,no,m,1,0.746742900884,1,559
2019_Apr_04,104,001,4,recog,15,BOOKS,HF,target,right,aqua,pleasantness,liberal,no,z,1,0.720066912682,3,562
2019_Apr_04,104,001,4,recog,16,FRONT,HF,lure,-,-,-,liberal,no,m,1,1.41314219055,1,563
2019_Apr_04,104,001,4,recog,17,AVOCADO,LF,lure,-,-,-,conservative,no,m,1,0.693430884389,3,566
2019_Apr_04,104,001,4,recog,18,YOGHURT,LF,lure,-,-,-,conservative,no,m,1,0.88001029426,3,569
2019_Apr_04,104,001,4,recog,19,ACORNS,LF,lure,-,-,-,liberal,no,m,1,0.893385132128,1,570
2019_Apr_04,104,001,4,recog,20,GLASS,HF,target,right,aqua,pleasantness,liberal,no,z,1,0.613229882386,3,573
2019_Apr_04,104,001,4,recog,21,LANGUAGE,HF,target,right,aqua,pleasantness,liberal,no,z,1,0.61345351123,3,576
2019_Apr_04,104,001,4,recog,22,BACHELORS,LF,lure,-,-,-,liberal,no,z,0,0.760079245264,-1,575
2019_Apr_04,104,001,4,recog,23,TUBERS,LF,target,right,aqua,pleasantness,liberal,no,z,1,0.720107605801,3,578
2019_Apr_04,104,001,4,recog,24,SIMILAR,HF,lure,-,-,-,liberal,no,m,1,0.893457719852,1,579
2019_Apr_04,104,001,4,recog,25,MAYBE,HF,target,left,yellow,imageability,conservative,no,z,1,0.813365966036,1,580
2019_Apr_04,104,001,4,recog,26,SUBJECT,HF,lure,-,-,-,conservative,no,z,0,1.26662057224,-3,577
2019_Apr_04,104,001,4,recog,27,NORTH,HF,lure,-,-,-,conservative,no,m,1,0.65347134288,3,580
2019_Apr_04,104,001,4,recog,28,LIGHT,HF,target,right,aqua,pleasantness,liberal,no,z,1,0.613469641834,3,583
2019_Apr_04,104,001,4,recog,29,FESTERING,LF,lure,-,-,-,liberal,no,m,1,0.946627860341,1,584
2019_Apr_04,104,001,4,recog,30,BAOBAB,LF,target,left,yellow,imageability,liberal,no,z,1,0.746703307581,3,587
2019_Apr_04,104,001,4,recog,31,FREEDOM,HF,target,right,aqua,pleasantness,conservative,no,z,1,1.87966238644,1,588
2019_Apr_04,104,001,4,recog,32,WAYSIDE,LF,lure,-,-,-,liberal,yes,m,1,0.493480669304,1,589
2019_Apr_04,104,001,4,recog,33,LAYERED,LF,target,left,yellow,imageability,conservative,no,z,1,1.46645933951,1,590
2019_Apr_04,104,001,4,recog,34,OMITTING,LF,lure,-,-,-,liberal,no,m,1,0.706800589794,1,591
2019_Apr_04,104,001,4,recog,35,TRADE,HF,target,right,aqua,pleasantness,conservative,no,z,1,0.973388167615,1,592
2019_Apr_04,104,001,4,recog,36,BEECHES,LF,target,left,yellow,imageability,conservative,no,z,1,0.507273803091,1,593
2019_Apr_04,104,001,4,recog,37,HERSELF,HF,target,left,yellow,imageability,liberal,no,z,1,0.706836883655,3,596
2019_Apr_04,104,001,4,recog,38,DUSTER,LF,lure,-,-,-,conservative,no,m,1,0.76009867531,3,599
2019_Apr_04,104,001,4,recog,39,VOICE,HF,target,right,aqua,pleasantness,liberal,no,m,0,0.906607829063,-3,596
2019_Apr_04,104,001,4,recog,40,RANGE,HF,target,left,yellow,imageability,conservative,no,z,1,0.893345538825,1,597
2019_Apr_04,104,001,4,recog,41,LOITERING,LF,lure,-,-,-,liberal,no,m,1,1.67971033833,1,598
2019_Apr_04,104,001,4,recog,42,LICENSING,LF,target,right,aqua,pleasantness,liberal,no,z,1,0.760058715403,3,601
2019_Apr_04,104,001,4,recog,43,NUTSHELL,LF,target,right,aqua,pleasantness,conservative,no,z,1,0.506825078985,1,602
2019_Apr_04,104,001,4,recog,44,AQUARIUM,LF,target,left,yellow,imageability,liberal,no,z,1,0.720088175754,3,605
2019_Apr_04,104,001,4,recog,45,SENSE,HF,lure,-,-,-,liberal,no,z,0,0.520133194806,-1,604
2019_Apr_04,104,001,4,recog,46,ISOLATING,LF,lure,-,-,-,liberal,no,m,1,0.640124000361,1,605
2019_Apr_04,104,001,4,recog,47,AFTERNOON,HF,target,left,yellow,imageability,conservative,no,z,1,0.746742534279,1,606
2019_Apr_04,104,001,4,recog,48,HONKING,LF,lure,-,-,-,liberal,no,m,1,0.586654710466,1,607
2019_Apr_04,104,001,4,recog,49,PERHAPS,HF,lure,-,-,-,conservative,no,m,1,0.986691517574,3,610
2019_Apr_04,104,001,4,recog,50,BRACES,LF,target,right,aqua,pleasantness,conservative,no,z,1,1.63973576602,1,611
2019_Apr_04,104,001,4,recog,51,INROADS,LF,lure,-,-,-,liberal,no,m,1,0.600137696711,1,612
2019_Apr_04,104,001,4,recog,52,MARKET,HF,target,right,aqua,pleasantness,conservative,no,m,0,0.893121909981,-1,611
2019_Apr_04,104,001,4,recog,53,POSITION,HF,target,left,yellow,imageability,liberal,no,z,1,0.67988300912,3,614
2019_Apr_04,104,001,4,recog,54,AGONIZED,LF,target,left,yellow,imageability,conservative,no,z,1,1.11990098741,1,615
2019_Apr_04,104,001,4,recog,55,HUNDRED,HF,target,right,aqua,pleasantness,conservative,no,m,0,0.680102238708,-1,614
2019_Apr_04,104,001,4,recog,56,SIDED,LF,target,right,aqua,pleasantness,liberal,yes,m,0,0.653444214136,-3,611
2019_Apr_04,104,001,4,recog,57,TELEPHONE,HF,target,right,aqua,pleasantness,liberal,no,z,1,1.98621163207,3,614
2019_Apr_04,104,001,4,recog,58,EGOISM,LF,lure,-,-,-,conservative,no,m,1,0.919987432792,3,617
2019_Apr_04,104,001,4,recog,59,HANDS,HF,lure,-,-,-,liberal,no,m,1,1.02668955257,1,618
2019_Apr_04,104,001,4,recog,60,USUAL,HF,lure,-,-,-,conservative,no,m,1,0.506634444561,3,621
2019_Apr_04,104,001,4,recog,61,TURNED,HF,lure,-,-,-,conservative,no,m,1,0.81337256492,3,624
2019_Apr_04,104,001,4,recog,62,PASSED,HF,lure,-,-,-,liberal,no,m,1,0.920004296607,1,625
2019_Apr_04,104,001,4,recog,63,TOOTHACHE,LF,target,left,yellow,imageability,liberal,no,z,1,0.746741434466,3,628
2019_Apr_04,104,001,4,recog,64,GORGED,LF,target,right,aqua,pleasantness,liberal,no,z,1,0.973418595801,3,631
2019_Apr_04,104,001,4,recog,65,JOTTED,LF,lure,-,-,-,conservative,no,z,0,0.840030956098,-3,628
2019_Apr_04,104,001,4,recog,66,ENOUGH,HF,lure,-,-,-,liberal,no,z,0,1.06660510152,-1,627
2019_Apr_04,104,001,4,recog,67,HAMLETS,LF,lure,-,-,-,liberal,no,m,1,0.999974337674,1,628
2019_Apr_04,104,001,4,recog,68,ARTIFACTS,LF,lure,-,-,-,conservative,no,m,1,1.78630797578,3,631
2019_Apr_04,104,001,4,recog,69,TIMES,HF,target,left,yellow,imageability,conservative,no,z,1,0.680174459826,1,632
2019_Apr_04,104,001,4,recog,70,WEEKS,HF,lure,-,-,-,conservative,yes,m,1,0.533471372209,3,635
2019_Apr_04,104,001,4,recog,71,EITHER,HF,lure,-,-,-,liberal,no,z,0,1.87963892374,-1,634
2019_Apr_04,104,001,4,recog,72,AVIDLY,LF,target,right,aqua,pleasantness,liberal,no,z,1,0.746767463396,3,637
2019_Apr_04,104,001,4,recog,73,TOUSLED,LF,lure,-,-,-,conservative,no,m,1,0.706832851004,3,640
2019_Apr_04,104,001,4,recog,74,BUILDING,HF,target,left,yellow,imageability,liberal,no,z,1,0.653458511718,3,643
2019_Apr_04,104,001,4,recog,75,THANK,HF,lure,-,-,-,liberal,no,m,1,0.853348970244,1,644
2019_Apr_04,104,001,4,recog,76,CADDIE,LF,lure,-,-,-,conservative,no,m,1,0.680100405684,3,647
2019_Apr_04,104,001,4,recog,77,VIGILANT,LF,target,left,yellow,imageability,conservative,no,z,1,0.719865646724,1,648
2019_Apr_04,104,001,4,recog,78,YOUNG,HF,target,right,aqua,pleasantness,conservative,no,z,1,1.05342493073,1,649
2019_Apr_04,104,001,4,recog,79,ASKED,HF,lure,-,-,-,conservative,no,m,1,0.853091247167,3,652
2019_Apr_04,104,001,4,recog,80,COUNCIL,HF,lure,-,-,-,conservative,no,m,1,1.21340607259,3,655
2019_Apr_04,104,001,4,recog,81,MELODIC,LF,target,left,yellow,imageability,liberal,no,z,1,1.23995448237,3,658
2019_Apr_04,104,001,4,recog,82,FRIEND,HF,target,left,yellow,imageability,conservative,no,z,1,0.959977402488,1,659
2019_Apr_04,104,001,4,recog,83,LONGER,HF,lure,-,-,-,liberal,no,z,0,2.18617431172,-1,658
2019_Apr_04,104,001,4,recog,84,FIGURE,HF,lure,-,-,-,conservative,no,z,0,1.79971654128,-3,655
2019_Apr_04,104,001,4,recog,85,RIVER,HF,lure,-,-,-,liberal,yes,m,1,0.746706973627,1,656
2019_Apr_04,104,001,4,recog,86,OBTAINS,LF,lure,-,-,-,conservative,no,m,1,2.74573437146,3,659
2019_Apr_04,104,001,4,recog,87,GLEANED,LF,target,right,aqua,pleasantness,conservative,no,m,0,0.813345436176,-1,658
2019_Apr_04,104,001,4,recog,88,SYSTEM,HF,lure,-,-,-,conservative,no,m,1,0.893375600407,3,661
2019_Apr_04,104,001,4,recog,89,RUFFLES,LF,target,right,aqua,pleasantness,liberal,no,z,1,0.706748165327,3,664
2019_Apr_04,104,001,4,recog,90,NEITHER,HF,target,left,yellow,imageability,liberal,no,z,1,1.38647353444,3,667
2019_Apr_04,104,001,4,recog,91,HISTORY,HF,lure,-,-,-,conservative,no,z,0,2.01289091972,-3,664
2019_Apr_04,104,001,4,recog,92,JOLLITY,LF,target,right,aqua,pleasantness,conservative,no,z,1,0.840046720098,1,665
2019_Apr_04,104,001,4,recog,93,LIQUEUR,LF,lure,-,-,-,conservative,no,m,1,1.39983774078,3,668
2019_Apr_04,104,001,4,recog,94,GLIDED,LF,lure,-,-,-,liberal,no,m,1,0.654222515832,1,669
2019_Apr_04,104,001,4,recog,95,VARIOUS,HF,lure,-,-,-,conservative,no,m,1,0.560127930363,3,672
