subj,session,cycle,task,trial,item,wf,type,source,colour,encoding,bias,null,response,corr,rt,points,total
105,001,0,source,0,ROLLERS,LF,target,right,yellow,imageability,liberal,no,8,1,4.94505936041,-,-
105,001,0,source,1,JEOPARDY,LF,target,right,yellow,imageability,conservative,no,2,0,4.75846010476,-,-
105,001,0,source,2,BETTER,HF,target,right,yellow,imageability,conservative,no,1,0,3.0791529557,-,-
105,001,0,source,3,PHOBIC,LF,target,left,aqua,pleasantness,conservative,yes,None,-1,-1,-,-
105,001,0,source,4,LATER,HF,target,right,yellow,imageability,conservative,no,2,0,4.06541302996,-,-
105,001,0,source,5,INDEED,HF,target,right,yellow,imageability,conservative,yes,7,1,1.49319804204,-,-
105,001,0,source,6,WRONG,HF,target,right,yellow,imageability,conservative,no,8,1,2.34644306797,-,-
105,001,0,source,7,ROBBERIES,LF,target,left,aqua,pleasantness,conservative,no,1,1,2.94588238486,-,-
105,001,0,source,8,UNLESS,HF,target,left,aqua,pleasantness,conservative,no,1,1,1.67971994439,-,-
105,001,0,source,9,TEMERITY,LF,target,left,aqua,pleasantness,conservative,no,1,1,1.31984196464,-,-
105,001,0,source,10,MEETING,HF,target,left,aqua,pleasantness,liberal,no,3,1,2.47915383555,-,-
105,001,0,source,11,OMELETTE,LF,target,left,aqua,pleasantness,conservative,no,1,1,1.23988101523,-,-
105,001,0,source,12,HOSPITAL,HF,target,left,aqua,pleasantness,liberal,yes,8,0,1.39988796603,-,-
105,001,0,source,13,HIGHER,HF,target,left,aqua,pleasantness,conservative,no,1,1,2.03967087821,-,-
105,001,0,source,14,SKYLIGHT,LF,target,right,yellow,imageability,liberal,no,9,1,2.0261890412,-,-
105,001,0,source,15,RAFTERS,LF,target,left,aqua,pleasantness,liberal,no,1,1,1.34650245771,-,-
105,001,0,source,16,EITHER,HF,target,right,yellow,imageability,liberal,no,7,1,3.10555865946,-,-
105,001,0,source,17,MOLARS,LF,target,right,yellow,imageability,conservative,no,2,0,1.67968401727,-,-
105,001,0,source,18,CAUGHT,HF,target,left,aqua,pleasantness,conservative,no,1,1,0.919993225171,-,-
105,001,0,source,19,SCUFFED,LF,target,left,aqua,pleasantness,liberal,no,1,1,0.946800359565,-,-
105,001,0,source,20,CULINARY,LF,target,left,aqua,pleasantness,liberal,no,1,1,0.773378660168,-,-
105,001,0,source,21,LOCAL,HF,target,left,aqua,pleasantness,conservative,no,1,1,0.666584547524,-,-
105,001,0,source,22,SYRINGE,LF,target,right,yellow,imageability,liberal,no,9,1,1.71948357324,-,-
105,001,0,source,23,ENTIRELY,HF,target,left,aqua,pleasantness,liberal,no,1,1,1.70608752141,-,-
105,001,0,source,24,NATIONAL,HF,target,left,aqua,pleasantness,conservative,no,1,1,0.733412299688,-,-
105,001,0,source,25,GUMMED,LF,target,right,yellow,imageability,liberal,no,8,1,1.5861701098,-,-
105,001,0,source,26,LUSCIOUS,LF,target,left,aqua,pleasantness,liberal,no,1,1,0.91977986204,-,-
105,001,0,source,27,URCHIN,LF,target,right,yellow,imageability,liberal,no,9,1,1.7463981224,-,-
105,001,0,source,28,GURGLE,LF,target,right,yellow,imageability,conservative,no,9,1,0.89335216208,-,-
105,001,0,source,29,EDUCATION,HF,target,left,aqua,pleasantness,liberal,no,1,1,0.920036117759,-,-
105,001,0,source,30,RAIDER,LF,target,left,aqua,pleasantness,conservative,no,1,1,2.26587832289,-,-
105,001,0,source,31,IDLING,LF,target,right,yellow,imageability,conservative,no,9,1,3.67885512717,-,-
105,001,0,source,32,INVOLVED,HF,target,right,yellow,imageability,conservative,no,2,0,2.47949770946,-,-
105,001,0,source,33,PLEASE,HF,target,left,aqua,pleasantness,liberal,no,1,1,1.07992025645,-,-
105,001,0,source,34,AFRAID,HF,target,right,yellow,imageability,liberal,yes,8,1,1.09325031968,-,-
105,001,0,source,35,HORDE,LF,target,left,aqua,pleasantness,liberal,no,1,1,3.55895787875,-,-
105,001,0,source,36,OPENED,HF,target,right,yellow,imageability,liberal,no,2,0,2.55963242885,-,-
105,001,0,source,37,NOTHING,HF,target,left,aqua,pleasantness,conservative,no,2,1,2.14619077157,-,-
105,001,0,source,38,ALMOST,HF,target,right,yellow,imageability,conservative,no,2,0,1.34625316745,-,-
105,001,0,source,39,WEDGES,LF,target,right,yellow,imageability,conservative,no,9,1,1.4531583609,-,-
105,001,0,source,40,HAGGLING,LF,target,right,yellow,imageability,liberal,no,1,0,1.58618660695,-,-
105,001,0,source,41,LEMURS,LF,target,left,aqua,pleasantness,liberal,no,1,1,0.786765913517,-,-
105,001,0,source,42,MINISTER,HF,target,right,yellow,imageability,liberal,no,9,1,0.840038508012,-,-
105,001,0,source,43,GATEHOUSE,LF,target,left,aqua,pleasantness,conservative,no,1,1,0.733307817742,-,-
105,001,0,source,44,AHEAD,HF,target,right,yellow,imageability,liberal,no,1,0,0.880142344736,-,-
105,001,0,source,45,SEVEN,HF,target,left,aqua,pleasantness,liberal,no,1,1,1.13324564182,-,-
105,001,0,source,46,CHIEF,HF,target,right,yellow,imageability,liberal,no,2,0,1.89294449919,-,-
105,001,0,source,47,DISARMED,LF,target,right,yellow,imageability,conservative,no,9,1,1.45320052028,-,-
105,001,0,recog,0,GUMMED,LF,target,right,yellow,imageability,liberal,no,z,1,2.35945381971,3,3
105,001,0,recog,1,JEOPARDY,LF,target,right,yellow,imageability,conservative,no,z,1,2.41275940851,1,4
105,001,0,recog,2,SYRINGE,LF,target,right,yellow,imageability,liberal,no,z,1,1.53312994181,3,7
105,001,0,recog,3,HAGGLING,LF,target,right,yellow,imageability,liberal,no,z,1,2.22627636611,3,10
105,001,0,recog,4,TEMERITY,LF,target,left,aqua,pleasantness,conservative,no,z,1,1.27960541752,1,11
105,001,0,recog,5,LATER,HF,target,right,yellow,imageability,conservative,no,z,1,0.853392767063,1,12
105,001,0,recog,6,CINDER,LF,lure,-,-,-,conservative,no,m,1,0.933281862228,3,15
105,001,0,recog,7,SLEEP,HF,lure,-,-,-,conservative,no,m,1,1.23997083304,3,18
105,001,0,recog,8,ALMOST,HF,target,right,yellow,imageability,conservative,no,z,1,1.22662463926,1,19
105,001,0,recog,9,INVOLVED,HF,target,right,yellow,imageability,conservative,no,z,1,1.29298203937,1,20
105,001,0,recog,10,UNLESS,HF,target,left,aqua,pleasantness,conservative,no,z,1,0.733484153938,1,21
105,001,0,recog,11,LUSCIOUS,LF,target,left,aqua,pleasantness,liberal,no,z,1,0.880038595997,3,24
105,001,0,recog,12,NOTHING,HF,target,left,aqua,pleasantness,conservative,no,z,1,0.600098836254,1,25
105,001,0,recog,13,EVENING,HF,lure,-,-,-,liberal,no,m,1,0.853381768964,1,26
105,001,0,recog,14,MAGGOT,LF,lure,-,-,-,liberal,no,z,0,1.19963530302,-1,25
105,001,0,recog,15,CATALYST,LF,lure,-,-,-,conservative,no,m,1,1.74640435466,3,28
105,001,0,recog,16,CYANIDE,LF,lure,-,-,-,conservative,no,m,1,1.06666278067,3,31
105,001,0,recog,17,GATEHOUSE,LF,target,left,aqua,pleasantness,conservative,no,z,1,1.30682534725,1,32
105,001,0,recog,18,VILLAGE,HF,lure,-,-,-,liberal,no,m,1,1.63975395052,1,33
105,001,0,recog,19,BETTER,HF,target,right,yellow,imageability,conservative,no,z,1,0.946688912156,1,34
105,001,0,recog,20,HORDE,LF,target,left,aqua,pleasantness,liberal,no,z,1,0.813402210765,3,37
105,001,0,recog,21,EITHER,HF,target,right,yellow,imageability,liberal,no,z,1,0.626817619249,3,40
105,001,0,recog,22,DOUBT,HF,lure,-,-,-,conservative,no,m,1,0.680102311654,3,43
105,001,0,recog,23,EXPECT,HF,lure,-,-,-,liberal,no,m,1,0.746814583773,1,44
105,001,0,recog,24,WHITE,HF,lure,-,-,-,conservative,no,m,1,0.6934782003,3,47
105,001,0,recog,25,LOCAL,HF,target,left,aqua,pleasantness,conservative,no,z,1,0.640096358016,1,48
105,001,0,recog,26,APPEARED,HF,lure,-,-,-,liberal,no,m,1,0.945565639591,1,49
105,001,0,recog,27,KIBBUTZIM,LF,lure,-,-,-,conservative,no,m,1,0.74681421717,3,52
105,001,0,recog,28,INROADS,LF,lure,-,-,-,liberal,no,m,1,0.986695599001,1,53
105,001,0,recog,29,AVUNCULAR,LF,lure,-,-,-,conservative,no,m,1,0.693578649609,3,56
105,001,0,recog,30,EVIDENCE,HF,lure,-,-,-,liberal,no,m,1,0.626580793505,1,57
105,001,0,recog,31,URCHIN,LF,target,right,yellow,imageability,liberal,no,z,1,0.786869295652,3,60
105,001,0,recog,32,ENTIRELY,HF,target,left,aqua,pleasantness,liberal,no,z,1,0.599993987706,3,63
105,001,0,recog,33,INDEED,HF,target,right,yellow,imageability,conservative,no,m,0,0.813146321649,-1,62
105,001,0,recog,34,ROLLERS,LF,target,right,yellow,imageability,liberal,no,z,1,1.67969281575,3,65
105,001,0,recog,35,IDEAS,HF,lure,-,-,-,conservative,no,m,1,1.91968821121,3,68
105,001,0,recog,36,AFRAID,HF,target,right,yellow,imageability,liberal,no,z,1,0.866698267873,3,71
105,001,0,recog,37,OPENED,HF,target,right,yellow,imageability,liberal,yes,z,1,1.06667634499,3,74
105,001,0,recog,38,ADDED,HF,lure,-,-,-,conservative,no,m,1,1.79967658255,3,77
105,001,0,recog,39,PHOBIC,LF,target,left,aqua,pleasantness,conservative,no,z,1,1.09324298761,1,78
105,001,0,recog,40,UNTIL,HF,lure,-,-,-,conservative,no,z,0,2.22588080113,-3,75
105,001,0,recog,41,HIGHER,HF,target,left,aqua,pleasantness,conservative,no,z,1,1.25318724924,1,76
105,001,0,recog,42,UNVEILED,LF,lure,-,-,-,conservative,yes,m,1,1.16003884529,3,79
105,001,0,recog,43,SCUFFED,LF,target,left,aqua,pleasantness,liberal,no,z,1,1.31974298175,3,82
105,001,0,recog,44,ELECTING,LF,lure,-,-,-,liberal,no,z,0,0.853361972385,-1,81
105,001,0,recog,45,IDLING,LF,target,right,yellow,imageability,conservative,no,z,1,1.69307200382,1,82
105,001,0,recog,46,SEVEN,HF,target,left,aqua,pleasantness,liberal,no,z,1,0.933354816288,3,85
105,001,0,recog,47,OMELETTE,LF,target,left,aqua,pleasantness,conservative,no,z,1,0.799838987823,1,86
105,001,0,recog,48,VULTURE,LF,lure,-,-,-,liberal,no,m,1,0.919752000188,1,87
105,001,0,recog,49,CAKED,LF,lure,-,-,-,conservative,no,m,1,0.77339882335,3,90
105,001,0,recog,50,CHIEF,HF,target,right,yellow,imageability,liberal,no,z,1,0.853403398559,3,93
105,001,0,recog,51,ENERGY,HF,lure,-,-,-,liberal,no,m,1,0.986676169025,1,94
105,001,0,recog,52,BLIGHTED,LF,lure,-,-,-,liberal,no,m,1,0.853370770864,1,95
105,001,0,recog,53,HOSPITAL,HF,target,left,aqua,pleasantness,liberal,no,z,1,1.09325655193,3,98
105,001,0,recog,54,VORACIOUS,LF,lure,-,-,-,liberal,no,m,1,1.35991464008,1,99
105,001,0,recog,55,CULINARY,LF,target,left,aqua,pleasantness,liberal,no,z,1,0.77339992316,3,102
105,001,0,recog,56,SHORT,HF,lure,-,-,-,conservative,no,m,1,1.05333271744,3,105
105,001,0,recog,57,DISARMED,LF,target,right,yellow,imageability,conservative,no,z,1,0.840034841979,1,106
105,001,0,recog,58,GENERAL,HF,lure,-,-,-,conservative,no,z,0,1.55993047735,-3,103
105,001,0,recog,59,HEALTH,HF,lure,-,-,-,liberal,no,m,1,1.01331063326,1,104
105,001,0,recog,60,RAFTERS,LF,target,left,aqua,pleasantness,liberal,yes,z,1,0.826738506253,3,107
105,001,0,recog,61,EXACTLY,HF,lure,-,-,-,conservative,no,m,1,2.98585791042,3,110
105,001,0,recog,62,RAIDER,LF,target,left,aqua,pleasantness,conservative,no,z,1,0.906694689824,1,111
105,001,0,recog,63,SKYLIGHT,LF,target,right,yellow,imageability,liberal,no,z,1,3.14551805448,3,114
105,001,0,recog,64,THRASH,LF,lure,-,-,-,conservative,no,m,1,1.11990751331,3,117
105,001,0,recog,65,VIOLATING,LF,lure,-,-,-,conservative,no,m,1,1.30657202435,3,120
105,001,0,recog,66,ACTION,HF,lure,-,-,-,conservative,no,m,1,0.746776090425,3,123
105,001,0,recog,67,IMPORTANT,HF,lure,-,-,-,liberal,no,z,0,1.55976147322,-1,122
105,001,0,recog,68,PLEASE,HF,target,left,aqua,pleasantness,liberal,no,z,1,1.3998300427,3,125
105,001,0,recog,69,GLASS,HF,lure,-,-,-,liberal,no,m,1,0.906779375191,1,126
105,001,0,recog,70,MOMENT,HF,lure,-,-,-,liberal,no,m,1,1.25326093651,1,127
105,001,0,recog,71,WEDGES,LF,target,right,yellow,imageability,conservative,yes,m,0,0.879758144459,-1,126
105,001,0,recog,72,TWAIN,LF,lure,-,-,-,liberal,no,m,1,1.27986643908,1,127
105,001,0,recog,73,WRONG,HF,target,right,yellow,imageability,conservative,no,z,1,1.90606156589,1,128
105,001,0,recog,74,MOLARS,LF,target,right,yellow,imageability,conservative,no,z,1,1.66637741665,1,129
105,001,0,recog,75,PEACEABLY,LF,lure,-,-,-,liberal,no,m,1,0.786838867577,1,130
105,001,0,recog,76,ROBBERIES,LF,target,left,aqua,pleasantness,conservative,no,z,1,0.906674893245,1,131
105,001,0,recog,77,STEADFAST,LF,lure,-,-,-,liberal,no,m,1,1.13328596818,1,132
105,001,0,recog,78,ENAMELLED,LF,lure,-,-,-,liberal,no,m,1,1.09334746956,1,133
105,001,0,recog,79,EDUCATION,HF,target,left,aqua,pleasantness,liberal,no,z,1,0.760145746815,3,136
105,001,0,recog,80,NATIONAL,HF,target,left,aqua,pleasantness,conservative,no,z,1,0.893435381033,1,137
105,001,0,recog,81,QUESTION,HF,lure,-,-,-,liberal,no,m,1,1.39980328066,1,138
105,001,0,recog,82,LEMURS,LF,target,left,aqua,pleasantness,liberal,no,z,1,0.786926852373,3,141
105,001,0,recog,83,CAUGHT,HF,target,left,aqua,pleasantness,conservative,no,z,1,0.840027509913,1,142
105,001,0,recog,84,ERADICATE,LF,lure,-,-,-,conservative,no,m,1,0.786488761409,3,145
105,001,0,recog,85,MINISTER,HF,target,right,yellow,imageability,liberal,no,z,1,0.94666618275,3,148
105,001,0,recog,86,UPDATE,LF,lure,-,-,-,conservative,no,m,1,1.02663226461,3,151
105,001,0,recog,87,POUNDS,HF,lure,-,-,-,conservative,no,m,1,1.29322289775,3,154
105,001,0,recog,88,HUSBAND,HF,lure,-,-,-,liberal,no,m,1,0.733438328524,1,155
105,001,0,recog,89,AHEAD,HF,target,right,yellow,imageability,liberal,no,z,1,0.746508836606,3,158
105,001,0,recog,90,FAMILY,HF,lure,-,-,-,conservative,no,m,1,0.720123296028,3,161
105,001,0,recog,91,GURGLE,LF,target,right,yellow,imageability,conservative,no,z,1,0.733372339927,1,162
105,001,0,recog,92,WOBBLE,LF,lure,-,-,-,liberal,no,m,1,0.773554263157,1,163
105,001,0,recog,93,UNEARTHED,LF,lure,-,-,-,liberal,no,m,1,0.74673356444,1,164
105,001,0,recog,94,MEETING,HF,target,left,aqua,pleasantness,liberal,no,z,1,1.42648100408,3,167
105,001,0,recog,95,FAUCET,LF,lure,-,-,-,conservative,no,m,1,0.680082148471,3,170
105,001,1,source,0,THOUSAND,HF,target,left,aqua,pleasantness,liberal,no,3,1,4.93177218977,-,-
105,001,1,source,1,RELAXES,LF,target,left,aqua,pleasantness,liberal,no,1,1,0.813136789963,-,-
105,001,1,source,2,FURTHER,HF,target,right,yellow,imageability,liberal,no,1,0,1.73300060416,-,-
105,001,1,source,3,ORPHANAGE,LF,target,left,aqua,pleasantness,liberal,no,1,1,2.47937453075,-,-
105,001,1,source,4,MOVED,HF,target,right,yellow,imageability,conservative,no,1,0,1.62642865313,-,-
105,001,1,source,5,EARLIER,HF,target,right,yellow,imageability,conservative,no,2,0,2.5994081556,-,-
105,001,1,source,6,PORCHES,LF,target,left,aqua,pleasantness,conservative,no,1,1,1.78633845405,-,-
105,001,1,source,7,INFECT,LF,target,right,yellow,imageability,conservative,no,9,1,4.6249446429,-,-
105,001,1,source,8,RAREFIED,LF,target,right,yellow,imageability,conservative,no,9,1,1.17331025199,-,-
105,001,1,source,9,ARRIVED,HF,target,right,yellow,imageability,liberal,no,9,1,3.02580814035,-,-
105,001,1,source,10,MYOPIC,LF,target,right,yellow,imageability,liberal,no,9,1,0.960036572347,-,-
105,001,1,source,11,LEARN,HF,target,left,aqua,pleasantness,conservative,no,1,1,5.15831031064,-,-
105,001,1,source,12,GESTURING,LF,target,right,yellow,imageability,conservative,no,9,1,1.51952162666,-,-
105,001,1,source,13,PAWNS,LF,target,right,yellow,imageability,liberal,no,9,1,2.55936260881,-,-
105,001,1,source,14,CLOSE,HF,target,right,yellow,imageability,conservative,no,9,1,1.13338898372,-,-
105,001,1,source,15,KOSHER,LF,target,right,yellow,imageability,conservative,no,9,1,0.946643819948,-,-
105,001,1,source,16,RUDIMENTS,LF,target,right,yellow,imageability,conservative,yes,2,0,1.45313929753,-,-
105,001,1,source,17,KIDNAP,LF,target,left,aqua,pleasantness,conservative,no,3,1,3.25239391966,-,-
105,001,1,source,18,BEGAN,HF,target,left,aqua,pleasantness,conservative,no,3,1,1.14659953427,-,-
105,001,1,source,19,RECENT,HF,target,left,aqua,pleasantness,liberal,no,3,1,3.59870537704,-,-
105,001,1,source,20,CONCERNED,HF,target,right,yellow,imageability,conservative,no,9,1,2.46604593393,-,-
105,001,1,source,21,DIGESTING,LF,target,left,aqua,pleasantness,liberal,no,1,1,1.85298583738,-,-
105,001,1,source,22,STUDENT,HF,target,right,yellow,imageability,liberal,no,1,0,1.95960654666,-,-
105,001,1,source,23,CLASS,HF,target,left,aqua,pleasantness,conservative,no,1,1,1.49312288836,-,-
105,001,1,source,24,SEPULCHRE,LF,target,right,yellow,imageability,liberal,yes,8,1,1.10636298714,-,-
105,001,1,source,25,TRADE,HF,target,left,aqua,pleasantness,liberal,no,1,1,1.53322159264,-,-
105,001,1,source,26,VOICE,HF,target,right,yellow,imageability,liberal,no,9,1,3.1591344349,-,-
105,001,1,source,27,ABBOT,LF,target,left,aqua,pleasantness,conservative,no,1,1,1.10637435185,-,-
105,001,1,source,28,CALLED,HF,target,left,aqua,pleasantness,liberal,no,8,0,2.07952065883,-,-
105,001,1,source,29,SCENARIOS,LF,target,left,aqua,pleasantness,conservative,yes,2,1,0.893346296427,-,-
105,001,1,source,30,TEACUP,LF,target,left,aqua,pleasantness,conservative,no,1,1,1.69277542174,-,-
105,001,1,source,31,HIPPY,LF,target,left,aqua,pleasantness,liberal,no,1,1,0.746508836606,-,-
105,001,1,source,32,INCLUDING,HF,target,left,aqua,pleasantness,conservative,no,2,1,2.71930723704,-,-
105,001,1,source,33,TAVERNS,LF,target,left,aqua,pleasantness,liberal,no,1,1,1.09211824863,-,-
105,001,1,source,34,SLIGHTLY,HF,target,left,aqua,pleasantness,liberal,no,8,0,4.31865673612,-,-
105,001,1,source,35,WELCOMES,LF,target,left,aqua,pleasantness,liberal,no,1,1,1.08032022067,-,-
105,001,1,source,36,NINETIES,LF,target,left,aqua,pleasantness,conservative,no,2,1,4.37141498616,-,-
105,001,1,source,37,HOTEL,HF,target,right,yellow,imageability,conservative,yes,8,1,0.813356018747,-,-
105,001,1,source,38,DOING,HF,target,left,aqua,pleasantness,conservative,no,1,1,1.37292355881,-,-
105,001,1,source,39,SCHOOL,HF,target,right,yellow,imageability,liberal,no,9,1,3.91886262054,-,-
105,001,1,source,40,ANNALS,LF,target,right,yellow,imageability,liberal,no,9,1,1.1332654384,-,-
105,001,1,source,41,DOCTOR,HF,target,right,yellow,imageability,conservative,no,9,1,0.93337937871,-,-
105,001,1,source,42,ALABASTER,LF,target,right,yellow,imageability,liberal,no,9,1,1.62635349945,-,-
105,001,1,source,43,PUMPKIN,LF,target,right,yellow,imageability,conservative,no,9,1,1.75941327339,-,-
105,001,1,source,44,SEEMED,HF,target,left,aqua,pleasantness,liberal,no,8,0,1.58637870709,-,-
105,001,1,source,45,RUNNING,HF,target,left,aqua,pleasantness,conservative,no,1,1,2.66600898031,-,-
105,001,1,source,46,TRUTH,HF,target,right,yellow,imageability,liberal,no,8,1,1.23983702283,-,-
105,001,1,source,47,DWELT,LF,target,right,yellow,imageability,liberal,no,8,1,2.95897818857,-,-
105,001,1,recog,0,BEGAN,HF,target,left,aqua,pleasantness,conservative,no,z,1,3.14578347528,1,171
105,001,1,recog,1,HASSLE,LF,lure,-,-,-,conservative,no,z,0,1.98608263825,-3,168
105,001,1,recog,2,TRUTH,HF,target,right,yellow,imageability,liberal,no,z,1,2.23943302597,3,171
105,001,1,recog,3,BAOBAB,LF,lure,-,-,-,conservative,no,m,1,2.02624843094,3,174
105,001,1,recog,4,INFECT,LF,target,right,yellow,imageability,conservative,no,z,1,1.59953866638,1,175
105,001,1,recog,5,WHATEVER,HF,lure,-,-,-,liberal,no,m,1,1.17331795066,1,176
105,001,1,recog,6,BUSINESS,HF,lure,-,-,-,liberal,no,m,1,3.34565487084,1,177
105,001,1,recog,7,AVAILABLE,HF,lure,-,-,-,liberal,no,m,1,0.986655272636,1,178
105,001,1,recog,8,FALCON,LF,lure,-,-,-,conservative,no,m,1,0.693423943009,3,181
105,001,1,recog,9,LARGE,HF,lure,-,-,-,conservative,no,m,1,0.666750252223,3,184
105,001,1,recog,10,CLOSE,HF,target,right,yellow,imageability,conservative,no,z,1,0.893362793576,1,185
105,001,1,recog,11,FOLLOWED,HF,lure,-,-,-,liberal,no,m,1,0.760454793412,1,186
105,001,1,recog,12,ODOURS,LF,lure,-,-,-,liberal,no,m,1,2.49244907147,1,187
105,001,1,recog,13,DREADING,LF,lure,-,-,-,conservative,no,z,0,2.05291075702,-3,184
105,001,1,recog,14,WELCOMES,LF,target,left,aqua,pleasantness,liberal,no,z,1,3.10584131062,3,187
105,001,1,recog,15,PUMPKIN,LF,target,right,yellow,imageability,conservative,no,z,1,1.00000293283,1,188
105,001,1,recog,16,ALABASTER,LF,target,right,yellow,imageability,liberal,no,z,1,0.666755018066,3,191
105,001,1,recog,17,HISTORY,HF,lure,-,-,-,conservative,no,z,0,0.959769318529,-3,188
105,001,1,recog,18,HIPPY,LF,target,left,aqua,pleasantness,liberal,no,z,1,0.813568282068,3,191
105,001,1,recog,19,CHURCH,HF,lure,-,-,-,conservative,no,m,1,1.12005122182,3,194
105,001,1,recog,20,PORCHES,LF,target,left,aqua,pleasantness,conservative,no,z,1,0.93336838061,1,195
105,001,1,recog,21,TOGETHER,HF,lure,-,-,-,liberal,no,z,0,1.81301324464,-1,194
105,001,1,recog,22,BILATERAL,LF,lure,-,-,-,conservative,no,m,1,1.41288991929,3,197
105,001,1,recog,23,DOCTOR,HF,target,right,yellow,imageability,conservative,no,z,1,0.733575438164,1,198
105,001,1,recog,24,TAVERNS,LF,target,left,aqua,pleasantness,liberal,no,z,1,1.67969428216,3,201
105,001,1,recog,25,AIRBED,LF,lure,-,-,-,liberal,no,m,1,1.08006249853,1,202
105,001,1,recog,26,FURTHER,HF,target,right,yellow,imageability,liberal,no,z,1,0.973062721429,3,205
105,001,1,recog,27,ALONE,HF,lure,-,-,-,conservative,no,m,1,1.59975129631,3,208
105,001,1,recog,28,TEACUP,LF,target,left,aqua,pleasantness,conservative,no,z,1,0.693459136928,1,209
105,001,1,recog,29,BECAME,HF,lure,-,-,-,conservative,no,m,1,1.74610960559,3,212
105,001,1,recog,30,LOOKED,HF,lure,-,-,-,conservative,no,m,1,3.0390403205,3,215
105,001,1,recog,31,THOUSAND,HF,target,left,aqua,pleasantness,liberal,no,z,1,0.640139250604,3,218
105,001,1,recog,32,PAWNS,LF,target,right,yellow,imageability,liberal,no,z,1,2.13282441461,3,221
105,001,1,recog,33,SUPPORT,HF,lure,-,-,-,liberal,no,m,1,1.0666213545,1,222
105,001,1,recog,34,GARDEN,HF,lure,-,-,-,conservative,no,m,1,0.840036308393,3,225
105,001,1,recog,35,POACHED,LF,lure,-,-,-,conservative,no,m,1,1.95965347188,3,228
105,001,1,recog,36,OTHERS,HF,lure,-,-,-,conservative,no,m,1,0.813381314375,3,231
105,001,1,recog,37,MURPHY,LF,lure,-,-,-,liberal,no,m,1,0.826523310105,1,232
105,001,1,recog,38,DOING,HF,target,left,aqua,pleasantness,conservative,no,m,0,1.50660215915,-1,231
105,001,1,recog,39,ANNALS,LF,target,right,yellow,imageability,liberal,no,z,1,0.893076842988,3,234
105,001,1,recog,40,RELAXES,LF,target,left,aqua,pleasantness,liberal,no,z,1,0.866685436757,3,237
105,001,1,recog,41,LEARN,HF,target,left,aqua,pleasantness,conservative,no,z,1,1.01362737852,1,238
105,001,1,recog,42,RECENT,HF,target,left,aqua,pleasantness,liberal,no,z,1,1.0667657962,3,241
105,001,1,recog,43,CALLED,HF,target,left,aqua,pleasantness,liberal,no,z,1,0.666774448042,3,244
105,001,1,recog,44,TOWARDS,HF,lure,-,-,-,conservative,no,z,0,1.45287314352,-3,241
105,001,1,recog,45,SEEMED,HF,target,left,aqua,pleasantness,liberal,no,z,1,0.960025940851,3,244
105,001,1,recog,46,SCHOOL,HF,target,right,yellow,imageability,liberal,no,z,1,0.973229525938,3,247
105,001,1,recog,47,STUDENT,HF,target,right,yellow,imageability,liberal,no,z,1,0.920028419089,3,250
105,001,1,recog,48,BLACK,HF,lure,-,-,-,liberal,no,m,1,1.09323638875,1,251
105,001,1,recog,49,GESTURING,LF,target,right,yellow,imageability,conservative,no,z,1,1.94636556803,1,252
105,001,1,recog,50,EARLIER,HF,target,right,yellow,imageability,conservative,no,z,1,1.05330338917,1,253
105,001,1,recog,51,DIGESTING,LF,target,left,aqua,pleasantness,liberal,no,z,1,0.82649508165,3,256
105,001,1,recog,52,SORRY,HF,lure,-,-,-,liberal,no,m,1,2.22614622193,1,257
105,001,1,recog,53,SEWED,LF,lure,-,-,-,liberal,no,m,1,1.06662941977,1,258
105,001,1,recog,54,KNOWLEDGE,HF,lure,-,-,-,liberal,no,m,1,0.9866292438,1,259
105,001,1,recog,55,GABLE,LF,lure,-,-,-,liberal,no,m,1,0.720091401539,1,260
105,001,1,recog,56,CUSTODIAN,LF,lure,-,-,-,conservative,no,m,1,2.2528180797,3,263
105,001,1,recog,57,JINGLE,LF,lure,-,-,-,conservative,no,m,1,0.733428063631,3,266
105,001,1,recog,58,ARRIVED,HF,target,right,yellow,imageability,liberal,no,z,1,0.959994412965,3,269
105,001,1,recog,59,ANIMAL,HF,lure,-,-,-,liberal,no,m,1,1.21330594073,1,270
105,001,1,recog,60,INCLUDING,HF,target,left,aqua,pleasantness,conservative,no,z,1,2.03964521597,1,271
105,001,1,recog,61,HOTEL,HF,target,right,yellow,imageability,conservative,no,z,1,1.14655297565,1,272
105,001,1,recog,62,ABBOT,LF,target,left,aqua,pleasantness,conservative,no,z,1,0.706691683677,1,273
105,001,1,recog,63,SALAMI,LF,lure,-,-,-,liberal,no,m,1,0.813377648342,1,274
105,001,1,recog,64,VOICE,HF,target,right,yellow,imageability,liberal,no,z,1,0.706829526524,3,277
105,001,1,recog,65,SLIGHTLY,HF,target,left,aqua,pleasantness,liberal,yes,z,1,0.986646840759,3,280
105,001,1,recog,66,MYOPIC,LF,target,right,yellow,imageability,liberal,no,z,1,0.98669669881,3,283
105,001,1,recog,67,SEPULCHRE,LF,target,right,yellow,imageability,liberal,no,z,1,0.879793338378,3,286
105,001,1,recog,68,CLASS,HF,target,left,aqua,pleasantness,conservative,no,z,1,0.933347484221,1,287
105,001,1,recog,69,DWELT,LF,target,right,yellow,imageability,liberal,no,z,1,0.600172523521,3,290
105,001,1,recog,70,TRADE,HF,target,left,aqua,pleasantness,liberal,no,z,1,0.613510285423,3,293
105,001,1,recog,71,INUNDATED,LF,lure,-,-,-,liberal,no,m,1,0.933352250064,1,294
105,001,1,recog,72,CONCERNED,HF,target,right,yellow,imageability,conservative,no,z,1,0.826717976467,1,295
105,001,1,recog,73,COGENT,LF,lure,-,-,-,liberal,no,m,1,0.68020349417,1,296
105,001,1,recog,74,BOILERS,LF,lure,-,-,-,conservative,no,m,1,1.23987478297,3,299
105,001,1,recog,75,KIDNAP,LF,target,left,aqua,pleasantness,conservative,no,z,1,0.959847038432,1,300
105,001,1,recog,76,DEEPEN,LF,lure,-,-,-,conservative,no,m,1,1.04000448722,3,303
105,001,1,recog,77,RUDIMENTS,LF,target,right,yellow,imageability,conservative,no,z,1,0.906685158138,1,304
105,001,1,recog,78,ORPHANAGE,LF,target,left,aqua,pleasantness,liberal,no,z,1,0.653420188992,3,307
105,001,1,recog,79,RAREFIED,LF,target,right,yellow,imageability,conservative,no,z,1,0.906445032965,1,308
105,001,1,recog,80,SCENARIOS,LF,target,left,aqua,pleasantness,conservative,no,m,0,3.73220764119,-1,307
105,001,1,recog,81,NINETIES,LF,target,left,aqua,pleasantness,conservative,no,z,1,1.03998505725,1,308
105,001,1,recog,82,YOUNG,HF,lure,-,-,-,conservative,no,m,1,0.986609080617,3,311
105,001,1,recog,83,DOSSIERS,LF,lure,-,-,-,conservative,no,m,1,0.933413472818,3,314
105,001,1,recog,84,OBVIOUSLY,HF,lure,-,-,-,liberal,yes,z,0,0.666769315596,-1,313
105,001,1,recog,85,DULLED,LF,lure,-,-,-,liberal,no,m,1,2.186195992,1,314
105,001,1,recog,86,MOVED,HF,target,right,yellow,imageability,conservative,no,z,1,1.25319824734,1,315
105,001,1,recog,87,ERODE,LF,lure,-,-,-,conservative,no,m,1,0.786795608386,3,318
105,001,1,recog,88,NIBBLE,LF,lure,-,-,-,liberal,no,m,1,0.960025574248,1,319
105,001,1,recog,89,TIPSY,LF,lure,-,-,-,liberal,no,m,1,0.840049506112,1,320
105,001,1,recog,90,DEGREE,HF,lure,-,-,-,conservative,no,m,1,1.05299910842,3,323
105,001,1,recog,91,AREAS,HF,lure,-,-,-,conservative,yes,m,1,0.733188671664,3,326
105,001,1,recog,92,RUNNING,HF,target,left,aqua,pleasantness,conservative,no,m,0,0.760085257268,-1,325
105,001,1,recog,93,KOSHER,LF,target,right,yellow,imageability,conservative,no,z,1,2.02598447655,1,326
105,001,1,recog,94,SUCCESS,HF,lure,-,-,-,liberal,no,z,0,1.13329696628,-1,325
105,001,1,recog,95,ASCEND,LF,lure,-,-,-,liberal,yes,m,1,1.45315212865,1,326
105,001,2,source,0,LINEAGE,LF,target,left,aqua,pleasantness,conservative,no,1,1,2.81281014641,-,-
105,001,2,source,1,ABUSING,LF,target,right,yellow,imageability,conservative,no,2,0,3.54557502464,-,-
105,001,2,source,2,DURING,HF,target,right,yellow,imageability,conservative,no,9,1,3.38564835996,-,-
105,001,2,source,3,OUTSIDE,HF,target,left,aqua,pleasantness,conservative,no,1,1,2.19954658502,-,-
105,001,2,source,4,MYRIADS,LF,target,left,aqua,pleasantness,conservative,no,1,1,1.10631239588,-,-
105,001,2,source,5,CANNOT,HF,target,right,yellow,imageability,conservative,no,8,1,3.83881368633,-,-
105,001,2,source,6,NOMAD,LF,target,left,aqua,pleasantness,liberal,no,1,1,0.826716143451,-,-
105,001,2,source,7,BREAK,HF,target,right,yellow,imageability,conservative,no,9,1,2.09287565109,-,-
105,001,2,source,8,DAILIES,LF,target,left,aqua,pleasantness,conservative,no,9,0,2.21284255414,-,-
105,001,2,source,9,CERTAIN,HF,target,left,aqua,pleasantness,conservative,no,9,0,2.51939991436,-,-
105,001,2,source,10,WAFER,LF,target,left,aqua,pleasantness,liberal,no,2,1,2.95895289294,-,-
105,001,2,source,11,NOURISH,LF,target,left,aqua,pleasantness,liberal,no,1,1,0.826449256235,-,-
105,001,2,source,12,TURNED,HF,target,right,yellow,imageability,liberal,no,9,1,1.44005852455,-,-
105,001,2,source,13,BLUECOATS,LF,target,right,yellow,imageability,conservative,no,9,1,0.973329608644,-,-
105,001,2,source,14,SYNDICATE,LF,target,right,yellow,imageability,conservative,no,9,1,1.3730221751,-,-
105,001,2,source,15,MATERIAL,HF,target,left,aqua,pleasantness,conservative,yes,1,1,1.41287672157,-,-
105,001,2,source,16,PASSED,HF,target,left,aqua,pleasantness,liberal,no,8,0,2.89234436956,-,-
105,001,2,source,17,FLOOR,HF,target,left,aqua,pleasantness,liberal,no,3,1,2.11927438939,-,-
105,001,2,source,18,TAILED,LF,target,right,yellow,imageability,conservative,no,9,1,1.57309043664,-,-
105,001,2,source,19,BOWER,LF,target,right,yellow,imageability,liberal,no,7,1,2.25266227329,-,-
105,001,2,source,20,TINGLING,LF,target,right,yellow,imageability,liberal,no,9,1,1.43982243202,-,-
105,001,2,source,21,SAPLINGS,LF,target,right,yellow,imageability,conservative,yes,2,0,1.15989990263,-,-
105,001,2,source,22,PIZZA,LF,target,left,aqua,pleasantness,conservative,no,1,1,0.733394336125,-,-
105,001,2,source,23,MAKES,HF,target,left,aqua,pleasantness,conservative,no,3,1,2.90610079245,-,-
105,001,2,source,24,UNDER,HF,target,right,yellow,imageability,conservative,no,9,1,1.39984837287,-,-
105,001,2,source,25,HANDS,HF,target,right,yellow,imageability,conservative,no,9,1,0.786711656226,-,-
105,001,2,source,26,SLUGS,LF,target,left,aqua,pleasantness,liberal,no,1,1,0.840055738368,-,-
105,001,2,source,27,PICTURE,HF,target,right,yellow,imageability,liberal,no,9,1,1.35960632669,-,-
105,001,2,source,28,VALUE,HF,target,left,aqua,pleasantness,liberal,no,1,1,1.06637316405,-,-
105,001,2,source,29,ANAEMIC,LF,target,left,aqua,pleasantness,conservative,no,1,1,1.17340666866,-,-
105,001,2,source,30,COVER,HF,target,left,aqua,pleasantness,liberal,no,9,0,1.4807283968,-,-
105,001,2,source,31,PERHAPS,HF,target,right,yellow,imageability,liberal,no,8,1,1.41316120574,-,-
105,001,2,source,32,MOTHER,HF,target,right,yellow,imageability,liberal,no,9,1,2.37279964689,-,-
105,001,2,source,33,LANGUAGE,HF,target,left,aqua,pleasantness,liberal,no,1,1,1.09304502182,-,-
105,001,2,source,34,KINDEST,LF,target,left,aqua,pleasantness,liberal,no,1,1,1.43980740128,-,-
105,001,2,source,35,VIVACIOUS,LF,target,left,aqua,pleasantness,conservative,no,8,0,1.41314690821,-,-
105,001,2,source,36,ATTACK,HF,target,left,aqua,pleasantness,conservative,no,7,0,1.46650968713,-,-
105,001,2,source,37,MOSAICS,LF,target,left,aqua,pleasantness,liberal,no,1,1,0.946392696676,-,-
105,001,2,source,38,BAGGY,LF,target,right,yellow,imageability,liberal,yes,1,0,0.720081136646,-,-
105,001,2,source,39,MEMBERS,HF,target,left,aqua,pleasantness,conservative,no,1,1,0.893156762511,-,-
105,001,2,source,40,GUSHED,LF,target,right,yellow,imageability,liberal,no,9,1,1.41333754194,-,-
105,001,2,source,41,FEELING,HF,target,right,yellow,imageability,conservative,no,9,1,3.71888930926,-,-
105,001,2,source,42,TAWNY,LF,target,right,yellow,imageability,liberal,no,9,1,1.81305760365,-,-
105,001,2,source,43,THEORY,HF,target,right,yellow,imageability,liberal,no,9,1,1.02640203773,-,-
105,001,2,source,44,UNBEATEN,LF,target,right,yellow,imageability,conservative,no,9,1,1.17329962049,-,-
105,001,2,source,45,JABBED,LF,target,right,yellow,imageability,liberal,yes,8,1,1.05308012775,-,-
105,001,2,source,46,OFTEN,HF,target,right,yellow,imageability,liberal,no,9,1,1.74629070763,-,-
105,001,2,source,47,REQUIRED,HF,target,left,aqua,pleasantness,liberal,no,1,1,1.7330596273,-,-
105,001,2,recog,0,ISOLATING,LF,lure,-,-,-,conservative,no,m,1,1.47952593792,3,329
105,001,2,recog,1,BREAK,HF,target,right,yellow,imageability,conservative,no,z,1,1.51974452148,1,330
105,001,2,recog,2,JABBED,LF,target,right,yellow,imageability,liberal,no,z,1,1.58613198306,3,333
105,001,2,recog,3,ANAEMIC,LF,target,left,aqua,pleasantness,conservative,no,z,1,0.813392679078,1,334
105,001,2,recog,4,ABOVE,HF,lure,-,-,-,conservative,yes,m,1,1.21319962577,3,337
105,001,2,recog,5,CRONE,LF,lure,-,-,-,liberal,no,m,1,0.840134191479,1,338
105,001,2,recog,6,OUTSIDE,HF,target,left,aqua,pleasantness,conservative,no,z,1,1.05328799184,1,339
105,001,2,recog,7,BEYOND,HF,lure,-,-,-,conservative,no,z,0,1.4131234456,-3,336
105,001,2,recog,8,ABUSING,LF,target,right,yellow,imageability,conservative,no,z,1,1.89294046655,1,337
105,001,2,recog,9,LINEAGE,LF,target,left,aqua,pleasantness,conservative,yes,m,0,0.693542722484,-1,336
105,001,2,recog,10,MOTHER,HF,target,right,yellow,imageability,liberal,no,z,1,0.706735676075,3,339
105,001,2,recog,11,EMIGRATED,LF,lure,-,-,-,conservative,no,m,1,0.933425204125,3,342
105,001,2,recog,12,HYSTERICS,LF,lure,-,-,-,liberal,no,m,1,1.23986415147,1,343
105,001,2,recog,13,MOSAICS,LF,target,left,aqua,pleasantness,liberal,no,z,1,0.680081415265,3,346
105,001,2,recog,14,YORKER,LF,lure,-,-,-,conservative,no,m,1,1.57316742334,3,349
105,001,2,recog,15,ATTACK,HF,target,left,aqua,pleasantness,conservative,yes,m,0,1.03999495554,-1,348
105,001,2,recog,16,BLUECOATS,LF,target,right,yellow,imageability,conservative,no,z,1,1.25333205755,1,349
105,001,2,recog,17,DEXTERITY,LF,lure,-,-,-,liberal,no,m,1,2.17261737172,1,350
105,001,2,recog,18,LIGHT,HF,lure,-,-,-,conservative,no,z,0,1.81302900859,-3,347
105,001,2,recog,19,MAKES,HF,target,left,aqua,pleasantness,conservative,no,z,1,2.29280496997,1,348
105,001,2,recog,20,SYNDICATE,LF,target,right,yellow,imageability,conservative,no,z,1,0.840107429436,1,349
105,001,2,recog,21,DONATE,LF,lure,-,-,-,conservative,no,m,1,2.49309612632,3,352
105,001,2,recog,22,THEORY,HF,target,right,yellow,imageability,liberal,no,z,1,1.213533968,3,355
105,001,2,recog,23,MYRIADS,LF,target,left,aqua,pleasantness,conservative,no,z,1,0.759841099458,1,356
105,001,2,recog,24,WEAKENS,LF,lure,-,-,-,liberal,no,m,1,0.946781296192,1,357
105,001,2,recog,25,REQUIRED,HF,target,left,aqua,pleasantness,liberal,no,z,1,0.653595058774,3,360
105,001,2,recog,26,PERHAPS,HF,target,right,yellow,imageability,liberal,no,z,1,0.826585632669,3,363
105,001,2,recog,27,HUNDRED,HF,lure,-,-,-,conservative,no,m,1,0.720047042538,3,366
105,001,2,recog,28,MEMBERS,HF,target,left,aqua,pleasantness,conservative,no,z,1,0.719937061543,1,367
105,001,2,recog,29,OFFER,HF,lure,-,-,-,conservative,no,m,1,0.893310002698,3,370
105,001,2,recog,30,UNBEATEN,LF,target,right,yellow,imageability,conservative,no,z,1,0.986659305272,1,371
105,001,2,recog,31,MAJOR,HF,lure,-,-,-,liberal,no,m,1,0.920019987213,1,372
105,001,2,recog,32,PIZZA,LF,target,left,aqua,pleasantness,conservative,no,z,1,0.733506150137,1,373
105,001,2,recog,33,AFFABLE,LF,lure,-,-,-,liberal,no,m,1,1.1600403117,1,374
105,001,2,recog,34,CLICKS,LF,lure,-,-,-,liberal,no,m,1,0.840205312522,1,375
105,001,2,recog,35,DAILIES,LF,target,left,aqua,pleasantness,conservative,no,z,1,0.853338509772,1,376
105,001,2,recog,36,TURNED,HF,target,right,yellow,imageability,liberal,no,z,1,1.14663802762,3,379
105,001,2,recog,37,PICTURE,HF,target,right,yellow,imageability,liberal,no,z,1,0.693370418925,3,382
105,001,2,recog,38,GLIDED,LF,lure,-,-,-,conservative,no,m,1,0.706509481828,3,385
105,001,2,recog,39,FRONT,HF,lure,-,-,-,liberal,no,m,1,1.47985221487,1,386
105,001,2,recog,40,DURING,HF,target,right,yellow,imageability,conservative,no,m,0,1.02661540086,-1,385
105,001,2,recog,41,FLOOR,HF,target,left,aqua,pleasantness,liberal,yes,z,1,0.73352081427,3,388
105,001,2,recog,42,SPOKE,HF,lure,-,-,-,liberal,no,m,1,0.986433844232,1,389
105,001,2,recog,43,YANKED,LF,lure,-,-,-,liberal,no,m,1,1.05328835844,1,390
105,001,2,recog,44,PASSED,HF,target,left,aqua,pleasantness,liberal,no,z,1,0.746746395556,3,393
105,001,2,recog,45,BAGGY,LF,target,right,yellow,imageability,liberal,no,z,1,0.800041352854,3,396
105,001,2,recog,46,OFTEN,HF,target,right,yellow,imageability,liberal,no,z,1,0.546832474015,3,399
105,001,2,recog,47,FIGURE,HF,lure,-,-,-,conservative,no,m,1,1.63968392928,3,402
105,001,2,recog,48,ASTERN,LF,lure,-,-,-,conservative,no,m,1,0.973337307314,3,405
105,001,2,recog,49,CANNOT,HF,target,right,yellow,imageability,conservative,no,z,1,0.666794611224,1,406
105,001,2,recog,50,LONGER,HF,lure,-,-,-,liberal,no,m,1,1.0266194335,1,407
105,001,2,recog,51,OPULENCE,LF,lure,-,-,-,liberal,no,m,1,0.813336588771,1,408
105,001,2,recog,52,HEEDED,LF,lure,-,-,-,conservative,no,m,1,0.800223921306,3,411
105,001,2,recog,53,TAWNY,LF,target,right,yellow,imageability,liberal,no,z,1,0.626785358157,3,414
105,001,2,recog,54,VIVACIOUS,LF,target,left,aqua,pleasantness,conservative,no,z,1,0.733567739494,1,415
105,001,2,recog,55,GEYSER,LF,lure,-,-,-,liberal,no,m,1,0.77316236421,1,416
105,001,2,recog,56,TINGLING,LF,target,right,yellow,imageability,liberal,no,z,1,0.720122562821,3,419
105,001,2,recog,57,CASES,HF,lure,-,-,-,liberal,no,m,1,0.613477291124,1,420
105,001,2,recog,58,FINAL,HF,lure,-,-,-,conservative,no,m,1,1.06661182281,3,423
105,001,2,recog,59,SENSE,HF,lure,-,-,-,conservative,no,m,1,0.720136860351,3,426
105,001,2,recog,60,LANGUAGE,HF,target,left,aqua,pleasantness,liberal,no,z,1,0.626795256446,3,429
105,001,2,recog,61,HANDS,HF,target,right,yellow,imageability,conservative,no,m,0,0.533474548931,-1,428
105,001,2,recog,62,STOOD,HF,lure,-,-,-,conservative,no,m,1,1.27994782502,3,431
105,001,2,recog,63,UNDER,HF,target,right,yellow,imageability,conservative,no,z,1,1.5998059202,1,432
105,001,2,recog,64,TAILED,LF,target,right,yellow,imageability,conservative,no,z,1,1.03999202271,1,433
105,001,2,recog,65,NOMAD,LF,target,left,aqua,pleasantness,liberal,no,z,1,0.73319820335,3,436
105,001,2,recog,66,SHUNNED,LF,lure,-,-,-,liberal,no,m,1,0.679848255555,1,437
105,001,2,recog,67,CENTRAL,HF,lure,-,-,-,liberal,no,m,1,1.13359538138,1,438
105,001,2,recog,68,SLUGS,LF,target,left,aqua,pleasantness,liberal,no,z,1,0.7601882728,3,441
105,001,2,recog,69,VARIOUS,HF,lure,-,-,-,liberal,no,m,1,0.866751425353,1,442
105,001,2,recog,70,COVER,HF,target,left,aqua,pleasantness,liberal,no,z,1,1.10659981289,3,445
105,001,2,recog,71,WRITE,HF,lure,-,-,-,conservative,no,m,1,0.693733356209,3,448
105,001,2,recog,72,BOWER,LF,target,right,yellow,imageability,liberal,no,z,1,1.45316349335,3,451
105,001,2,recog,73,MATERIAL,HF,target,left,aqua,pleasantness,conservative,no,z,1,1.23991217651,1,452
105,001,2,recog,74,VALUE,HF,target,left,aqua,pleasantness,liberal,no,z,1,0.680160968185,3,455
105,001,2,recog,75,HITCHING,LF,lure,-,-,-,liberal,no,m,1,0.959781416438,1,456
105,001,2,recog,76,WHOLE,HF,lure,-,-,-,liberal,no,m,1,1.15966930914,1,457
105,001,2,recog,77,SUDDENLY,HF,lure,-,-,-,liberal,no,m,1,0.813450235799,1,458
105,001,2,recog,78,ROPED,LF,lure,-,-,-,conservative,no,m,1,0.946717140611,3,461
105,001,2,recog,79,AVENGE,LF,lure,-,-,-,conservative,no,m,1,0.586578872504,3,464
105,001,2,recog,80,NOURISH,LF,target,left,aqua,pleasantness,liberal,no,z,1,0.62677692628,3,467
105,001,2,recog,81,GUSHED,LF,target,right,yellow,imageability,liberal,no,z,1,0.680088380728,3,470
105,001,2,recog,82,OUGHT,HF,lure,-,-,-,liberal,no,m,1,0.666680964196,1,471
105,001,2,recog,83,SAPLINGS,LF,target,right,yellow,imageability,conservative,no,z,1,1.09324921987,1,472
105,001,2,recog,84,GOUGED,LF,lure,-,-,-,conservative,no,z,0,1.89290014019,-3,469
105,001,2,recog,85,BINDINGS,LF,lure,-,-,-,conservative,no,m,1,2.4261074353,3,472
105,001,2,recog,86,QUALITY,HF,lure,-,-,-,liberal,no,m,1,1.22659457779,1,473
105,001,2,recog,87,CERTAIN,HF,target,left,aqua,pleasantness,conservative,no,z,1,0.7332037024,1,474
105,001,2,recog,88,NUTSHELL,LF,lure,-,-,-,conservative,no,m,1,0.840082867014,3,477
105,001,2,recog,89,FEELING,HF,target,right,yellow,imageability,conservative,no,z,1,1.17320503684,1,478
105,001,2,recog,90,DUCHY,LF,lure,-,-,-,liberal,no,m,1,1.0530515327,1,479
105,001,2,recog,91,ORDER,HF,lure,-,-,-,conservative,no,z,0,1.30626004493,-3,476
105,001,2,recog,92,WAFER,LF,target,left,aqua,pleasantness,liberal,no,z,1,1.07970616011,3,479
105,001,2,recog,93,PLACE,HF,lure,-,-,-,liberal,no,m,1,1.37306983353,1,480
105,001,2,recog,94,KINDEST,LF,target,left,aqua,pleasantness,liberal,no,z,1,0.72015005807,3,483
105,001,2,recog,95,USUAL,HF,lure,-,-,-,conservative,no,m,1,1.54643690904,3,486
105,001,3,source,0,EAVES,LF,target,right,yellow,imageability,conservative,no,8,1,2.42606490932,-,-
105,001,3,source,1,DOODLE,LF,target,left,aqua,pleasantness,liberal,no,1,1,2.91919439654,-,-
105,001,3,source,2,SUMMER,HF,target,right,yellow,imageability,liberal,no,9,1,1.70637457181,-,-
105,001,3,source,3,MYSELF,HF,target,right,yellow,imageability,liberal,no,9,1,0.760107253467,-,-
105,001,3,source,4,LEPROSY,LF,target,left,aqua,pleasantness,conservative,no,2,1,1.77297869595,-,-
105,001,3,source,5,EIGHT,HF,target,left,aqua,pleasantness,conservative,yes,3,1,1.01332859682,-,-
105,001,3,source,6,TAKEN,HF,target,right,yellow,imageability,conservative,no,9,1,1.67944609172,-,-
105,001,3,source,7,LETTER,HF,target,left,aqua,pleasantness,conservative,no,1,1,2.59911084031,-,-
105,001,3,source,8,ZEBRA,LF,target,left,aqua,pleasantness,conservative,no,1,1,1.89308234204,-,-
105,001,3,source,9,RUSSET,LF,target,left,aqua,pleasantness,liberal,no,1,1,0.746513235846,-,-
105,001,3,source,10,SHALL,HF,target,left,aqua,pleasantness,liberal,no,8,0,2.61281043969,-,-
105,001,3,source,11,KERNEL,LF,target,left,aqua,pleasantness,liberal,no,1,1,1.292962976,-,-
105,001,3,source,12,ROSEBUD,LF,target,right,yellow,imageability,liberal,no,9,1,0.893419983694,-,-
105,001,3,source,13,SELECTS,LF,target,right,yellow,imageability,conservative,no,9,1,1.54643067678,-,-
105,001,3,source,14,GROUND,HF,target,left,aqua,pleasantness,liberal,yes,8,0,0.800027055325,-,-
105,001,3,source,15,CAPITAL,HF,target,left,aqua,pleasantness,liberal,no,1,1,1.31985039652,-,-
105,001,3,source,16,GIVEN,HF,target,right,yellow,imageability,liberal,no,8,1,1.78609282983,-,-
105,001,3,source,17,HOBBLE,LF,target,left,aqua,pleasantness,conservative,no,1,1,2.7860121771,-,-
105,001,3,source,18,ENFORCING,LF,target,left,aqua,pleasantness,conservative,no,1,1,1.29337797095,-,-
105,001,3,source,19,RASCAL,LF,target,right,yellow,imageability,conservative,no,9,1,1.66645220373,-,-
105,001,3,source,20,INMATE,LF,target,left,aqua,pleasantness,conservative,no,1,1,0.813378014946,-,-
105,001,3,source,21,CARRIED,HF,target,right,yellow,imageability,conservative,no,9,1,1.01327690575,-,-
105,001,3,source,22,DAUGHTER,HF,target,left,aqua,pleasantness,liberal,no,1,1,1.11966922116,-,-
105,001,3,source,23,THANK,HF,target,right,yellow,imageability,conservative,no,9,1,1.58638530595,-,-
105,001,3,source,24,SQUADRONS,LF,target,right,yellow,imageability,liberal,no,9,1,0.76018387356,-,-
105,001,3,source,25,ROUND,HF,target,left,aqua,pleasantness,conservative,no,1,1,2.09291524425,-,-
105,001,3,source,26,OCCUPANCY,LF,target,right,yellow,imageability,liberal,yes,8,1,0.704808442435,-,-
105,001,3,source,27,SLOWLY,HF,target,left,aqua,pleasantness,liberal,no,1,1,2.26609901809,-,-
105,001,3,source,28,PARENTS,HF,target,right,yellow,imageability,liberal,no,9,1,1.31985406255,-,-
105,001,3,source,29,DRYER,LF,target,left,aqua,pleasantness,liberal,no,1,1,0.920043449825,-,-
105,001,3,source,30,MUSIC,HF,target,right,yellow,imageability,liberal,no,9,1,2.15928950811,-,-
105,001,3,source,31,PLIABLE,LF,target,right,yellow,imageability,conservative,no,7,1,2.14632238216,-,-
105,001,3,source,32,UNION,HF,target,left,aqua,pleasantness,conservative,no,1,1,0.906695056428,-,-
105,001,3,source,33,UNWARY,LF,target,right,yellow,imageability,liberal,no,9,1,1.94597183607,-,-
105,001,3,source,34,JOYFULLY,LF,target,right,yellow,imageability,liberal,no,9,1,1.41313334389,-,-
105,001,3,source,35,PATCHY,LF,target,left,aqua,pleasantness,liberal,no,1,1,0.853443358321,-,-
105,001,3,source,36,TACITLY,LF,target,right,yellow,imageability,conservative,no,9,1,0.986722727646,-,-
105,001,3,source,37,TENABLE,LF,target,right,yellow,imageability,conservative,no,2,0,1.62638356092,-,-
105,001,3,source,38,EFFECT,HF,target,right,yellow,imageability,liberal,no,8,1,2.26614704312,-,-
105,001,3,source,39,TREES,HF,target,left,aqua,pleasantness,conservative,no,1,1,2.06621075878,-,-
105,001,3,source,40,HURDLES,LF,target,right,yellow,imageability,liberal,no,9,1,0.946481414678,-,-
105,001,3,source,41,FREEDOM,HF,target,right,yellow,imageability,conservative,yes,2,0,1.04002685003,-,-
105,001,3,source,42,FIELD,HF,target,left,aqua,pleasantness,conservative,no,1,1,0.999983502851,-,-
105,001,3,source,43,LABOUR,HF,target,right,yellow,imageability,conservative,no,9,1,0.879794071584,-,-
105,001,3,source,44,TOTAL,HF,target,left,aqua,pleasantness,liberal,no,1,1,0.85337260388,-,-
105,001,3,source,45,APART,HF,target,right,yellow,imageability,conservative,no,7,1,2.17259720854,-,-
105,001,3,source,46,FASCINATE,LF,target,left,aqua,pleasantness,conservative,no,2,1,2.89262848713,-,-
105,001,3,source,47,DIDACTIC,LF,target,left,aqua,pleasantness,liberal,no,1,1,0.973384232538,-,-
105,001,3,recog,0,TREES,HF,target,left,aqua,pleasantness,conservative,no,z,1,1.54643764224,1,487
105,001,3,recog,1,ASPIRED,LF,lure,-,-,-,liberal,no,m,1,0.933339052345,1,488
105,001,3,recog,2,ARMAMENT,LF,lure,-,-,-,conservative,no,m,1,1.01306830846,3,491
105,001,3,recog,3,DRYER,LF,target,left,aqua,pleasantness,liberal,no,z,1,1.05329019145,3,494
105,001,3,recog,4,ADULATION,LF,lure,-,-,-,liberal,no,m,1,0.680017626287,1,495
105,001,3,recog,5,ANSWER,HF,lure,-,-,-,liberal,no,m,1,2.54602777973,1,496
105,001,3,recog,6,KERNEL,LF,target,left,aqua,pleasantness,liberal,no,z,1,0.866804949438,3,499
105,001,3,recog,7,WANTED,HF,lure,-,-,-,conservative,no,z,0,2.19950222602,-3,496
105,001,3,recog,8,TACITLY,LF,target,right,yellow,imageability,conservative,yes,m,0,0.639916355787,-1,495
105,001,3,recog,9,WAITING,HF,lure,-,-,-,conservative,no,m,1,0.840082500411,3,498
105,001,3,recog,10,SOVIET,HF,lure,-,-,-,liberal,no,m,1,0.853342909012,1,499
105,001,3,recog,11,FASCINATE,LF,target,left,aqua,pleasantness,conservative,no,z,1,0.973090216677,1,500
105,001,3,recog,12,GROUND,HF,target,left,aqua,pleasantness,liberal,no,z,1,0.786813205345,3,503
105,001,3,recog,13,IGNOBLE,LF,lure,-,-,-,liberal,no,m,1,0.786716788672,1,504
105,001,3,recog,14,TOTAL,HF,target,left,aqua,pleasantness,liberal,no,z,1,0.600032481054,3,507
105,001,3,recog,15,RASCAL,LF,target,right,yellow,imageability,conservative,no,z,1,1.02666232608,1,508
105,001,3,recog,16,SQUADRONS,LF,target,right,yellow,imageability,liberal,no,z,1,0.640205239201,3,511
105,001,3,recog,17,WITHIN,HF,lure,-,-,-,conservative,no,m,1,0.946402961568,3,514
105,001,3,recog,18,NEEDED,HF,lure,-,-,-,conservative,no,m,1,0.786494260458,3,517
105,001,3,recog,19,HURDLES,LF,target,right,yellow,imageability,liberal,no,m,0,0.866649876235,-3,514
105,001,3,recog,20,IDIOCY,LF,lure,-,-,-,liberal,no,m,1,1.38655277035,1,515
105,001,3,recog,21,MAPPED,LF,lure,-,-,-,conservative,no,m,1,2.31942330365,3,518
105,001,3,recog,22,INMATE,LF,target,left,aqua,pleasantness,conservative,no,z,1,1.11997973417,1,519
105,001,3,recog,23,NAPPY,LF,lure,-,-,-,conservative,no,m,1,0.840216310622,3,522
105,001,3,recog,24,FREEDOM,HF,target,right,yellow,imageability,conservative,no,z,1,1.03997845839,1,523
105,001,3,recog,25,JOYFULLY,LF,target,right,yellow,imageability,liberal,no,z,1,1.18657945907,3,526
105,001,3,recog,26,TAKEN,HF,target,right,yellow,imageability,conservative,no,z,1,0.893352528683,1,527
105,001,3,recog,27,UNWARY,LF,target,right,yellow,imageability,liberal,no,z,1,0.600113500387,3,530
105,001,3,recog,28,DIDACTIC,LF,target,left,aqua,pleasantness,liberal,no,z,1,0.600145761479,3,533
105,001,3,recog,29,CORNER,HF,lure,-,-,-,conservative,no,m,1,1.29322106473,3,536
105,001,3,recog,30,CAPITAL,HF,target,left,aqua,pleasantness,liberal,no,z,1,0.693476367284,3,539
105,001,3,recog,31,HOBBLE,LF,target,left,aqua,pleasantness,conservative,no,z,1,0.693563618874,1,540
105,001,3,recog,32,ROYALS,LF,lure,-,-,-,liberal,no,m,1,0.760090756317,1,541
105,001,3,recog,33,LABOUR,HF,target,right,yellow,imageability,conservative,no,z,1,1.94627648342,1,542
105,001,3,recog,34,PLIABLE,LF,target,right,yellow,imageability,conservative,no,z,1,0.826739239459,1,543
105,001,3,recog,35,SHALL,HF,target,left,aqua,pleasantness,liberal,no,z,1,1.86629390441,3,546
105,001,3,recog,36,RUSSET,LF,target,left,aqua,pleasantness,liberal,no,z,1,0.60013916262,3,549
105,001,3,recog,37,STRAIGHT,HF,lure,-,-,-,liberal,no,m,1,0.90670752094,1,550
105,001,3,recog,38,DOODLE,LF,target,left,aqua,pleasantness,liberal,no,z,1,0.693438973745,3,553
105,001,3,recog,39,CARRIED,HF,target,right,yellow,imageability,conservative,no,z,1,0.893132566692,1,554
105,001,3,recog,40,ENOUGH,HF,lure,-,-,-,liberal,no,m,1,2.15951973499,1,555
105,001,3,recog,41,SUBJECT,HF,lure,-,-,-,liberal,no,m,1,0.826900544919,1,556
105,001,3,recog,42,EFFECT,HF,target,right,yellow,imageability,liberal,no,z,1,0.760079758218,3,559
105,001,3,recog,43,TRIED,HF,lure,-,-,-,liberal,no,m,1,0.920036850966,1,560
105,001,3,recog,44,THANK,HF,target,right,yellow,imageability,conservative,no,z,1,0.973318610544,1,561
105,001,3,recog,45,SINCE,HF,lure,-,-,-,conservative,no,m,1,0.786735118838,3,564
105,001,3,recog,46,FIELD,HF,target,left,aqua,pleasantness,conservative,no,z,1,0.773465911757,1,565
105,001,3,recog,47,CLEAR,HF,lure,-,-,-,conservative,no,m,1,0.773175928533,3,568
105,001,3,recog,48,APART,HF,target,right,yellow,imageability,conservative,no,z,1,0.786742084301,1,569
105,001,3,recog,49,DAUGHTER,HF,target,left,aqua,pleasantness,liberal,no,z,1,0.626768127801,3,572
105,001,3,recog,50,DICHOTOMY,LF,lure,-,-,-,liberal,no,m,1,0.960034372727,1,573
105,001,3,recog,51,EIGHT,HF,target,left,aqua,pleasantness,conservative,no,m,0,0.840045473476,-1,572
105,001,3,recog,52,WALKED,HF,lure,-,-,-,conservative,no,m,1,3.33246081744,3,575
105,001,3,recog,53,HOODLUMS,LF,lure,-,-,-,conservative,yes,m,1,0.693418810563,3,578
105,001,3,recog,54,COUNCIL,HF,lure,-,-,-,conservative,no,z,0,4.02543530478,-3,575
105,001,3,recog,55,SECOND,HF,lure,-,-,-,liberal,no,m,1,2.6792899187,1,576
105,001,3,recog,56,SUMMER,HF,target,right,yellow,imageability,liberal,no,z,1,0.68018259778,3,579
105,001,3,recog,57,LEPROSY,LF,target,left,aqua,pleasantness,conservative,yes,m,0,1.02685955867,-1,578
105,001,3,recog,58,HAVING,HF,lure,-,-,-,liberal,no,m,1,2.93264763849,1,579
105,001,3,recog,59,LOLLED,LF,lure,-,-,-,liberal,no,m,1,0.746736130663,1,580
105,001,3,recog,60,BUZZARD,LF,lure,-,-,-,liberal,no,m,1,0.693450705051,1,581
105,001,3,recog,61,ASKED,HF,lure,-,-,-,liberal,no,m,1,1.41319823268,1,582
105,001,3,recog,62,FLAGGED,LF,lure,-,-,-,conservative,no,m,1,0.813405143591,3,585
105,001,3,recog,63,ROSEBUD,LF,target,right,yellow,imageability,liberal,no,z,1,0.693410378687,3,588
105,001,3,recog,64,MUGGING,LF,lure,-,-,-,liberal,no,m,1,0.74674346273,1,589
105,001,3,recog,65,SELECTS,LF,target,right,yellow,imageability,conservative,no,z,1,0.920035017949,1,590
105,001,3,recog,66,SLOWLY,HF,target,left,aqua,pleasantness,liberal,no,z,1,1.75944920051,3,593
105,001,3,recog,67,EAVES,LF,target,right,yellow,imageability,conservative,no,z,1,1.23967388435,1,594
105,001,3,recog,68,HAPPEN,HF,lure,-,-,-,conservative,no,m,1,0.760041264869,3,597
105,001,3,recog,69,ENFORCING,LF,target,left,aqua,pleasantness,conservative,no,z,1,0.706748507191,1,598
105,001,3,recog,70,PATCHY,LF,target,left,aqua,pleasantness,liberal,no,z,1,0.639891426762,3,601
105,001,3,recog,71,PIVOT,LF,lure,-,-,-,conservative,no,m,1,0.706621662443,3,604
105,001,3,recog,72,ZEBRA,LF,target,left,aqua,pleasantness,conservative,no,z,1,0.706780035076,1,605
105,001,3,recog,73,WOODCOCK,LF,lure,-,-,-,conservative,no,m,1,0.919977094625,3,608
105,001,3,recog,74,OLDER,HF,lure,-,-,-,conservative,no,m,1,1.06659385925,3,611
105,001,3,recog,75,AVIDLY,LF,lure,-,-,-,conservative,no,m,1,0.786478129913,3,614
105,001,3,recog,76,MEDDLE,LF,lure,-,-,-,liberal,no,m,1,1.26653894207,1,615
105,001,3,recog,77,RETURN,HF,lure,-,-,-,liberal,no,z,0,1.7197006024,-1,614
105,001,3,recog,78,EGOISM,LF,lure,-,-,-,liberal,no,m,1,1.45318842237,1,615
105,001,3,recog,79,LETTER,HF,target,left,aqua,pleasantness,conservative,no,m,0,0.720084436076,-1,614
105,001,3,recog,80,INSIDE,HF,lure,-,-,-,liberal,no,m,1,1.62645394876,1,615
105,001,3,recog,81,OCCUPANCY,LF,target,right,yellow,imageability,liberal,no,m,0,1.35991757291,-3,612
105,001,3,recog,82,ROUND,HF,target,left,aqua,pleasantness,conservative,no,z,1,1.50642618955,1,613
105,001,3,recog,83,BONANZA,LF,lure,-,-,-,conservative,no,m,1,0.853379202741,3,616
105,001,3,recog,84,DORMS,LF,lure,-,-,-,conservative,no,m,1,0.973293314915,3,619
105,001,3,recog,85,MUSIC,HF,target,right,yellow,imageability,liberal,no,z,1,0.893127067643,3,622
105,001,3,recog,86,JELLIES,LF,lure,-,-,-,conservative,no,m,1,0.933330987072,3,625
105,001,3,recog,87,GIVEN,HF,target,right,yellow,imageability,liberal,no,z,1,0.973071519908,3,628
105,001,3,recog,88,PHRASED,LF,lure,-,-,-,conservative,no,m,1,0.72000195033,3,631
105,001,3,recog,89,HECTOR,LF,lure,-,-,-,liberal,no,m,1,0.693431641679,1,632
105,001,3,recog,90,MYSELF,HF,target,right,yellow,imageability,liberal,no,z,1,0.680101211844,3,635
105,001,3,recog,91,POLICE,HF,lure,-,-,-,conservative,no,m,1,0.920061779991,3,638
105,001,3,recog,92,TENABLE,LF,target,right,yellow,imageability,conservative,no,z,1,0.800073613946,1,639
105,001,3,recog,93,UNION,HF,target,left,aqua,pleasantness,conservative,yes,z,1,1.10660641175,1,640
105,001,3,recog,94,NECESSARY,HF,lure,-,-,-,liberal,no,m,1,2.09284119038,1,641
105,001,3,recog,95,PARENTS,HF,target,right,yellow,imageability,liberal,no,z,1,1.4931159229,3,644
105,001,4,source,0,BRACES,LF,target,right,yellow,imageability,conservative,no,9,1,2.29278187396,-,-
105,001,4,source,1,MOGUL,LF,target,right,yellow,imageability,liberal,no,7,1,1.37315085287,-,-
105,001,4,source,2,UPHEAVALS,LF,target,right,yellow,imageability,conservative,no,9,1,1.00005682351,-,-
105,001,4,source,3,ELICIT,LF,target,right,yellow,imageability,liberal,no,9,1,0.747072305905,-,-
105,001,4,source,4,MOUTH,HF,target,right,yellow,imageability,conservative,no,9,1,0.786686360597,-,-
105,001,4,source,5,ECONOMIC,HF,target,left,aqua,pleasantness,conservative,no,1,1,0.760072792755,-,-
105,001,4,source,6,REACHED,HF,target,left,aqua,pleasantness,conservative,no,1,1,2.06595450306,-,-
105,001,4,source,7,NUCLEAR,HF,target,right,yellow,imageability,conservative,no,8,1,1.70620263485,-,-
105,001,4,source,8,INTEREST,HF,target,left,aqua,pleasantness,liberal,no,3,1,2.27925091211,-,-
105,001,4,source,9,SITTING,HF,target,left,aqua,pleasantness,liberal,no,9,0,1.74723214495,-,-
105,001,4,source,10,PROBABLY,HF,target,right,yellow,imageability,conservative,no,7,1,3.14575671324,-,-
105,001,4,source,11,COWARDS,LF,target,right,yellow,imageability,liberal,no,9,1,1.33316762863,-,-
105,001,4,source,12,ARBITER,LF,target,left,aqua,pleasantness,conservative,no,1,1,1.27965600877,-,-
105,001,4,source,13,BOOKS,HF,target,left,aqua,pleasantness,conservative,no,1,1,0.973471117524,-,-
105,001,4,source,14,SIFTED,LF,target,left,aqua,pleasantness,liberal,no,1,1,1.02641633526,-,-
105,001,4,source,15,UPROOTED,LF,target,right,yellow,imageability,conservative,no,9,1,1.71974239518,-,-
105,001,4,source,16,POINT,HF,target,right,yellow,imageability,liberal,no,9,1,0.920196690012,-,-
105,001,4,source,17,BLOOD,HF,target,left,aqua,pleasantness,conservative,no,1,1,0.746527166772,-,-
105,001,4,source,18,SPRATS,LF,target,left,aqua,pleasantness,conservative,no,1,1,1.18658349171,-,-
105,001,4,source,19,MERELY,HF,target,left,aqua,pleasantness,liberal,no,1,1,2.74592043828,-,-
105,001,4,source,20,AEGIS,LF,target,right,yellow,imageability,conservative,no,9,1,0.920025119659,-,-
105,001,4,source,21,RENAMED,LF,target,left,aqua,pleasantness,conservative,no,1,1,3.05230512834,-,-
105,001,4,source,22,SPEAK,HF,target,right,yellow,imageability,liberal,no,8,1,2.27953979552,-,-
105,001,4,source,23,LEVEL,HF,target,right,yellow,imageability,liberal,no,9,1,2.35878000282,-,-
105,001,4,source,24,FORCE,HF,target,right,yellow,imageability,conservative,no,9,1,1.54646147146,-,-
105,001,4,source,25,ENCLOSE,LF,target,left,aqua,pleasantness,liberal,no,1,1,1.78606863401,-,-
105,001,4,source,26,ANYONE,HF,target,left,aqua,pleasantness,liberal,no,1,1,2.26587722308,-,-
105,001,4,source,27,ORBITAL,LF,target,right,yellow,imageability,conservative,no,8,1,1.99970378452,-,-
105,001,4,source,28,TULIPS,LF,target,left,aqua,pleasantness,conservative,no,1,1,1.41313774313,-,-
105,001,4,source,29,SIMILAR,HF,target,right,yellow,imageability,conservative,no,9,1,3.45230087574,-,-
105,001,4,source,30,OMITTING,LF,target,left,aqua,pleasantness,liberal,no,3,1,1.61303846695,-,-
105,001,4,source,31,CHOICE,HF,target,right,yellow,imageability,conservative,no,1,0,2.14604376364,-,-
105,001,4,source,32,DWINDLE,LF,target,left,aqua,pleasantness,conservative,yes,1,1,0.826694147252,-,-
105,001,4,source,33,BEHIND,HF,target,left,aqua,pleasantness,liberal,no,1,1,0.9200738779,-,-
105,001,4,source,34,PIECE,HF,target,left,aqua,pleasantness,conservative,no,1,1,2.43951008599,-,-
105,001,4,source,35,VEGAN,LF,target,left,aqua,pleasantness,liberal,no,1,1,0.600152360339,-,-
105,001,4,source,36,CHAIR,HF,target,right,yellow,imageability,liberal,no,9,1,1.10593222824,-,-
105,001,4,source,37,WISPY,LF,target,left,aqua,pleasantness,conservative,yes,8,0,0.813383147392,-,-
105,001,4,source,38,KRAALS,LF,target,left,aqua,pleasantness,liberal,no,9,0,1.74609567467,-,-
105,001,4,source,39,SOCIAL,HF,target,right,yellow,imageability,liberal,no,9,1,0.906448698998,-,-
105,001,4,source,40,EMULATION,LF,target,right,yellow,imageability,liberal,yes,8,1,0.626795989653,-,-
105,001,4,source,41,TIERS,LF,target,right,yellow,imageability,liberal,no,9,1,0.813138256376,-,-
105,001,4,source,42,SARDINES,LF,target,right,yellow,imageability,liberal,no,9,1,0.73344786021,-,-
105,001,4,source,43,UNPACK,LF,target,right,yellow,imageability,conservative,no,9,1,1.50625828523,-,-
105,001,4,source,44,THING,HF,target,left,aqua,pleasantness,conservative,yes,8,0,0.720087735506,-,-
105,001,4,source,45,VAINLY,LF,target,left,aqua,pleasantness,liberal,no,1,1,1.38649044778,-,-
105,001,4,source,46,SOMEONE,HF,target,left,aqua,pleasantness,liberal,no,1,1,0.813406610004,-,-
105,001,4,source,47,BUILDING,HF,target,right,yellow,imageability,liberal,no,9,1,2.03956126381,-,-
105,001,4,recog,0,ERSTWHILE,LF,lure,-,-,-,conservative,no,m,1,2.1062922327,3,647
105,001,4,recog,1,FOUND,HF,lure,-,-,-,conservative,no,m,1,1.05326049659,3,650
105,001,4,recog,2,TWENTY,HF,lure,-,-,-,liberal,no,m,1,0.973110746463,1,651
105,001,4,recog,3,CESSATION,LF,lure,-,-,-,conservative,no,m,1,0.893367559419,3,654
105,001,4,recog,4,OMITTING,LF,target,left,aqua,pleasantness,liberal,yes,m,0,1.21323371988,-3,651
105,001,4,recog,5,FORCE,HF,target,right,yellow,imageability,conservative,no,m,0,1.54641821227,-1,650
105,001,4,recog,6,GETTING,HF,lure,-,-,-,liberal,no,m,1,1.23988504786,1,651
105,001,4,recog,7,PREPARED,HF,lure,-,-,-,conservative,no,m,1,1.37293858954,3,654
105,001,4,recog,8,BEHIND,HF,target,left,aqua,pleasantness,liberal,no,z,1,0.706755106051,3,657
105,001,4,recog,9,CHOICE,HF,target,right,yellow,imageability,conservative,no,z,1,1.09335150219,1,658
105,001,4,recog,10,WAKED,LF,lure,-,-,-,liberal,no,m,1,1.55975010851,1,659
105,001,4,recog,11,AEGIS,LF,target,right,yellow,imageability,conservative,no,z,1,0.880123281363,1,660
105,001,4,recog,12,NIMBLE,LF,lure,-,-,-,conservative,no,m,1,0.69341404472,3,663
105,001,4,recog,13,ELICIT,LF,target,right,yellow,imageability,liberal,no,z,1,1.62638026149,3,666
105,001,4,recog,14,THING,HF,target,left,aqua,pleasantness,conservative,no,z,1,1.50641922409,1,667
105,001,4,recog,15,ECONOMIC,HF,target,left,aqua,pleasantness,conservative,no,z,1,0.800067015087,1,668
105,001,4,recog,16,USING,HF,lure,-,-,-,conservative,no,m,1,1.36001325638,3,671
105,001,4,recog,17,HERSELF,HF,lure,-,-,-,conservative,no,m,1,0.973448388118,3,674
105,001,4,recog,18,OBSCURELY,LF,lure,-,-,-,conservative,no,m,1,0.879777574435,3,677
105,001,4,recog,19,BOVINE,LF,lure,-,-,-,liberal,no,m,1,1.01333336266,1,678
105,001,4,recog,20,BRACES,LF,target,right,yellow,imageability,conservative,no,m,0,0.693433108092,-1,677
105,001,4,recog,21,UPHEAVALS,LF,target,right,yellow,imageability,conservative,no,m,0,0.826694513854,-1,676
105,001,4,recog,22,MAMMAL,LF,lure,-,-,-,conservative,no,m,1,0.946635388072,3,679
105,001,4,recog,23,BOOKS,HF,target,left,aqua,pleasantness,conservative,no,z,1,0.946411760048,1,680
105,001,4,recog,24,KRAALS,LF,target,left,aqua,pleasantness,liberal,no,z,1,1.19989192534,3,683
105,001,4,recog,25,VAINLY,LF,target,left,aqua,pleasantness,liberal,no,z,1,0.906842797564,3,686
105,001,4,recog,26,TULIPS,LF,target,left,aqua,pleasantness,conservative,no,z,1,0.74674236292,1,687
105,001,4,recog,27,SARDINES,LF,target,right,yellow,imageability,liberal,no,z,1,0.640374243331,3,690
105,001,4,recog,28,REACHED,HF,target,left,aqua,pleasantness,conservative,no,z,1,0.746752261209,1,691
105,001,4,recog,29,AROUND,HF,lure,-,-,-,liberal,no,m,1,1.79964138863,1,692
105,001,4,recog,30,ACCORDING,HF,lure,-,-,-,conservative,no,m,1,1.61303773375,3,695
105,001,4,recog,31,EMULATION,LF,target,right,yellow,imageability,liberal,no,m,0,1.22652492316,-3,692
105,001,4,recog,32,DRINK,HF,lure,-,-,-,liberal,no,m,1,1.13306893902,1,693
105,001,4,recog,33,MAYBE,HF,lure,-,-,-,conservative,no,m,1,2.30612000246,3,696
105,001,4,recog,34,FRIEND,HF,lure,-,-,-,conservative,no,m,1,1.15994206201,3,699
105,001,4,recog,35,TOPICAL,LF,lure,-,-,-,conservative,no,m,1,0.919986626311,3,702
105,001,4,recog,36,SPRATS,LF,target,left,aqua,pleasantness,conservative,yes,m,0,1.03974603189,-1,701
105,001,4,recog,37,VISCOUS,LF,lure,-,-,-,conservative,no,m,1,1.37320694317,3,704
105,001,4,recog,38,TIERS,LF,target,right,yellow,imageability,liberal,no,z,1,1.11994380704,3,707
105,001,4,recog,39,COWARDS,LF,target,right,yellow,imageability,liberal,no,z,1,0.893188290397,3,710
105,001,4,recog,40,ORBITAL,LF,target,right,yellow,imageability,conservative,no,z,1,0.759839266441,1,711
105,001,4,recog,41,BLOOD,HF,target,left,aqua,pleasantness,conservative,no,z,1,0.80005968302,1,712
105,001,4,recog,42,WATCH,HF,lure,-,-,-,conservative,no,m,1,2.05286199878,3,715
105,001,4,recog,43,VEGAN,LF,target,left,aqua,pleasantness,liberal,no,z,1,0.64015758077,3,718
105,001,4,recog,44,RABBIS,LF,lure,-,-,-,liberal,no,m,1,1.00004252599,1,719
105,001,4,recog,45,ITSELF,HF,lure,-,-,-,conservative,no,m,1,0.733326881115,3,722
105,001,4,recog,46,AMONG,HF,lure,-,-,-,conservative,no,m,1,0.640114688182,3,725
105,001,4,recog,47,BACHELORS,LF,lure,-,-,-,liberal,no,m,1,0.773381959597,1,726
105,001,4,recog,48,BOGEY,LF,lure,-,-,-,conservative,no,m,1,0.680164267615,3,729
105,001,4,recog,49,RENAMED,LF,target,left,aqua,pleasantness,conservative,no,z,1,2.13258428943,1,730
105,001,4,recog,50,TELEPHONE,HF,lure,-,-,-,liberal,no,m,1,0.733418531944,1,731
105,001,4,recog,51,BUILDING,HF,target,right,yellow,imageability,liberal,no,z,1,0.973329608644,3,734
105,001,4,recog,52,UNPACK,LF,target,right,yellow,imageability,conservative,no,z,1,0.853368937848,1,735
105,001,4,recog,53,CHAIR,HF,target,right,yellow,imageability,liberal,no,z,1,0.733552708758,3,738
105,001,4,recog,54,CRUCIALLY,LF,lure,-,-,-,liberal,yes,z,0,1.22660997513,-1,737
105,001,4,recog,55,UPROOTED,LF,target,right,yellow,imageability,conservative,no,m,0,1.15980971821,-1,736
105,001,4,recog,56,ENCLOSE,LF,target,left,aqua,pleasantness,liberal,no,z,1,1.34649769187,3,739
105,001,4,recog,57,PIECE,HF,target,left,aqua,pleasantness,conservative,no,z,1,1.21333233617,1,740
105,001,4,recog,58,POINT,HF,target,right,yellow,imageability,liberal,no,z,1,0.733177673565,3,743
105,001,4,recog,59,DUGOUTS,LF,lure,-,-,-,liberal,no,m,1,0.813585512423,1,744
105,001,4,recog,60,ANOINTED,LF,lure,-,-,-,liberal,no,m,1,0.879988737946,1,745
105,001,4,recog,61,MOGUL,LF,target,right,yellow,imageability,liberal,no,z,1,0.933366180991,3,748
105,001,4,recog,62,SITTING,HF,target,left,aqua,pleasantness,liberal,no,z,1,1.21322052216,3,751
105,001,4,recog,63,HIMSELF,HF,lure,-,-,-,liberal,no,m,1,1.06636473217,1,752
105,001,4,recog,64,RATHER,HF,lure,-,-,-,conservative,no,m,1,0.693396081157,3,755
105,001,4,recog,65,SOMEONE,HF,target,left,aqua,pleasantness,liberal,no,z,1,1.95959921459,3,758
105,001,4,recog,66,PROBABLY,HF,target,right,yellow,imageability,conservative,no,z,1,1.18671803512,1,759
105,001,4,recog,67,INTEREST,HF,target,left,aqua,pleasantness,liberal,no,z,1,1.63980454177,3,762
105,001,4,recog,68,PIPELINES,LF,lure,-,-,-,liberal,no,m,1,0.680104511274,1,763
105,001,4,recog,69,NAUGHT,LF,lure,-,-,-,liberal,no,m,1,0.720408146806,1,764
105,001,4,recog,70,GAUCHE,LF,lure,-,-,-,liberal,no,m,1,0.586752275874,1,765
105,001,4,recog,71,DWINDLE,LF,target,left,aqua,pleasantness,conservative,no,m,0,0.773681474508,-1,764
105,001,4,recog,72,SIMILAR,HF,target,right,yellow,imageability,conservative,no,z,1,1.81295752094,1,765
105,001,4,recog,73,MERELY,HF,target,left,aqua,pleasantness,liberal,no,z,1,0.653512939631,3,768
105,001,4,recog,74,BROUGHT,HF,lure,-,-,-,liberal,no,z,0,0.933324754816,-1,767
105,001,4,recog,75,SIFTED,LF,target,left,aqua,pleasantness,liberal,no,z,1,0.706538076887,3,770
105,001,4,recog,76,MALIGNED,LF,lure,-,-,-,conservative,no,m,1,1.11996946928,3,773
105,001,4,recog,77,WESTERN,HF,lure,-,-,-,liberal,no,m,1,0.799824690293,1,774
105,001,4,recog,78,ARBITER,LF,target,left,aqua,pleasantness,conservative,no,z,1,0.919764098097,1,775
105,001,4,recog,79,LIVED,HF,lure,-,-,-,liberal,no,m,1,2.39953566024,1,776
105,001,4,recog,80,NEURAL,LF,lure,-,-,-,conservative,no,m,1,1.03993813202,3,779
105,001,4,recog,81,NUCLEAR,HF,target,right,yellow,imageability,conservative,no,z,1,1.01342024765,1,780
105,001,4,recog,82,MOUTH,HF,target,right,yellow,imageability,conservative,no,m,0,1.05329019145,-1,779
105,001,4,recog,83,MARKET,HF,lure,-,-,-,conservative,yes,m,1,0.800159399123,3,782
105,001,4,recog,84,ANYONE,HF,target,left,aqua,pleasantness,liberal,no,z,1,2.3594307237,3,785
105,001,4,recog,85,YELLOWED,LF,lure,-,-,-,conservative,no,m,1,0.986653073016,3,788
105,001,4,recog,86,LEVEL,HF,target,right,yellow,imageability,liberal,no,z,1,0.893411551817,3,791
105,001,4,recog,87,TODAY,HF,lure,-,-,-,liberal,no,m,1,0.680110376927,1,792
105,001,4,recog,88,MIDDLE,HF,lure,-,-,-,liberal,no,m,1,0.893209919992,1,793
105,001,4,recog,89,SOCIAL,HF,target,right,yellow,imageability,liberal,no,z,1,0.720347657259,3,796
105,001,4,recog,90,SPEAK,HF,target,right,yellow,imageability,liberal,no,m,0,0.959765285892,-3,793
105,001,4,recog,91,KANGAROO,LF,lure,-,-,-,conservative,no,m,1,2.21281505889,3,796
105,001,4,recog,92,WISPY,LF,target,left,aqua,pleasantness,conservative,no,z,1,0.92000312346,1,797
105,001,4,recog,93,SMUDGE,LF,lure,-,-,-,liberal,no,m,1,0.706762438117,1,798
105,001,4,recog,94,FATHER,HF,lure,-,-,-,liberal,no,m,1,1.45326797529,1,799
105,001,4,recog,95,PSALMS,LF,lure,-,-,-,liberal,no,m,1,0.706883050609,1,800
