subj,session,cycle,task,trial,item,wf,type,source,colour,encoding,bias,null,response,corr,rt,points,total
106,001,0,source,0,POSITION,HF,target,left,yellow,pleasantness,liberal,no,8,0,3.55893734896,-,-
106,001,0,source,1,MAJOR,HF,target,left,yellow,pleasantness,conservative,no,1,1,2.26613641163,-,-
106,001,0,source,2,GIBBERISH,LF,target,left,yellow,pleasantness,liberal,no,1,1,3.2921564487,-,-
106,001,0,source,3,BEAUTIFUL,HF,target,left,yellow,pleasantness,liberal,no,1,1,1.53313764048,-,-
106,001,0,source,4,ADDED,HF,target,left,yellow,pleasantness,conservative,no,7,0,1.97265139251,-,-
106,001,0,source,5,SUGARY,LF,target,left,yellow,pleasantness,liberal,yes,3,1,2.4793800298,-,-
106,001,0,source,6,HISTORY,HF,target,left,yellow,pleasantness,conservative,no,2,1,2.05287849593,-,-
106,001,0,source,7,OXIDE,LF,target,right,aqua,imageability,conservative,no,9,1,1.62635753209,-,-
106,001,0,source,8,OFFER,HF,target,right,aqua,imageability,liberal,no,9,1,1.62644698329,-,-
106,001,0,source,9,MORNING,HF,target,right,aqua,imageability,conservative,no,9,1,1.53323515697,-,-
106,001,0,source,10,AHEAD,HF,target,left,yellow,pleasantness,liberal,no,9,0,1.14633118064,-,-
106,001,0,source,11,FISHY,LF,target,left,yellow,pleasantness,conservative,no,1,1,1.63966449931,-,-
106,001,0,source,12,LODGERS,LF,target,left,yellow,pleasantness,liberal,no,2,1,1.51976798409,-,-
106,001,0,source,13,ESCALATED,LF,target,right,aqua,imageability,liberal,no,8,1,1.93307803078,-,-
106,001,0,source,14,NECESSARY,HF,target,left,yellow,pleasantness,liberal,no,2,1,1.7197559595,-,-
106,001,0,source,15,TURNED,HF,target,right,aqua,imageability,liberal,no,9,1,1.14656580676,-,-
106,001,0,source,16,MAKES,HF,target,left,yellow,pleasantness,liberal,no,2,1,3.17243223704,-,-
106,001,0,source,17,ENLIGHTEN,LF,target,left,yellow,pleasantness,liberal,no,9,0,2.25293355975,-,-
106,001,0,source,18,HIPPY,LF,target,right,aqua,imageability,conservative,no,9,1,0.893133299899,-,-
106,001,0,source,19,STOOD,HF,target,right,aqua,imageability,conservative,no,9,1,0.800058583211,-,-
106,001,0,source,20,WATCH,HF,target,right,aqua,imageability,conservative,no,8,1,1.94627465041,-,-
106,001,0,source,21,DIFFERENT,HF,target,left,yellow,pleasantness,conservative,no,1,1,1.89297712689,-,-
106,001,0,source,22,YORKER,LF,target,left,yellow,pleasantness,conservative,no,2,1,1.95972129349,-,-
106,001,0,source,23,AILMENT,LF,target,right,aqua,imageability,liberal,no,9,1,1.43968128974,-,-
106,001,0,source,24,TOWARDS,HF,target,right,aqua,imageability,liberal,no,7,1,1.9462735506,-,-
106,001,0,source,25,CYANIDE,LF,target,left,yellow,pleasantness,conservative,no,2,1,2.90563777246,-,-
106,001,0,source,26,YEARN,LF,target,right,aqua,imageability,conservative,no,8,1,1.09328404718,-,-
106,001,0,source,27,ALABASTER,LF,target,left,yellow,pleasantness,conservative,no,2,1,2.51940138077,-,-
106,001,0,source,28,BRUISING,LF,target,left,yellow,pleasantness,liberal,no,1,1,1.18664728068,-,-
106,001,0,source,29,VIBRATE,LF,target,left,yellow,pleasantness,liberal,yes,7,0,1.49286589944,-,-
106,001,0,source,30,WHATEVER,HF,target,left,yellow,pleasantness,conservative,no,2,1,2.70596287628,-,-
106,001,0,source,31,COPIOUSLY,LF,target,left,yellow,pleasantness,conservative,yes,3,1,1.71970573485,-,-
106,001,0,source,32,EVENING,HF,target,right,aqua,imageability,liberal,no,3,0,2.81259788309,-,-
106,001,0,source,33,ZENITH,LF,target,right,aqua,imageability,liberal,no,3,0,3.05230659475,-,-
106,001,0,source,34,EITHER,HF,target,right,aqua,imageability,liberal,no,2,0,1.85299426926,-,-
106,001,0,source,35,GAMBITS,LF,target,right,aqua,imageability,liberal,no,8,1,1.4262067848,-,-
106,001,0,source,36,DRUDGERY,LF,target,right,aqua,imageability,conservative,no,9,1,1.23962805894,-,-
106,001,0,source,37,AGONIZED,LF,target,right,aqua,imageability,conservative,no,7,1,1.63945773504,-,-
106,001,0,source,38,TAKEN,HF,target,left,yellow,pleasantness,conservative,no,8,0,3.18578906232,-,-
106,001,0,source,39,IRRIGATED,LF,target,right,aqua,imageability,liberal,no,9,1,1.03972073626,-,-
106,001,0,source,40,EDUCATION,HF,target,right,aqua,imageability,conservative,no,9,1,0.746482074564,-,-
106,001,0,source,41,JOVIAL,LF,target,right,aqua,imageability,conservative,yes,3,0,1.5595939355,-,-
106,001,0,source,42,VOICE,HF,target,right,aqua,imageability,conservative,no,3,0,2.41284336067,-,-
106,001,0,source,43,KNUCKLE,LF,target,right,aqua,imageability,liberal,no,8,1,1.2132142899,-,-
106,001,0,source,44,LEVEL,HF,target,right,aqua,imageability,conservative,no,9,1,1.41319163382,-,-
106,001,0,source,45,GROUND,HF,target,right,aqua,imageability,liberal,no,9,1,1.85295724232,-,-
106,001,0,source,46,OSTRACISM,LF,target,left,yellow,pleasantness,conservative,no,2,1,1.17325489489,-,-
106,001,0,source,47,MATERIAL,HF,target,left,yellow,pleasantness,liberal,no,3,1,3.14584726426,-,-
106,001,0,recog,0,AHEAD,HF,target,left,yellow,pleasantness,liberal,no,z,1,1.61314111588,3,3
106,001,0,recog,1,POINT,HF,lure,-,-,-,liberal,no,m,1,1.07991292438,1,4
106,001,0,recog,2,ENLIGHTEN,LF,target,left,yellow,pleasantness,liberal,no,z,1,0.986724560662,3,7
106,001,0,recog,3,DESERTER,LF,lure,-,-,-,liberal,no,m,1,1.33316286279,1,8
106,001,0,recog,4,TRUTH,HF,lure,-,-,-,liberal,no,m,1,1.47978622627,1,9
106,001,0,recog,5,MAJOR,HF,target,left,yellow,pleasantness,conservative,no,z,1,3.02582610392,1,10
106,001,0,recog,6,NORTH,HF,lure,-,-,-,conservative,no,m,1,2.05288839422,3,13
106,001,0,recog,7,TOTAL,HF,lure,-,-,-,liberal,no,m,1,1.72008516928,1,14
106,001,0,recog,8,VIBRATE,LF,target,left,yellow,pleasantness,liberal,no,z,1,3.22572609453,3,17
106,001,0,recog,9,GRIEVE,LF,lure,-,-,-,liberal,no,z,0,3.25252626346,-1,16
106,001,0,recog,10,THWART,LF,lure,-,-,-,conservative,no,m,1,1.39998071667,3,19
106,001,0,recog,11,STOOD,HF,target,right,aqua,imageability,conservative,no,z,1,2.17281277129,1,20
106,001,0,recog,12,OSTRACISM,LF,target,left,yellow,pleasantness,conservative,no,z,1,1.74637246017,1,21
106,001,0,recog,13,GIBBERISH,LF,target,left,yellow,pleasantness,liberal,no,z,1,1.21323408648,3,24
106,001,0,recog,14,SAYING,HF,lure,-,-,-,liberal,no,m,1,1.33319109125,1,25
106,001,0,recog,15,GROUND,HF,target,right,aqua,imageability,liberal,no,z,1,1.10633989113,3,28
106,001,0,recog,16,POSITION,HF,target,left,yellow,pleasantness,liberal,no,z,1,0.960024107834,3,31
106,001,0,recog,17,FRUGAL,LF,lure,-,-,-,liberal,no,m,1,0.95997938223,1,32
106,001,0,recog,18,HEALTH,HF,lure,-,-,-,conservative,no,m,1,1.47983205169,3,35
106,001,0,recog,19,BEGAN,HF,lure,-,-,-,conservative,no,m,1,1.15991639978,3,38
106,001,0,recog,20,NECESSARY,HF,target,left,yellow,pleasantness,liberal,no,z,1,3.0125865917,3,41
106,001,0,recog,21,ESCALATED,LF,target,right,aqua,imageability,liberal,no,z,1,1.21324765081,3,44
106,001,0,recog,22,BRUISING,LF,target,left,yellow,pleasantness,liberal,no,z,1,0.986406715586,3,47
106,001,0,recog,23,KEENER,LF,lure,-,-,-,conservative,no,m,1,0.786771045963,3,50
106,001,0,recog,24,FAKING,LF,lure,-,-,-,conservative,no,m,1,1.06662722015,3,53
106,001,0,recog,25,KIDNAP,LF,lure,-,-,-,liberal,no,m,1,0.93330532484,1,54
106,001,0,recog,26,YORKER,LF,target,left,yellow,pleasantness,conservative,no,z,1,0.799811859178,1,55
106,001,0,recog,27,UNLESS,HF,lure,-,-,-,liberal,no,m,1,1.01331723212,1,56
106,001,0,recog,28,IMPORTANT,HF,lure,-,-,-,liberal,no,m,1,3.10581784801,1,57
106,001,0,recog,29,RAYON,LF,lure,-,-,-,liberal,no,m,1,1.22667999636,1,58
106,001,0,recog,30,HAPPEN,HF,lure,-,-,-,liberal,no,m,1,2.10626290444,1,59
106,001,0,recog,31,VEXED,LF,lure,-,-,-,conservative,no,m,1,1.37316221757,3,62
106,001,0,recog,32,EVENING,HF,target,right,aqua,imageability,liberal,no,z,1,0.933375346074,3,65
106,001,0,recog,33,WATCH,HF,target,right,aqua,imageability,conservative,no,z,1,1.05306069778,1,66
106,001,0,recog,34,BUILDING,HF,lure,-,-,-,conservative,no,m,1,1.26655507262,3,69
106,001,0,recog,35,LODGERS,LF,target,left,yellow,pleasantness,liberal,yes,z,1,1.73304569637,3,72
106,001,0,recog,36,ZENITH,LF,target,right,aqua,imageability,liberal,no,z,1,2.34610872575,3,75
106,001,0,recog,37,DAPPER,LF,lure,-,-,-,conservative,no,m,1,1.1996660977,3,78
106,001,0,recog,38,BAFFLING,LF,lure,-,-,-,conservative,no,m,1,0.933344551395,3,81
106,001,0,recog,39,FISHY,LF,target,left,yellow,pleasantness,conservative,no,z,1,0.946655184651,1,82
106,001,0,recog,40,HISTORY,HF,target,left,yellow,pleasantness,conservative,no,z,1,0.706522312944,1,83
106,001,0,recog,41,SUGARY,LF,target,left,yellow,pleasantness,liberal,no,z,1,0.70676720396,3,86
106,001,0,recog,42,KNUCKLE,LF,target,right,aqua,imageability,liberal,no,z,1,0.626643482673,3,89
106,001,0,recog,43,CEASELESS,LF,lure,-,-,-,conservative,no,m,1,0.920035751155,3,92
106,001,0,recog,44,COPIOUSLY,LF,target,left,yellow,pleasantness,conservative,no,m,0,2.29251718636,-1,91
106,001,0,recog,45,EDUCATION,HF,target,right,aqua,imageability,conservative,no,z,1,2.9325160279,1,92
106,001,0,recog,46,DIFFERENT,HF,target,left,yellow,pleasantness,conservative,no,z,1,0.986648673776,1,93
106,001,0,recog,47,FIGURE,HF,lure,-,-,-,liberal,no,z,0,3.91879699855,-1,92
106,001,0,recog,48,HIPPY,LF,target,right,aqua,imageability,conservative,no,z,1,0.919993958377,1,93
106,001,0,recog,49,EITHER,HF,target,right,aqua,imageability,liberal,no,z,1,1.03992163487,3,96
106,001,0,recog,50,MORNING,HF,target,right,aqua,imageability,conservative,no,z,1,0.66687269773,1,97
106,001,0,recog,51,ENERGY,HF,lure,-,-,-,conservative,no,m,1,1.5865671412,3,100
106,001,0,recog,52,GAMBITS,LF,target,right,aqua,imageability,liberal,no,z,1,1.0799261221,3,103
106,001,0,recog,53,WHATEVER,HF,target,left,yellow,pleasantness,conservative,no,z,1,1.43988475458,1,104
106,001,0,recog,54,CARRIED,HF,lure,-,-,-,conservative,no,m,1,1.02669055454,3,107
106,001,0,recog,55,CYANIDE,LF,target,left,yellow,pleasantness,conservative,no,z,1,1.77300105875,1,108
106,001,0,recog,56,TURNED,HF,target,right,aqua,imageability,liberal,no,z,1,1.4132114304,3,111
106,001,0,recog,57,ENZYME,LF,lure,-,-,-,liberal,no,m,1,1.07992722191,1,112
106,001,0,recog,58,BEAUTIFUL,HF,target,left,yellow,pleasantness,liberal,no,z,1,0.920033918139,3,115
106,001,0,recog,59,EMPATHY,LF,lure,-,-,-,conservative,no,m,1,1.06674526642,3,118
106,001,0,recog,60,DOING,HF,lure,-,-,-,conservative,no,m,1,1.21300056017,3,121
106,001,0,recog,61,PUNCTUAL,LF,lure,-,-,-,conservative,no,m,1,0.840030809342,3,124
106,001,0,recog,62,LEVEL,HF,target,right,aqua,imageability,conservative,no,z,1,1.55984872481,1,125
106,001,0,recog,63,ROVERS,LF,lure,-,-,-,conservative,no,m,1,0.760174341874,3,128
106,001,0,recog,64,OBNOXIOUS,LF,lure,-,-,-,liberal,yes,z,0,0.840046939888,-1,127
106,001,0,recog,65,TAKEN,HF,target,left,yellow,pleasantness,conservative,yes,m,0,1.47979245853,-1,126
106,001,0,recog,66,ACROSS,HF,lure,-,-,-,liberal,no,m,1,3.06591930914,1,127
106,001,0,recog,67,VOICE,HF,target,right,aqua,imageability,conservative,no,z,1,0.920162962507,1,128
106,001,0,recog,68,WAYSIDE,LF,lure,-,-,-,conservative,no,m,1,0.7999801301,3,131
106,001,0,recog,69,IRRIGATED,LF,target,right,aqua,imageability,liberal,no,z,1,0.973339506933,3,134
106,001,0,recog,70,UNTIL,HF,lure,-,-,-,liberal,no,m,1,0.906717785833,1,135
106,001,0,recog,71,OUGHT,HF,lure,-,-,-,conservative,no,m,1,1.69277762136,3,138
106,001,0,recog,72,JOVIAL,LF,target,right,aqua,imageability,conservative,no,z,1,0.853450690387,1,139
106,001,0,recog,73,MAKES,HF,target,left,yellow,pleasantness,liberal,no,z,1,0.800083878838,3,142
106,001,0,recog,74,YEARN,LF,target,right,aqua,imageability,conservative,no,z,1,0.906677092865,1,143
106,001,0,recog,75,TOWARDS,HF,target,right,aqua,imageability,liberal,no,z,1,0.973388998381,3,146
106,001,0,recog,76,GETTING,HF,lure,-,-,-,liberal,no,m,1,1.07995435055,1,147
106,001,0,recog,77,TETHER,LF,lure,-,-,-,conservative,no,m,1,1.30652289951,3,150
106,001,0,recog,78,SOCIAL,HF,lure,-,-,-,liberal,no,m,1,1.87965732855,1,151
106,001,0,recog,79,ADDED,HF,target,left,yellow,pleasantness,conservative,no,z,1,0.986737391779,1,152
106,001,0,recog,80,TIMES,HF,lure,-,-,-,conservative,no,m,1,3.10583214554,3,155
106,001,0,recog,81,JASMINE,LF,lure,-,-,-,liberal,yes,z,0,1.27984884212,-1,154
106,001,0,recog,82,AGONIZED,LF,target,right,aqua,imageability,conservative,no,z,1,1.34660217381,1,155
106,001,0,recog,83,AILMENT,LF,target,right,aqua,imageability,liberal,no,z,1,0.906670860609,3,158
106,001,0,recog,84,SILENCER,LF,lure,-,-,-,liberal,no,m,1,0.760101754417,1,159
106,001,0,recog,85,DRUDGERY,LF,target,right,aqua,imageability,conservative,no,z,1,0.973313478098,1,160
106,001,0,recog,86,OXIDE,LF,target,right,aqua,imageability,conservative,no,z,1,0.626785358157,1,161
106,001,0,recog,87,ALABASTER,LF,target,left,yellow,pleasantness,conservative,no,z,1,0.719870706343,1,162
106,001,0,recog,88,JAILS,LF,lure,-,-,-,liberal,no,m,1,0.733526679923,1,163
106,001,0,recog,89,OFFER,HF,target,right,aqua,imageability,liberal,no,z,1,0.906687724361,3,166
106,001,0,recog,90,EARLIER,HF,lure,-,-,-,conservative,no,m,1,1.51976138523,3,169
106,001,0,recog,91,CALLED,HF,lure,-,-,-,conservative,no,m,1,1.06639955949,3,172
106,001,0,recog,92,SUFFERER,LF,lure,-,-,-,liberal,no,m,1,0.679930374698,1,173
106,001,0,recog,93,SUMMER,HF,lure,-,-,-,conservative,no,m,1,0.919790493536,3,176
106,001,0,recog,94,LAYERED,LF,lure,-,-,-,liberal,no,m,1,0.933344184791,1,177
106,001,0,recog,95,MATERIAL,HF,target,left,yellow,pleasantness,liberal,no,z,1,0.693409278877,3,180
106,001,1,source,0,BROUGHT,HF,target,right,aqua,imageability,liberal,no,7,1,2.91933920485,-,-
106,001,1,source,1,PRIVATE,HF,target,left,yellow,pleasantness,liberal,no,2,1,2.03955906419,-,-
106,001,1,source,2,OPENED,HF,target,right,aqua,imageability,liberal,no,3,0,1.86638738826,-,-
106,001,1,source,3,CENTRAL,HF,target,right,aqua,imageability,liberal,yes,7,1,1.38657989899,-,-
106,001,1,source,4,FOLLOWED,HF,target,left,yellow,pleasantness,liberal,no,1,1,1.82638033481,-,-
106,001,1,source,5,NATIONAL,HF,target,left,yellow,pleasantness,conservative,no,1,1,0.866472806832,-,-
106,001,1,source,6,ESTRANGED,LF,target,right,aqua,imageability,liberal,no,8,1,1.86606624375,-,-
106,001,1,source,7,PRACTICE,HF,target,left,yellow,pleasantness,conservative,no,2,1,1.35980429248,-,-
106,001,1,source,8,MAPPED,LF,target,left,yellow,pleasantness,liberal,no,1,1,0.973467084887,-,-
106,001,1,source,9,NIMBLE,LF,target,right,aqua,imageability,liberal,no,9,1,1.22632842378,-,-
106,001,1,source,10,ARPEGGIO,LF,target,left,yellow,pleasantness,conservative,no,1,1,1.06635116785,-,-
106,001,1,source,11,JOTTED,LF,target,right,aqua,imageability,conservative,no,9,1,1.47951420661,-,-
106,001,1,source,12,FATHER,HF,target,left,yellow,pleasantness,liberal,no,1,1,0.880093953098,-,-
106,001,1,source,13,EASILY,HF,target,left,yellow,pleasantness,liberal,no,8,0,1.37316038455,-,-
106,001,1,source,14,MYRIADS,LF,target,right,aqua,imageability,liberal,no,9,1,0.84008470003,-,-
106,001,1,source,15,BREAK,HF,target,right,aqua,imageability,conservative,no,9,1,0.986657105652,-,-
106,001,1,source,16,FAILINGS,LF,target,left,yellow,pleasantness,liberal,no,2,1,1.49312472138,-,-
106,001,1,source,17,FACILE,LF,target,left,yellow,pleasantness,liberal,no,3,1,1.61280347423,-,-
106,001,1,source,18,HYSTERICS,LF,target,right,aqua,imageability,liberal,no,8,1,1.35987138089,-,-
106,001,1,source,19,TODAY,HF,target,left,yellow,pleasantness,conservative,no,2,1,1.07994335246,-,-
106,001,1,source,20,PULSAR,LF,target,right,aqua,imageability,conservative,no,9,1,1.05332575198,-,-
106,001,1,source,21,VILLAGE,HF,target,right,aqua,imageability,conservative,no,9,1,0.933330987073,-,-
106,001,1,source,22,MEETING,HF,target,left,yellow,pleasantness,conservative,no,2,1,0.973341706554,-,-
106,001,1,source,23,EXCEPT,HF,target,left,yellow,pleasantness,liberal,no,3,1,0.999967005701,-,-
106,001,1,source,24,ALMOST,HF,target,right,aqua,imageability,liberal,no,8,1,1.42644214413,-,-
106,001,1,source,25,DRINK,HF,target,right,aqua,imageability,conservative,no,2,0,1.18633420145,-,-
106,001,1,source,26,FORCE,HF,target,right,aqua,imageability,liberal,no,7,1,3.02595221546,-,-
106,001,1,source,27,NEPHEWS,LF,target,left,yellow,pleasantness,conservative,no,1,1,0.959731191783,-,-
106,001,1,source,28,SABLE,LF,target,left,yellow,pleasantness,conservative,no,8,0,1.06637206424,-,-
106,001,1,source,29,WETTER,LF,target,right,aqua,imageability,liberal,yes,3,0,1.13328303536,-,-
106,001,1,source,30,HESITATES,LF,target,right,aqua,imageability,conservative,no,2,0,4.23879586941,-,-
106,001,1,source,31,ACCORDING,HF,target,left,yellow,pleasantness,conservative,no,7,0,1.63970225945,-,-
106,001,1,source,32,DINER,LF,target,left,yellow,pleasantness,conservative,yes,3,1,1.05310432357,-,-
106,001,1,source,33,HOODLUMS,LF,target,right,aqua,imageability,conservative,no,2,0,2.46606646371,-,-
106,001,1,source,34,CAUGHT,HF,target,right,aqua,imageability,conservative,no,2,0,1.97288931806,-,-
106,001,1,source,35,SEEMED,HF,target,right,aqua,imageability,conservative,yes,7,1,1.78632965557,-,-
106,001,1,source,36,TERMS,HF,target,right,aqua,imageability,conservative,no,7,1,2.5194930316,-,-
106,001,1,source,37,DORMS,LF,target,right,aqua,imageability,liberal,no,8,1,3.10554179571,-,-
106,001,1,source,38,OBTAINS,LF,target,left,yellow,pleasantness,conservative,no,2,1,1.09339512799,-,-
106,001,1,source,39,NUCLEAR,HF,target,left,yellow,pleasantness,conservative,no,2,1,1.45285664637,-,-
106,001,1,source,40,PADDLE,LF,target,right,aqua,imageability,conservative,no,8,1,1.17300890406,-,-
106,001,1,source,41,FESTERING,LF,target,left,yellow,pleasantness,liberal,no,2,1,1.73315347775,-,-
106,001,1,source,42,SCYTHE,LF,target,left,yellow,pleasantness,liberal,no,1,1,2.49251359365,-,-
106,001,1,source,43,FRIEND,HF,target,left,yellow,pleasantness,liberal,no,1,1,2.10596522254,-,-
106,001,1,source,44,UNOPENED,LF,target,left,yellow,pleasantness,conservative,no,2,1,1.19989265855,-,-
106,001,1,source,45,GIVEN,HF,target,right,aqua,imageability,liberal,no,8,1,0.906760311817,-,-
106,001,1,source,46,VIGILANT,LF,target,left,yellow,pleasantness,liberal,no,3,1,1.63973415394,-,-
106,001,1,source,47,CREAK,LF,target,right,aqua,imageability,conservative,no,7,1,1.95965970414,-,-
106,001,1,recog,0,FUMING,LF,lure,-,-,-,liberal,no,m,1,2.42582661716,1,181
106,001,1,recog,1,OATHS,LF,lure,-,-,-,conservative,no,m,1,1.17324829603,3,184
106,001,1,recog,2,OPENED,HF,target,right,aqua,imageability,liberal,no,z,1,1.09340979212,3,187
106,001,1,recog,3,MAPPED,LF,target,left,yellow,pleasantness,liberal,no,z,1,1.01330550081,3,190
106,001,1,recog,4,UNZIPPED,LF,lure,-,-,-,conservative,no,m,1,1.30642355001,3,193
106,001,1,recog,5,CAUGHT,HF,target,right,aqua,imageability,conservative,no,z,1,1.35960779311,1,194
106,001,1,recog,6,STRAIGHT,HF,lure,-,-,-,liberal,no,m,1,0.997493533117,1,195
106,001,1,recog,7,SABLE,LF,target,left,yellow,pleasantness,conservative,no,z,1,0.786879193942,1,196
106,001,1,recog,8,OTHERS,HF,lure,-,-,-,conservative,no,z,0,0.973293681519,-3,193
106,001,1,recog,9,TERMS,HF,target,right,aqua,imageability,conservative,no,z,1,2.21282239096,1,194
106,001,1,recog,10,BROUGHT,HF,target,right,aqua,imageability,liberal,no,z,1,1.78641874017,3,197
106,001,1,recog,11,WAGGED,LF,lure,-,-,-,liberal,no,m,1,0.840030076136,1,198
106,001,1,recog,12,ARPEGGIO,LF,target,left,yellow,pleasantness,conservative,no,z,1,0.906817135332,1,199
106,001,1,recog,13,APPEARED,HF,lure,-,-,-,conservative,no,z,0,2.37278168332,-3,196
106,001,1,recog,14,NATIONAL,HF,target,left,yellow,pleasantness,conservative,no,z,1,0.733401668192,1,197
106,001,1,recog,15,FESTERING,LF,target,left,yellow,pleasantness,liberal,no,z,1,1.23990557765,3,200
106,001,1,recog,16,MUGGING,LF,lure,-,-,-,conservative,no,m,1,0.906432935055,3,203
106,001,1,recog,17,WRITE,HF,lure,-,-,-,conservative,no,m,1,2.27924797928,3,206
106,001,1,recog,18,ALMOST,HF,target,right,aqua,imageability,liberal,no,z,1,2.30610717135,3,209
106,001,1,recog,19,WHOLE,HF,lure,-,-,-,liberal,no,m,1,1.17324866263,1,210
106,001,1,recog,20,TODAY,HF,target,left,yellow,pleasantness,conservative,no,z,1,2.9592029164,1,211
106,001,1,recog,21,ESTRANGED,LF,target,right,aqua,imageability,liberal,no,z,1,1.7196786062,3,214
106,001,1,recog,22,SIMILAR,HF,lure,-,-,-,liberal,no,m,1,0.786815404965,1,215
106,001,1,recog,23,JOTTED,LF,target,right,aqua,imageability,conservative,no,z,1,1.21215187349,1,216
106,001,1,recog,24,ENOUGH,HF,lure,-,-,-,liberal,no,m,1,4.27877762723,1,217
106,001,1,recog,25,ICILY,LF,lure,-,-,-,liberal,no,m,1,1.26626325638,1,218
106,001,1,recog,26,ERSTWHILE,LF,lure,-,-,-,conservative,no,m,1,0.999744110884,3,221
106,001,1,recog,27,EXCEPT,HF,target,left,yellow,pleasantness,liberal,no,m,0,3.19906376845,-3,218
106,001,1,recog,28,PADDLE,LF,target,right,aqua,imageability,conservative,no,z,1,1.10637215223,1,219
106,001,1,recog,29,LOCAL,HF,lure,-,-,-,conservative,no,z,0,3.02600280672,-3,216
106,001,1,recog,30,FAILINGS,LF,target,left,yellow,pleasantness,liberal,no,z,1,0.986679468455,3,219
106,001,1,recog,31,SCYTHE,LF,target,left,yellow,pleasantness,liberal,yes,m,0,1.74633983248,-3,216
106,001,1,recog,32,OCCUPANCY,LF,lure,-,-,-,liberal,no,m,1,1.21325205005,1,217
106,001,1,recog,33,CAFETERIA,LF,lure,-,-,-,liberal,no,m,1,1.38654837111,1,218
106,001,1,recog,34,VIGILANT,LF,target,left,yellow,pleasantness,liberal,no,z,1,0.773600455175,3,221
106,001,1,recog,35,THANK,HF,lure,-,-,-,conservative,no,m,1,0.946815023698,3,224
106,001,1,recog,36,HOSPITAL,HF,lure,-,-,-,liberal,no,m,1,0.85314604303,1,225
106,001,1,recog,37,FATHER,HF,target,left,yellow,pleasantness,liberal,no,z,1,0.70677490263,3,228
106,001,1,recog,38,ECONOMIC,HF,lure,-,-,-,liberal,no,m,1,0.920070211868,1,229
106,001,1,recog,39,ANAEMIC,LF,lure,-,-,-,conservative,no,m,1,1.49311005725,3,232
106,001,1,recog,40,GIVEN,HF,target,right,aqua,imageability,liberal,no,z,1,0.666797910654,3,235
106,001,1,recog,41,ALERTING,LF,lure,-,-,-,conservative,no,m,1,2.0928884822,3,238
106,001,1,recog,42,OBTAINS,LF,target,left,yellow,pleasantness,conservative,no,z,1,2.27954126194,1,239
106,001,1,recog,43,HIVES,LF,lure,-,-,-,conservative,no,m,1,0.906651430633,3,242
106,001,1,recog,44,FRIEND,HF,target,left,yellow,pleasantness,liberal,no,z,1,0.906436234485,3,245
106,001,1,recog,45,CAKED,LF,lure,-,-,-,liberal,no,m,1,1.51976358485,1,246
106,001,1,recog,46,CREAK,LF,target,right,aqua,imageability,conservative,no,z,1,0.893455544216,1,247
106,001,1,recog,47,PRACTICE,HF,target,left,yellow,pleasantness,conservative,no,z,1,1.33317166127,1,248
106,001,1,recog,48,FURTHER,HF,lure,-,-,-,liberal,no,m,1,0.799833122171,1,249
106,001,1,recog,49,WRANGLING,LF,lure,-,-,-,conservative,no,m,1,0.97348504845,3,252
106,001,1,recog,50,IDEAS,HF,lure,-,-,-,liberal,no,m,1,0.866454110063,1,253
106,001,1,recog,51,PRIVATE,HF,target,left,yellow,pleasantness,liberal,no,z,1,0.973471117524,3,256
106,001,1,recog,52,RAREFIED,LF,lure,-,-,-,liberal,no,m,1,1.02670081943,1,257
106,001,1,recog,53,LIVED,HF,lure,-,-,-,liberal,no,m,1,3.73223183701,1,258
106,001,1,recog,54,HOIST,LF,lure,-,-,-,liberal,no,m,1,0.680314208371,1,259
106,001,1,recog,55,FORCE,HF,target,right,aqua,imageability,liberal,no,z,1,0.906695056427,3,262
106,001,1,recog,56,NIMBLE,LF,target,right,aqua,imageability,liberal,no,z,1,0.773464445344,3,265
106,001,1,recog,57,DINER,LF,target,left,yellow,pleasantness,conservative,no,z,1,1.45312756622,1,266
106,001,1,recog,58,SIFTED,LF,lure,-,-,-,liberal,no,m,1,0.720079670233,1,267
106,001,1,recog,59,DYNAMISM,LF,lure,-,-,-,conservative,no,m,1,0.680228789798,3,270
106,001,1,recog,60,MYRIADS,LF,target,right,aqua,imageability,liberal,no,z,1,0.74695902548,3,273
106,001,1,recog,61,MONEY,HF,lure,-,-,-,conservative,no,m,1,0.65344548462,3,276
106,001,1,recog,62,PUBLIC,HF,lure,-,-,-,conservative,no,m,1,0.786889092231,3,279
106,001,1,recog,63,CAPITAL,HF,lure,-,-,-,liberal,no,m,1,0.760205503156,1,280
106,001,1,recog,64,PEOPLED,LF,lure,-,-,-,liberal,no,m,1,0.653450617066,1,281
106,001,1,recog,65,WETTER,LF,target,right,aqua,imageability,liberal,no,z,1,0.826841888388,3,284
106,001,1,recog,66,DOUBT,HF,lure,-,-,-,conservative,no,m,1,1.86627300802,3,287
106,001,1,recog,67,ACCORDING,HF,target,left,yellow,pleasantness,conservative,no,z,1,3.59848981429,1,288
106,001,1,recog,68,URBANE,LF,lure,-,-,-,conservative,no,m,1,4.2519558287,3,291
106,001,1,recog,69,FACILE,LF,target,left,yellow,pleasantness,liberal,no,z,1,0.826716510054,3,294
106,001,1,recog,70,PLACE,HF,lure,-,-,-,liberal,no,m,1,0.680082881679,1,295
106,001,1,recog,71,MEETING,HF,target,left,yellow,pleasantness,conservative,no,z,1,0.719976654701,1,296
106,001,1,recog,72,SPACE,HF,lure,-,-,-,conservative,no,m,1,1.39955105758,3,299
106,001,1,recog,73,REQUIRED,HF,lure,-,-,-,conservative,no,m,1,0.800134470097,3,302
106,001,1,recog,74,DORMS,LF,target,right,aqua,imageability,liberal,no,z,1,0.746760326482,3,305
106,001,1,recog,75,BEHIND,HF,lure,-,-,-,liberal,no,m,1,2.74590834037,1,306
106,001,1,recog,76,HESITATES,LF,target,right,aqua,imageability,conservative,no,m,0,0.826750237559,-1,305
106,001,1,recog,77,BREAK,HF,target,right,aqua,imageability,conservative,no,z,1,2.46604776695,1,306
106,001,1,recog,78,AVUNCULAR,LF,lure,-,-,-,liberal,no,m,1,0.70648858544,1,307
106,001,1,recog,79,PULSAR,LF,target,right,aqua,imageability,conservative,yes,m,0,1.58639227142,-1,306
106,001,1,recog,80,FRONT,HF,lure,-,-,-,conservative,no,m,1,3.06583425717,3,309
106,001,1,recog,81,DRINK,HF,target,right,aqua,imageability,conservative,no,m,0,1.61284380059,-1,308
106,001,1,recog,82,NUCLEAR,HF,target,left,yellow,pleasantness,conservative,no,z,1,1.55958037118,1,309
106,001,1,recog,83,CENTRAL,HF,target,right,aqua,imageability,liberal,no,z,1,1.35985744997,3,312
106,001,1,recog,84,PHRASED,LF,lure,-,-,-,conservative,no,m,1,1.26632997818,3,315
106,001,1,recog,85,METABOLIC,LF,lure,-,-,-,conservative,no,m,1,1.53308081697,3,318
106,001,1,recog,86,MOVED,HF,lure,-,-,-,conservative,no,m,1,1.239878449,3,321
106,001,1,recog,87,HYSTERICS,LF,target,right,aqua,imageability,liberal,no,z,1,1.22654911898,3,324
106,001,1,recog,88,SEEMED,HF,target,right,aqua,imageability,conservative,no,m,0,0.866527064124,-1,323
106,001,1,recog,89,UNOPENED,LF,target,left,yellow,pleasantness,conservative,yes,z,1,1.77301022383,1,324
106,001,1,recog,90,HOODLUMS,LF,target,right,aqua,imageability,conservative,no,z,1,3.75886006898,1,325
106,001,1,recog,91,FOLLOWED,HF,target,left,yellow,pleasantness,liberal,yes,m,0,1.26665588853,-3,322
106,001,1,recog,92,VILLAGE,HF,target,right,aqua,imageability,conservative,no,z,1,1.45310080418,1,323
106,001,1,recog,93,EASILY,HF,target,left,yellow,pleasantness,liberal,no,z,1,0.733186838648,3,326
106,001,1,recog,94,OPPOSES,LF,lure,-,-,-,liberal,no,m,1,0.81343703808,1,327
106,001,1,recog,95,NEPHEWS,LF,target,left,yellow,pleasantness,conservative,no,z,1,0.746469976654,1,328
106,001,2,source,0,ROPED,LF,target,left,yellow,pleasantness,conservative,no,7,0,1.85299390265,-,-
106,001,2,source,1,ROBBERIES,LF,target,right,aqua,imageability,liberal,no,8,1,1.95972789235,-,-
106,001,2,source,2,CHAIR,HF,target,right,aqua,imageability,conservative,no,9,1,0.999426265808,-,-
106,001,2,source,3,LIQUEUR,LF,target,right,aqua,imageability,liberal,no,9,1,1.30629707187,-,-
106,001,2,source,4,REEDY,LF,target,right,aqua,imageability,conservative,yes,3,0,1.23990997689,-,-
106,001,2,source,5,SLOWLY,HF,target,left,yellow,pleasantness,conservative,no,2,1,1.5865231488,-,-
106,001,2,source,6,BEYOND,HF,target,right,aqua,imageability,liberal,no,9,1,1.02634118158,-,-
106,001,2,source,7,COUNCIL,HF,target,left,yellow,pleasantness,conservative,no,1,1,1.13326617161,-,-
106,001,2,source,8,MARKET,HF,target,right,aqua,imageability,conservative,yes,7,1,1.85297153985,-,-
106,001,2,source,9,BUSINESS,HF,target,left,yellow,pleasantness,conservative,no,2,1,1.34670848877,-,-
106,001,2,source,10,VULTURE,LF,target,right,aqua,imageability,conservative,no,9,1,0.880029430914,-,-
106,001,2,source,11,HAWKED,LF,target,right,aqua,imageability,conservative,no,8,1,1.17311338601,-,-
106,001,2,source,12,CADDIE,LF,target,right,aqua,imageability,conservative,no,9,1,1.69301701333,-,-
106,001,2,source,13,PLEASE,HF,target,left,yellow,pleasantness,liberal,no,2,1,0.986396450693,-,-
106,001,2,source,14,WESTERN,HF,target,right,aqua,imageability,liberal,no,1,0,2.27921278536,-,-
106,001,2,source,15,LEARN,HF,target,right,aqua,imageability,conservative,no,3,0,2.42582881678,-,-
106,001,2,source,16,PRUDENTLY,LF,target,right,aqua,imageability,liberal,no,7,1,1.65308767978,-,-
106,001,2,source,17,BOVINE,LF,target,left,yellow,pleasantness,liberal,no,2,1,1.39980511368,-,-
106,001,2,source,18,LACING,LF,target,left,yellow,pleasantness,liberal,no,1,1,1.09329504528,-,-
106,001,2,source,19,AVENGE,LF,target,right,aqua,imageability,conservative,yes,3,0,1.31986359424,-,-
106,001,2,source,20,HURDLES,LF,target,left,yellow,pleasantness,liberal,no,1,1,1.18632247014,-,-
106,001,2,source,21,PLUGGING,LF,target,right,aqua,imageability,conservative,no,8,1,1.75967576136,-,-
106,001,2,source,22,DEBACLE,LF,target,left,yellow,pleasantness,conservative,no,7,0,1.27958818716,-,-
106,001,2,source,23,ABOVE,HF,target,left,yellow,pleasantness,liberal,no,2,1,1.54617808709,-,-
106,001,2,source,24,WITHIN,HF,target,right,aqua,imageability,conservative,no,3,0,1.90640690622,-,-
106,001,2,source,25,RAPACIOUS,LF,target,right,aqua,imageability,liberal,no,2,0,1.45288707445,-,-
106,001,2,source,26,PHANTOMS,LF,target,left,yellow,pleasantness,liberal,no,1,1,1.42648650313,-,-
106,001,2,source,27,FINAL,HF,target,right,aqua,imageability,liberal,no,9,1,0.920132901034,-,-
106,001,2,source,28,ANIMAL,HF,target,left,yellow,pleasantness,liberal,no,1,1,0.959777750404,-,-
106,001,2,source,29,HOTEL,HF,target,left,yellow,pleasantness,liberal,no,8,0,1.79940382968,-,-
106,001,2,source,30,CLASS,HF,target,right,aqua,imageability,liberal,no,3,0,3.54535799547,-,-
106,001,2,source,31,HONKING,LF,target,left,yellow,pleasantness,conservative,yes,7,0,1.51974488808,-,-
106,001,2,source,32,LEGALITY,LF,target,right,aqua,imageability,liberal,no,8,1,1.11971431337,-,-
106,001,2,source,33,ANSWER,HF,target,left,yellow,pleasantness,liberal,no,2,1,1.01326590765,-,-
106,001,2,source,34,REACHED,HF,target,left,yellow,pleasantness,conservative,no,7,0,3.13221731951,-,-
106,001,2,source,35,NADIR,LF,target,left,yellow,pleasantness,liberal,no,1,1,1.15976939185,-,-
106,001,2,source,36,KITCHEN,HF,target,right,aqua,imageability,liberal,no,8,1,0.853298916612,-,-
106,001,2,source,37,YELLOWED,LF,target,left,yellow,pleasantness,liberal,no,1,1,1.13304181037,-,-
106,001,2,source,38,HAGGLING,LF,target,left,yellow,pleasantness,conservative,no,2,1,1.8793761438,-,-
106,001,2,source,39,UNDER,HF,target,left,yellow,pleasantness,conservative,no,2,1,2.19926943291,-,-
106,001,2,source,40,VALUE,HF,target,right,aqua,imageability,conservative,no,2,0,2.05289975892,-,-
106,001,2,source,41,RABBIS,LF,target,left,yellow,pleasantness,conservative,no,1,1,0.999988268693,-,-
106,001,2,source,42,FASCINATE,LF,target,right,aqua,imageability,liberal,no,7,1,1.45286801107,-,-
106,001,2,source,43,LONGER,HF,target,right,aqua,imageability,liberal,no,8,1,1.09336176709,-,-
106,001,2,source,44,TWENTY,HF,target,right,aqua,imageability,conservative,no,3,0,1.5461795535,-,-
106,001,2,source,45,KNOWLEDGE,HF,target,left,yellow,pleasantness,liberal,no,3,1,1.3598284883,-,-
106,001,2,source,46,BARBARIAN,LF,target,left,yellow,pleasantness,conservative,no,2,1,1.23991217651,-,-
106,001,2,source,47,OBVIOUSLY,HF,target,left,yellow,pleasantness,conservative,no,1,1,1.81274489102,-,-
106,001,2,recog,0,HAGGLING,LF,target,left,yellow,pleasantness,conservative,no,z,1,1.37293932275,1,329
106,001,2,recog,1,HOTEL,HF,target,left,yellow,pleasantness,liberal,no,z,1,1.18660218847,3,332
106,001,2,recog,2,SOLEMNITY,LF,lure,-,-,-,conservative,no,m,1,0.973044024659,3,335
106,001,2,recog,3,COMES,HF,lure,-,-,-,liberal,no,m,1,0.866713298608,1,336
106,001,2,recog,4,LONGER,HF,target,right,aqua,imageability,liberal,no,z,1,1.27961971505,3,339
106,001,2,recog,5,IDOLATRY,LF,lure,-,-,-,liberal,no,m,1,0.759829734756,1,340
106,001,2,recog,6,WESTERN,HF,target,right,aqua,imageability,liberal,no,z,1,0.813433005444,3,343
106,001,2,recog,7,EMULATION,LF,lure,-,-,-,conservative,no,m,1,0.746705335985,3,346
106,001,2,recog,8,MARKET,HF,target,right,aqua,imageability,conservative,no,z,1,1.06660559055,1,347
106,001,2,recog,9,HURDLES,LF,target,left,yellow,pleasantness,liberal,no,z,1,0.840026043499,3,350
106,001,2,recog,10,ANIMAL,HF,target,left,yellow,pleasantness,liberal,no,z,1,0.653458315737,3,353
106,001,2,recog,11,ABOVE,HF,target,left,yellow,pleasantness,liberal,no,z,1,2.0260119718,3,356
106,001,2,recog,12,FASCINATE,LF,target,right,aqua,imageability,liberal,no,z,1,1.79964542127,3,359
106,001,2,recog,13,AFFABLE,LF,lure,-,-,-,liberal,no,m,1,0.866667106591,1,360
106,001,2,recog,14,STUDENT,HF,lure,-,-,-,conservative,no,m,1,0.879779774055,3,363
106,001,2,recog,15,CADDIE,LF,target,right,aqua,imageability,conservative,no,z,1,1.09328148096,1,364
106,001,2,recog,16,BUSINESS,HF,target,left,yellow,pleasantness,conservative,no,z,1,1.50647274818,1,365
106,001,2,recog,17,ANSWER,HF,target,left,yellow,pleasantness,liberal,no,z,1,0.813325957275,3,368
106,001,2,recog,18,NIPPED,LF,lure,-,-,-,conservative,no,m,1,1.00003042807,3,371
106,001,2,recog,19,WICKEDLY,LF,lure,-,-,-,conservative,no,m,1,0.680084348091,3,374
106,001,2,recog,20,DEBACLE,LF,target,left,yellow,pleasantness,conservative,no,z,1,0.813127624879,1,375
106,001,2,recog,21,BEYOND,HF,target,right,aqua,imageability,liberal,no,z,1,0.89341961709,3,378
106,001,2,recog,22,ROPED,LF,target,left,yellow,pleasantness,conservative,no,z,1,1.1865823919,1,379
106,001,2,recog,23,COUNCIL,HF,target,left,yellow,pleasantness,conservative,no,z,1,0.786749416367,1,380
106,001,2,recog,24,KNOWLEDGE,HF,target,left,yellow,pleasantness,liberal,no,z,1,1.43961713416,3,383
106,001,2,recog,25,BARBARIAN,LF,target,left,yellow,pleasantness,conservative,no,z,1,0.599905636307,1,384
106,001,2,recog,26,GABLE,LF,lure,-,-,-,liberal,no,m,1,0.880014033575,1,385
106,001,2,recog,27,RANGE,HF,lure,-,-,-,conservative,no,m,1,2.18616189789,3,388
106,001,2,recog,28,TOPICAL,LF,lure,-,-,-,conservative,no,m,1,2.0793399234,3,391
106,001,2,recog,29,PLEASE,HF,target,left,yellow,pleasantness,liberal,no,z,1,0.946671315196,3,394
106,001,2,recog,30,THOUSAND,HF,lure,-,-,-,conservative,yes,z,0,4.27864345041,-3,391
106,001,2,recog,31,UPDATE,LF,lure,-,-,-,conservative,no,m,1,1.55974314305,3,394
106,001,2,recog,32,POUNDS,HF,lure,-,-,-,liberal,no,m,1,3.71890617301,1,395
106,001,2,recog,33,FINAL,HF,target,right,aqua,imageability,liberal,no,z,1,0.747015482391,3,398
106,001,2,recog,34,LIKELY,HF,lure,-,-,-,liberal,no,None,-1,-1,-1,397
106,001,2,recog,35,FUTURE,HF,lure,-,-,-,conservative,no,m,1,2.98593123108,3,400
106,001,2,recog,36,STAFF,HF,lure,-,-,-,conservative,no,m,1,0.800081312615,3,403
106,001,2,recog,37,WITHIN,HF,target,right,aqua,imageability,conservative,no,z,1,1.4262504106,1,404
106,001,2,recog,38,TWENTY,HF,target,right,aqua,imageability,conservative,no,z,1,1.23961449462,1,405
106,001,2,recog,39,HAWKED,LF,target,right,aqua,imageability,conservative,no,z,1,0.693425409421,1,406
106,001,2,recog,40,INVOLVED,HF,lure,-,-,-,liberal,no,m,1,1.62639162619,1,407
106,001,2,recog,41,OBVIOUSLY,HF,target,left,yellow,pleasantness,conservative,no,z,1,0.666560351705,1,408
106,001,2,recog,42,JUMBO,LF,lure,-,-,-,liberal,no,m,1,0.720129161682,1,409
106,001,2,recog,43,APART,HF,lure,-,-,-,conservative,no,m,1,1.00007918632,3,412
106,001,2,recog,44,SUDDENLY,HF,lure,-,-,-,conservative,no,m,1,0.799829456137,3,415
106,001,2,recog,45,FREEDOM,HF,lure,-,-,-,liberal,no,m,1,0.706767937168,1,416
106,001,2,recog,46,REEDY,LF,target,right,aqua,imageability,conservative,no,m,0,0.613450529083,-1,415
106,001,2,recog,47,SENSE,HF,lure,-,-,-,liberal,no,m,1,1.77302012212,1,416
106,001,2,recog,48,EMACIATED,LF,lure,-,-,-,liberal,no,m,1,0.786904122968,1,417
106,001,2,recog,49,LEARN,HF,target,right,aqua,imageability,conservative,no,z,1,0.626796356257,1,418
106,001,2,recog,50,LEGALITY,LF,target,right,aqua,imageability,liberal,no,z,1,0.560157771404,3,421
106,001,2,recog,51,YELLOWED,LF,target,left,yellow,pleasantness,liberal,no,z,1,0.493637232819,3,424
106,001,2,recog,52,UNDER,HF,target,left,yellow,pleasantness,conservative,no,z,1,0.613669757866,1,425
106,001,2,recog,53,KITCHEN,HF,target,right,aqua,imageability,liberal,no,z,1,0.47995706342,3,428
106,001,2,recog,54,PHANTOMS,LF,target,left,yellow,pleasantness,liberal,no,z,1,0.519924890312,3,431
106,001,2,recog,55,THING,HF,lure,-,-,-,liberal,no,m,1,0.759838166632,1,432
106,001,2,recog,56,SLOWLY,HF,target,left,yellow,pleasantness,conservative,no,z,1,0.600104701907,1,433
106,001,2,recog,57,CLASS,HF,target,right,aqua,imageability,liberal,no,z,1,0.866699001079,3,436
106,001,2,recog,58,HONKING,LF,target,left,yellow,pleasantness,conservative,no,z,1,0.773387458647,1,437
106,001,2,recog,59,FAMILY,HF,lure,-,-,-,liberal,no,z,0,1.11996213721,-1,436
106,001,2,recog,60,ROBBERIES,LF,target,right,aqua,imageability,liberal,no,z,1,0.840216677225,3,439
106,001,2,recog,61,CHAIR,HF,target,right,aqua,imageability,conservative,no,z,1,0.560185999861,1,440
106,001,2,recog,62,PRUDENTLY,LF,target,right,aqua,imageability,liberal,no,z,1,0.613251096876,3,443
106,001,2,recog,63,RICKETS,LF,lure,-,-,-,conservative,no,m,1,0.720244641725,3,446
106,001,2,recog,64,WHETHER,HF,lure,-,-,-,conservative,no,m,1,0.746683339787,3,449
106,001,2,recog,65,LENGTHEN,LF,lure,-,-,-,conservative,no,z,0,1.21299579433,-3,446
106,001,2,recog,66,LIQUEUR,LF,target,right,aqua,imageability,liberal,no,z,1,0.760064727481,3,449
106,001,2,recog,67,SPRATS,LF,lure,-,-,-,liberal,no,m,1,1.35984681847,1,450
106,001,2,recog,68,RAPACIOUS,LF,target,right,aqua,imageability,liberal,no,m,0,1.79963222355,-3,447
106,001,2,recog,69,HOWEVER,HF,lure,-,-,-,conservative,no,m,1,0.999948675535,3,450
106,001,2,recog,70,AVENGE,LF,target,right,aqua,imageability,conservative,no,z,1,1.77307731224,1,451
106,001,2,recog,71,RUDIMENTS,LF,lure,-,-,-,liberal,no,m,1,1.38642115976,1,452
106,001,2,recog,72,VANDALS,LF,lure,-,-,-,conservative,no,m,1,0.693435674315,3,455
106,001,2,recog,73,STYLED,LF,lure,-,-,-,conservative,no,m,1,1.37313692194,3,458
106,001,2,recog,74,ARSENALS,LF,lure,-,-,-,liberal,no,m,1,0.626831183572,1,459
106,001,2,recog,75,BOVINE,LF,target,left,yellow,pleasantness,liberal,no,z,1,0.626558430704,3,462
106,001,2,recog,76,LACING,LF,target,left,yellow,pleasantness,liberal,no,z,1,0.653461615168,3,465
106,001,2,recog,77,GORGED,LF,lure,-,-,-,liberal,yes,z,0,1.42622804779,-1,464
106,001,2,recog,78,VICEREGAL,LF,lure,-,-,-,liberal,no,m,1,1.55958550362,1,465
106,001,2,recog,79,GLUTINOUS,LF,lure,-,-,-,liberal,no,m,1,0.760024401117,1,466
106,001,2,recog,80,HIMSELF,HF,lure,-,-,-,conservative,no,m,1,0.720117430375,3,469
106,001,2,recog,81,ITSELF,HF,lure,-,-,-,liberal,no,m,1,0.600526295722,1,470
106,001,2,recog,82,DRAFTING,LF,lure,-,-,-,conservative,no,m,1,0.600119366041,3,473
106,001,2,recog,83,FOUND,HF,lure,-,-,-,conservative,no,m,1,0.986662238098,3,476
106,001,2,recog,84,PLUGGING,LF,target,right,aqua,imageability,conservative,yes,m,0,0.480203054247,-1,475
106,001,2,recog,85,NADIR,LF,target,left,yellow,pleasantness,liberal,no,z,1,3.66560351705,3,478
106,001,2,recog,86,UNCANNILY,LF,lure,-,-,-,conservative,no,m,1,1.37327696441,3,481
106,001,2,recog,87,VALUE,HF,target,right,aqua,imageability,conservative,no,z,1,1.26658733371,1,482
106,001,2,recog,88,KOSHER,LF,lure,-,-,-,liberal,no,m,1,0.626580426902,1,483
106,001,2,recog,89,QUALITY,HF,lure,-,-,-,liberal,no,m,1,0.706735676074,1,484
106,001,2,recog,90,USUAL,HF,lure,-,-,-,conservative,yes,m,1,1.10657415065,3,487
106,001,2,recog,91,MYSELF,HF,lure,-,-,-,liberal,no,m,1,2.06631450752,1,488
106,001,2,recog,92,VULTURE,LF,target,right,aqua,imageability,conservative,no,z,1,0.853293784168,1,489
106,001,2,recog,93,SPOKE,HF,lure,-,-,-,liberal,no,m,1,0.760087090282,1,490
106,001,2,recog,94,REACHED,HF,target,left,yellow,pleasantness,conservative,no,z,1,1.22653518805,1,491
106,001,2,recog,95,RABBIS,LF,target,left,yellow,pleasantness,conservative,no,z,1,0.640097457826,1,492
106,001,3,source,0,RAKING,LF,target,right,aqua,imageability,conservative,no,3,0,2.03935559935,-,-
106,001,3,source,1,BLOOD,HF,target,left,yellow,pleasantness,liberal,yes,7,0,1.02666635872,-,-
106,001,3,source,2,HUNDRED,HF,target,right,aqua,imageability,liberal,no,2,0,1.05305519873,-,-
106,001,3,source,3,CANNOT,HF,target,right,aqua,imageability,conservative,no,8,1,0.880745040591,-,-
106,001,3,source,4,MIDDLE,HF,target,left,yellow,pleasantness,liberal,no,3,1,1.38658356503,-,-
106,001,3,source,5,CAGED,LF,target,right,aqua,imageability,conservative,no,3,0,0.986670303371,-,-
106,001,3,source,6,ALONE,HF,target,right,aqua,imageability,conservative,no,3,0,1.34648925999,-,-
106,001,3,source,7,ROADWAY,LF,target,right,aqua,imageability,conservative,no,9,1,1.11993207574,-,-
106,001,3,source,8,MOISTENED,LF,target,left,yellow,pleasantness,liberal,no,3,1,1.25322500938,-,-
106,001,3,source,9,TILTS,LF,target,right,aqua,imageability,liberal,no,8,1,0.920028785693,-,-
106,001,3,source,10,HEDGED,LF,target,left,yellow,pleasantness,conservative,no,2,1,2.33273906936,-,-
106,001,3,source,11,SUBJECT,HF,target,right,aqua,imageability,liberal,no,7,1,1.47974846613,-,-
106,001,3,source,12,TREES,HF,target,left,yellow,pleasantness,liberal,no,1,1,0.919973428592,-,-
106,001,3,source,13,AMICABLY,LF,target,left,yellow,pleasantness,liberal,no,2,1,1.09349667711,-,-
106,001,3,source,14,ANNALS,LF,target,left,yellow,pleasantness,liberal,yes,3,1,1.17330841897,-,-
106,001,3,source,15,NEMESIS,LF,target,right,aqua,imageability,liberal,no,8,1,1.19993591774,-,-
106,001,3,source,16,RESEARCH,HF,target,right,aqua,imageability,liberal,yes,3,0,2.14619847024,-,-
106,001,3,source,17,MILES,HF,target,right,aqua,imageability,liberal,no,8,1,0.973347572206,-,-
106,001,3,source,18,NEEDED,HF,target,left,yellow,pleasantness,conservative,no,7,0,3.41173401903,-,-
106,001,3,source,19,SMALL,HF,target,right,aqua,imageability,liberal,no,9,1,1.1465922022,-,-
106,001,3,source,20,PARENTS,HF,target,right,aqua,imageability,liberal,no,2,0,0.999974337768,-,-
106,001,3,source,21,MEANS,HF,target,left,yellow,pleasantness,liberal,no,3,1,3.55893258312,-,-
106,001,3,source,22,NEITHER,HF,target,right,aqua,imageability,conservative,no,2,0,1.79966741747,-,-
106,001,3,source,23,NEARLY,HF,target,left,yellow,pleasantness,conservative,no,2,1,1.58625552838,-,-
106,001,3,source,24,OFTEN,HF,target,right,aqua,imageability,conservative,no,2,0,0.91976776413,-,-
106,001,3,source,25,CORNER,HF,target,left,yellow,pleasantness,liberal,no,1,1,1.19988532648,-,-
106,001,3,source,26,PIQUE,LF,target,left,yellow,pleasantness,liberal,no,1,1,0.799843020461,-,-
106,001,3,source,27,NUMBER,HF,target,left,yellow,pleasantness,liberal,yes,3,1,1.11991997783,-,-
106,001,3,source,28,RIMMED,LF,target,left,yellow,pleasantness,liberal,no,1,1,1.23985755261,-,-
106,001,3,source,29,ARMAMENT,LF,target,left,yellow,pleasantness,conservative,no,1,1,0.986757188357,-,-
106,001,3,source,30,SURER,LF,target,left,yellow,pleasantness,conservative,no,1,1,1.15985774325,-,-
106,001,3,source,31,BETTER,HF,target,left,yellow,pleasantness,conservative,no,1,1,1.07989862685,-,-
106,001,3,source,32,POLICE,HF,target,left,yellow,pleasantness,conservative,no,1,1,1.35983728678,-,-
106,001,3,source,33,ENHANCES,LF,target,right,aqua,imageability,conservative,no,1,0,1.09328661341,-,-
106,001,3,source,34,SECOND,HF,target,left,yellow,pleasantness,conservative,no,1,1,1.49312618779,-,-
106,001,3,source,35,BACHELORS,LF,target,right,aqua,imageability,liberal,no,9,1,0.866490770395,-,-
106,001,3,source,36,SOFTENING,LF,target,right,aqua,imageability,liberal,no,9,1,1.0399249343,-,-
106,001,3,source,37,UMPIRE,LF,target,right,aqua,imageability,conservative,no,9,1,0.666849601723,-,-
106,001,3,source,38,TOFFEE,LF,target,left,yellow,pleasantness,conservative,no,1,1,1.01328900366,-,-
106,001,3,source,39,WAITING,HF,target,right,aqua,imageability,conservative,no,3,0,1.06662758675,-,-
106,001,3,source,40,IRISES,LF,target,left,yellow,pleasantness,conservative,no,2,1,1.15993326353,-,-
106,001,3,source,41,CRACKLE,LF,target,left,yellow,pleasantness,liberal,no,2,1,1.01330586741,-,-
106,001,3,source,42,APTLY,LF,target,right,aqua,imageability,liberal,no,7,1,2.15954209779,-,-
106,001,3,source,43,WIZENED,LF,target,left,yellow,pleasantness,conservative,no,3,1,1.50648887872,-,-
106,001,3,source,44,DULLED,LF,target,right,aqua,imageability,conservative,no,2,0,1.27984224326,-,-
106,001,3,source,45,GULLIBLE,LF,target,right,aqua,imageability,liberal,no,9,1,0.853365271814,-,-
106,001,3,source,46,LANGUAGE,HF,target,right,aqua,imageability,conservative,no,8,1,1.1732563613,-,-
106,001,3,source,47,BLACK,HF,target,left,yellow,pleasantness,conservative,no,3,1,1.42621668309,-,-
106,001,3,recog,0,EMBATTLED,LF,lure,-,-,-,liberal,no,m,1,1.25687417881,1,493
106,001,3,recog,1,ANOINTED,LF,lure,-,-,-,conservative,no,m,1,0.92010907182,3,496
106,001,3,recog,2,ALONE,HF,target,right,aqua,imageability,conservative,no,z,1,1.05326782865,1,497
106,001,3,recog,3,CANNOT,HF,target,right,aqua,imageability,conservative,no,z,1,0.693459870134,1,498
106,001,3,recog,4,SECOND,HF,target,left,yellow,pleasantness,conservative,no,z,1,0.573508364421,1,499
106,001,3,recog,5,WIZENED,LF,target,left,yellow,pleasantness,conservative,no,z,1,0.586814231834,1,500
106,001,3,recog,6,TILTS,LF,target,right,aqua,imageability,liberal,yes,z,1,1.22633392283,3,503
106,001,3,recog,7,SMALL,HF,target,right,aqua,imageability,liberal,no,z,1,0.786775811806,3,506
106,001,3,recog,8,EIGHT,HF,lure,-,-,-,liberal,no,m,1,0.760074625772,1,507
106,001,3,recog,9,TROUBLE,HF,lure,-,-,-,conservative,no,m,1,1.45313196546,3,510
106,001,3,recog,10,BETTER,HF,target,left,yellow,pleasantness,conservative,no,z,1,0.746517268484,1,511
106,001,3,recog,11,GESTURING,LF,lure,-,-,-,conservative,no,m,1,0.813384980409,3,514
106,001,3,recog,12,RESEARCH,HF,target,right,aqua,imageability,liberal,no,z,1,0.786809905914,3,517
106,001,3,recog,13,BLOOD,HF,target,left,yellow,pleasantness,liberal,no,z,1,0.613458227752,3,520
106,001,3,recog,14,BLACK,HF,target,left,yellow,pleasantness,conservative,no,z,1,0.600168490886,1,521
106,001,3,recog,15,HOURS,HF,lure,-,-,-,liberal,no,m,1,0.893076842987,1,522
106,001,3,recog,16,AMICABLY,LF,target,left,yellow,pleasantness,liberal,no,z,1,0.786729986392,3,525
106,001,3,recog,17,TREES,HF,target,left,yellow,pleasantness,liberal,no,z,1,0.573448974685,3,528
106,001,3,recog,18,RAKING,LF,target,right,aqua,imageability,conservative,no,z,1,0.720100566623,1,529
106,001,3,recog,19,TELEPHONE,HF,lure,-,-,-,conservative,no,m,1,0.800063715657,3,532
106,001,3,recog,20,SELECTS,LF,lure,-,-,-,conservative,no,m,1,0.760079758216,3,535
106,001,3,recog,21,GARDEN,HF,lure,-,-,-,liberal,no,m,1,1.31985296274,1,536
106,001,3,recog,22,OFTEN,HF,target,right,aqua,imageability,conservative,no,z,1,1.10655875331,1,537
106,001,3,recog,23,ORDER,HF,lure,-,-,-,conservative,no,m,1,1.02646765972,3,540
106,001,3,recog,24,INEDIBLE,LF,lure,-,-,-,liberal,no,m,1,0.746494905679,1,541
106,001,3,recog,25,ACTION,HF,lure,-,-,-,conservative,no,m,1,0.679842023297,3,544
106,001,3,recog,26,ANNALS,LF,target,left,yellow,pleasantness,liberal,no,z,1,0.813398178128,3,547
106,001,3,recog,27,SLIGHTLY,HF,lure,-,-,-,conservative,no,m,1,1.02673857957,3,550
106,001,3,recog,28,NEEDED,HF,target,left,yellow,pleasantness,conservative,no,z,1,1.18659082377,1,551
106,001,3,recog,29,BELIEVE,HF,lure,-,-,-,liberal,no,m,1,0.986656372446,1,552
106,001,3,recog,30,HUNDRED,HF,target,right,aqua,imageability,liberal,no,z,1,0.840072602121,3,555
106,001,3,recog,31,APTLY,LF,target,right,aqua,imageability,liberal,no,z,1,0.812115799725,3,558
106,001,3,recog,32,MIMICKED,LF,lure,-,-,-,liberal,no,m,1,0.733675887474,1,559
106,001,3,recog,33,LANGUAGE,HF,target,right,aqua,imageability,conservative,no,z,1,1.13334389151,1,560
106,001,3,recog,34,NEITHER,HF,target,right,aqua,imageability,conservative,no,z,1,0.719865573896,1,561
106,001,3,recog,35,NEMESIS,LF,target,right,aqua,imageability,liberal,no,z,1,0.866746292906,3,564
106,001,3,recog,36,ENHANCES,LF,target,right,aqua,imageability,conservative,no,z,1,1.22661364116,1,565
106,001,3,recog,37,MOISTENED,LF,target,left,yellow,pleasantness,liberal,no,z,1,0.693492864433,3,568
106,001,3,recog,38,MEANS,HF,target,left,yellow,pleasantness,liberal,no,z,1,0.813391212667,3,571
106,001,3,recog,39,GULLIBLE,LF,target,right,aqua,imageability,liberal,no,z,1,0.600121932262,3,574
106,001,3,recog,40,MUSIC,HF,lure,-,-,-,liberal,no,m,1,0.720081869853,1,575
106,001,3,recog,41,WHITE,HF,lure,-,-,-,liberal,no,m,1,0.706535877267,1,576
106,001,3,recog,42,HORDE,LF,lure,-,-,-,conservative,no,m,1,0.640129718917,3,579
106,001,3,recog,43,ADVERSELY,LF,lure,-,-,-,conservative,no,m,1,0.586906249266,3,582
106,001,3,recog,44,LOYALIST,LF,lure,-,-,-,liberal,no,m,1,0.613472891884,1,583
106,001,3,recog,45,QUICKLY,HF,lure,-,-,-,liberal,no,m,1,2.87925919734,1,584
106,001,3,recog,46,TOFFEE,LF,target,left,yellow,pleasantness,conservative,no,z,1,0.680121741631,1,585
106,001,3,recog,47,HEDGED,LF,target,left,yellow,pleasantness,conservative,no,z,1,1.58640913517,1,586
106,001,3,recog,48,SURER,LF,target,left,yellow,pleasantness,conservative,no,z,1,2.66603354274,1,587
106,001,3,recog,49,DAUGHTER,HF,lure,-,-,-,liberal,no,m,1,0.720146025433,1,588
106,001,3,recog,50,NUMBER,HF,target,left,yellow,pleasantness,liberal,no,m,0,0.840062703832,-3,585
106,001,3,recog,51,CRACKLE,LF,target,left,yellow,pleasantness,liberal,no,z,1,1.10661997607,3,588
106,001,3,recog,52,CAGED,LF,target,right,aqua,imageability,conservative,no,z,1,1.06659569226,1,589
106,001,3,recog,53,LIZARD,LF,lure,-,-,-,conservative,no,m,1,0.746760693086,3,592
106,001,3,recog,54,PARENTS,HF,target,right,aqua,imageability,liberal,no,z,1,0.666552653034,3,595
106,001,3,recog,55,RATHER,HF,lure,-,-,-,liberal,no,m,1,0.880033096948,1,596
106,001,3,recog,56,PIQUE,LF,target,left,yellow,pleasantness,liberal,no,z,1,0.60046177354,3,599
106,001,3,recog,57,IRISES,LF,target,left,yellow,pleasantness,conservative,yes,m,0,2.27943128094,-1,598
106,001,3,recog,58,BUDDIES,LF,lure,-,-,-,liberal,no,m,1,1.27988513585,1,599
106,001,3,recog,59,ARMAMENT,LF,target,left,yellow,pleasantness,conservative,no,z,1,1.2398777158,1,600
106,001,3,recog,60,WAITING,HF,target,right,aqua,imageability,conservative,no,z,1,1.18657249361,1,601
106,001,3,recog,61,AGNOSTIC,LF,lure,-,-,-,conservative,no,m,1,0.826768934328,3,604
106,001,3,recog,62,MILES,HF,target,right,aqua,imageability,liberal,no,z,1,0.666753185051,3,607
106,001,3,recog,63,ABETTED,LF,lure,-,-,-,liberal,no,m,1,0.70677380282,1,608
106,001,3,recog,64,ARRIVED,HF,lure,-,-,-,liberal,no,m,1,1.13336442129,1,609
106,001,3,recog,65,FEUDALISM,LF,lure,-,-,-,liberal,no,m,1,0.653437785952,1,610
106,001,3,recog,66,TOUSLED,LF,lure,-,-,-,conservative,no,m,1,0.640372410315,3,613
106,001,3,recog,67,SHALL,HF,lure,-,-,-,conservative,no,m,1,0.600216149316,3,616
106,001,3,recog,68,MIDDLE,HF,target,left,yellow,pleasantness,liberal,no,z,1,0.760122650805,3,619
106,001,3,recog,69,SITTING,HF,lure,-,-,-,liberal,no,z,0,1.67979326506,-1,618
106,001,3,recog,70,UMPIRE,LF,target,right,aqua,imageability,conservative,no,z,1,0.733205902021,1,619
106,001,3,recog,71,ROADWAY,LF,target,right,aqua,imageability,conservative,no,z,1,0.599863110321,1,620
106,001,3,recog,72,RIMMED,LF,target,left,yellow,pleasantness,liberal,no,z,1,0.599973457918,3,623
106,001,3,recog,73,MODERN,HF,lure,-,-,-,liberal,yes,z,0,0.813362251003,-1,622
106,001,3,recog,74,BOXCAR,LF,lure,-,-,-,liberal,no,m,1,0.813486896132,1,623
106,001,3,recog,75,MUNCH,LF,lure,-,-,-,conservative,no,m,1,0.773398823349,3,626
106,001,3,recog,76,LITANY,LF,lure,-,-,-,liberal,no,m,1,0.586851258769,1,627
106,001,3,recog,77,NEARLY,HF,target,left,yellow,pleasantness,conservative,no,m,0,0.746739796696,-1,626
106,001,3,recog,78,DEGREE,HF,lure,-,-,-,conservative,no,m,1,0.826720909294,3,629
106,001,3,recog,79,CHEEKBONE,LF,lure,-,-,-,conservative,no,m,1,0.680215958682,3,632
106,001,3,recog,80,HUSBAND,HF,lure,-,-,-,conservative,yes,m,1,0.893104338238,3,635
106,001,3,recog,81,FANATICS,LF,lure,-,-,-,liberal,no,z,0,2.13283174667,-1,634
106,001,3,recog,82,RALLIED,LF,lure,-,-,-,conservative,no,m,1,0.746756660448,3,637
106,001,3,recog,83,POLICE,HF,target,left,yellow,pleasantness,conservative,no,z,1,0.86672466331,1,638
106,001,3,recog,84,MOMENT,HF,lure,-,-,-,conservative,no,m,1,0.826925840547,3,641
106,001,3,recog,85,FELLS,LF,lure,-,-,-,conservative,no,m,1,2.14618453931,3,644
106,001,3,recog,86,ENFORCING,LF,lure,-,-,-,liberal,no,m,1,1.69300858145,1,645
106,001,3,recog,87,TRYING,HF,lure,-,-,-,conservative,no,m,1,0.53352184076,3,648
106,001,3,recog,88,SYSTEM,HF,lure,-,-,-,conservative,no,m,1,0.573586450928,3,651
106,001,3,recog,89,SORRY,HF,lure,-,-,-,conservative,no,m,1,0.746730265011,3,654
106,001,3,recog,90,AGILITY,LF,lure,-,-,-,liberal,no,m,1,0.706885250229,1,655
106,001,3,recog,91,CORNER,HF,target,left,yellow,pleasantness,liberal,no,z,1,0.76010542045,3,658
106,001,3,recog,92,BACHELORS,LF,target,right,aqua,imageability,liberal,no,z,1,0.560156304991,3,661
106,001,3,recog,93,DULLED,LF,target,right,aqua,imageability,conservative,no,z,1,0.533501677575,1,662
106,001,3,recog,94,SUBJECT,HF,target,right,aqua,imageability,liberal,no,z,1,0.453586920179,3,665
106,001,3,recog,95,SOFTENING,LF,target,right,aqua,imageability,liberal,no,z,1,0.586815698249,3,668
106,001,4,source,0,CUDDLE,LF,target,right,aqua,imageability,conservative,no,2,0,1.83965797377,-,-
106,001,4,source,1,AIRBED,LF,target,left,yellow,pleasantness,liberal,yes,3,1,1.50640712618,-,-
106,001,4,source,2,REGAINING,LF,target,left,yellow,pleasantness,conservative,no,2,1,1.27987010511,-,-
106,001,4,source,3,EJECTED,LF,target,left,yellow,pleasantness,conservative,yes,3,1,0.786797441402,-,-
106,001,4,source,4,INDEED,HF,target,right,aqua,imageability,liberal,no,2,0,1.15989220396,-,-
106,001,4,source,5,INSIDE,HF,target,left,yellow,pleasantness,conservative,no,1,1,0.920013021749,-,-
106,001,4,source,6,PAPER,HF,target,left,yellow,pleasantness,conservative,no,3,1,1.53295727165,-,-
106,001,4,source,7,AROUND,HF,target,right,aqua,imageability,liberal,no,8,1,1.06661475564,-,-
106,001,4,source,8,BOOKS,HF,target,left,yellow,pleasantness,conservative,no,1,1,1.06639039441,-,-
106,001,4,source,9,MESSED,LF,target,right,aqua,imageability,liberal,no,7,1,1.04003711492,-,-
106,001,4,source,10,TWINE,LF,target,left,yellow,pleasantness,conservative,no,1,1,1.06690510546,-,-
106,001,4,source,11,GREATER,HF,target,right,aqua,imageability,conservative,no,3,0,1.533194464,-,-
106,001,4,source,12,DEITIES,LF,target,left,yellow,pleasantness,liberal,no,3,1,0.933323655005,-,-
106,001,4,source,13,EXPECT,HF,target,left,yellow,pleasantness,liberal,yes,7,0,0.973079951784,-,-
106,001,4,source,14,TENABLE,LF,target,right,aqua,imageability,conservative,no,7,1,1.33318375918,-,-
106,001,4,source,15,SNUBBED,LF,target,right,aqua,imageability,liberal,no,9,1,0.813158786163,-,-
106,001,4,source,16,MOTHER,HF,target,left,yellow,pleasantness,liberal,no,1,1,0.839812313767,-,-
106,001,4,source,17,RAGES,LF,target,right,aqua,imageability,conservative,no,9,1,0.960045737429,-,-
106,001,4,source,18,SOVIET,HF,target,right,aqua,imageability,liberal,no,9,1,0.733497351657,-,-
106,001,4,source,19,MASKING,LF,target,left,yellow,pleasantness,liberal,no,7,0,1.39983224232,-,-
106,001,4,source,20,USING,HF,target,left,yellow,pleasantness,conservative,no,3,1,1.07995251754,-,-
106,001,4,source,21,COVER,HF,target,right,aqua,imageability,conservative,no,3,0,2.67934234298,-,-
106,001,4,source,22,INTEREST,HF,target,right,aqua,imageability,liberal,no,9,1,1.01332346437,-,-
106,001,4,source,23,SOUND,HF,target,right,aqua,imageability,liberal,no,9,1,0.72010129983,-,-
106,001,4,source,24,ROUND,HF,target,right,aqua,imageability,conservative,no,7,1,1.51989189601,-,-
106,001,4,source,25,PICTURE,HF,target,left,yellow,pleasantness,liberal,no,2,1,1.17299937237,-,-
106,001,4,source,26,LARGE,HF,target,right,aqua,imageability,liberal,no,2,0,0.853435293047,-,-
106,001,4,source,27,SCHOOL,HF,target,left,yellow,pleasantness,conservative,no,2,1,2.34592579069,-,-
106,001,4,source,28,UNNAMED,LF,target,right,aqua,imageability,conservative,no,7,1,1.51986220114,-,-
106,001,4,source,29,PREPARED,HF,target,left,yellow,pleasantness,liberal,no,2,1,1.06662538713,-,-
106,001,4,source,30,SPEAK,HF,target,right,aqua,imageability,conservative,no,7,1,1.79966778407,-,-
106,001,4,source,31,SIPHON,LF,target,right,aqua,imageability,liberal,no,9,1,1.49321967164,-,-
106,001,4,source,32,FILAMENTS,LF,target,left,yellow,pleasantness,liberal,no,2,1,0.960090096432,-,-
106,001,4,source,33,CHURCH,HF,target,left,yellow,pleasantness,liberal,no,1,1,0.78673511884,-,-
106,001,4,source,34,YOGHURT,LF,target,right,aqua,imageability,liberal,no,9,1,0.760158211329,-,-
106,001,4,source,35,SHRED,LF,target,right,aqua,imageability,conservative,no,8,1,1.4797891591,-,-
106,001,4,source,36,ENAMELLED,LF,target,left,yellow,pleasantness,liberal,no,3,1,1.25304830659,-,-
106,001,4,source,37,NAPPY,LF,target,right,aqua,imageability,liberal,no,9,1,0.946324508459,-,-
106,001,4,source,38,ALLOWED,HF,target,right,aqua,imageability,conservative,yes,3,0,0.986610913635,-,-
106,001,4,source,39,YARDSTICK,LF,target,left,yellow,pleasantness,conservative,no,3,1,0.866719897467,-,-
106,001,4,source,40,POETICAL,LF,target,right,aqua,imageability,conservative,no,8,1,1.11969964923,-,-
106,001,4,source,41,TOGETHER,HF,target,right,aqua,imageability,conservative,no,3,0,2.34588546432,-,-
106,001,4,source,42,SHUNNED,LF,target,right,aqua,imageability,liberal,no,3,0,1.25320594601,-,-
106,001,4,source,43,WEEKS,HF,target,left,yellow,pleasantness,liberal,no,2,1,1.04002941625,-,-
106,001,4,source,44,GENERAL,HF,target,left,yellow,pleasantness,conservative,no,1,1,0.80015353347,-,-
106,001,4,source,45,RUMBLED,LF,target,left,yellow,pleasantness,conservative,no,2,1,1.46640667159,-,-
106,001,4,source,46,FOCUSES,LF,target,left,yellow,pleasantness,liberal,no,2,1,1.02665646043,-,-
106,001,4,source,47,CUBED,LF,target,left,yellow,pleasantness,conservative,no,1,1,1.11973154372,-,-
106,001,4,recog,0,WILDFOWL,LF,lure,-,-,-,liberal,no,m,1,1.43986092537,1,669
106,001,4,recog,1,CYNIC,LF,lure,-,-,-,conservative,no,m,1,0.800059683021,3,672
106,001,4,recog,2,TESTIFIES,LF,lure,-,-,-,conservative,no,m,1,0.760098088384,3,675
106,001,4,recog,3,SIPHON,LF,target,right,aqua,imageability,liberal,no,z,1,0.773253281832,3,678
106,001,4,recog,4,JACKALS,LF,lure,-,-,-,conservative,yes,m,1,1.3732652331,3,681
106,001,4,recog,5,GREATER,HF,target,right,aqua,imageability,conservative,no,z,1,1.78654815115,1,682
106,001,4,recog,6,ALREADY,HF,lure,-,-,-,conservative,no,m,1,0.920069112057,3,685
106,001,4,recog,7,SOVIET,HF,target,right,aqua,imageability,liberal,no,z,1,0.719942927195,3,688
106,001,4,recog,8,INNATELY,LF,lure,-,-,-,conservative,no,m,1,1.06631157469,3,691
106,001,4,recog,9,DOGMAS,LF,lure,-,-,-,conservative,no,m,1,0.693419177165,3,694
106,001,4,recog,10,CUISINE,LF,lure,-,-,-,conservative,no,m,1,0.600271139814,3,697
106,001,4,recog,11,SINCE,HF,lure,-,-,-,conservative,no,m,1,0.746505170573,3,700
106,001,4,recog,12,PERHAPS,HF,lure,-,-,-,liberal,no,m,1,0.65352173811,1,701
106,001,4,recog,13,FILAMENTS,LF,target,left,yellow,pleasantness,liberal,no,z,1,1.2132802785,3,704
106,001,4,recog,14,MOTHER,HF,target,left,yellow,pleasantness,liberal,no,z,1,0.586824130123,3,707
106,001,4,recog,15,CLOSE,HF,lure,-,-,-,conservative,no,m,1,0.813153287112,3,710
106,001,4,recog,16,TALKING,HF,lure,-,-,-,conservative,no,m,1,1.13327826951,3,713
106,001,4,recog,17,ROUND,HF,target,right,aqua,imageability,conservative,no,z,1,0.666769315596,1,714
106,001,4,recog,18,ENAMELLED,LF,target,left,yellow,pleasantness,liberal,no,z,1,0.760194138453,3,717
106,001,4,recog,19,CLEAR,HF,lure,-,-,-,conservative,no,m,1,0.813391945871,3,720
106,001,4,recog,20,MOGUL,LF,lure,-,-,-,liberal,no,m,1,0.586810932404,1,721
106,001,4,recog,21,VARIOUS,HF,lure,-,-,-,liberal,yes,z,0,1.10661447702,-1,720
106,001,4,recog,22,MESSED,LF,target,right,aqua,imageability,liberal,no,z,1,0.906706787733,3,723
106,001,4,recog,23,INCLUDING,HF,lure,-,-,-,liberal,no,m,1,0.826686081979,1,724
106,001,4,recog,24,SNUBBED,LF,target,right,aqua,imageability,liberal,no,z,1,0.666832371367,3,727
106,001,4,recog,25,CHURCH,HF,target,left,yellow,pleasantness,liberal,no,z,1,0.600124131883,3,730
106,001,4,recog,26,TENABLE,LF,target,right,aqua,imageability,conservative,no,z,1,1.07991622381,1,731
106,001,4,recog,27,POETICAL,LF,target,right,aqua,imageability,conservative,no,z,1,0.613530815208,1,732
106,001,4,recog,28,CHOICE,HF,lure,-,-,-,conservative,no,m,1,0.84010009737,3,735
106,001,4,recog,29,CONCERNED,HF,lure,-,-,-,conservative,no,m,1,0.799864283452,3,738
106,001,4,recog,30,EJECTED,LF,target,left,yellow,pleasantness,conservative,no,z,1,0.786728886582,1,739
106,001,4,recog,31,AUSPICES,LF,lure,-,-,-,conservative,no,m,1,0.707958298139,3,742
106,001,4,recog,32,INSIDE,HF,target,left,yellow,pleasantness,conservative,no,z,1,1.11994417365,1,743
106,001,4,recog,33,PAPER,HF,target,left,yellow,pleasantness,conservative,no,z,1,0.58680286713,1,744
106,001,4,recog,34,SCHOOL,HF,target,left,yellow,pleasantness,conservative,no,z,1,0.546837606462,1,745
106,001,4,recog,35,OLDER,HF,lure,-,-,-,liberal,no,m,1,0.733412299689,1,746
106,001,4,recog,36,NAPPY,LF,target,right,aqua,imageability,liberal,no,z,1,0.720078570423,3,749
106,001,4,recog,37,OUTSIDE,HF,lure,-,-,-,liberal,no,z,0,1.03994399768,-1,748
106,001,4,recog,38,CUBED,LF,target,left,yellow,pleasantness,conservative,no,z,1,1.10672629103,1,749
106,001,4,recog,39,SPEAK,HF,target,right,aqua,imageability,conservative,no,z,1,1.34651565543,1,750
106,001,4,recog,40,RUMBLED,LF,target,left,yellow,pleasantness,conservative,no,z,1,0.773381959598,1,751
106,001,4,recog,41,AROUND,HF,target,right,aqua,imageability,liberal,no,z,1,0.893128534057,3,754
106,001,4,recog,42,COVER,HF,target,right,aqua,imageability,conservative,no,z,1,0.613434765139,1,755
106,001,4,recog,43,ALLOWED,HF,target,right,aqua,imageability,conservative,no,z,1,0.720156290326,1,756
106,001,4,recog,44,LICENSING,LF,lure,-,-,-,liberal,no,m,1,0.666866832078,1,757
106,001,4,recog,45,RETURN,HF,lure,-,-,-,conservative,no,m,1,0.880015133385,3,760
106,001,4,recog,46,SOUND,HF,target,right,aqua,imageability,liberal,no,z,1,0.85493066798,3,763
106,001,4,recog,47,LAMENT,LF,lure,-,-,-,liberal,no,m,1,1.31979650583,1,764
106,001,4,recog,48,LEOPARDS,LF,lure,-,-,-,liberal,no,m,1,0.653559864855,1,765
106,001,4,recog,49,BOOKS,HF,target,left,yellow,pleasantness,conservative,no,z,1,0.693447039017,1,766
106,001,4,recog,50,TWINE,LF,target,left,yellow,pleasantness,conservative,no,z,1,0.666716158115,1,767
106,001,4,recog,51,TOGETHER,HF,target,right,aqua,imageability,conservative,no,z,1,0.693460603341,1,768
106,001,4,recog,52,LOITERING,LF,lure,-,-,-,liberal,no,m,1,0.680139338589,1,769
106,001,4,recog,53,ALTHOUGH,HF,lure,-,-,-,liberal,no,m,1,0.826711377607,1,770
106,001,4,recog,54,SCOFFED,LF,lure,-,-,-,liberal,no,m,1,0.626828250746,1,771
106,001,4,recog,55,ADENOIDS,LF,lure,-,-,-,conservative,no,m,1,0.600121932264,3,774
106,001,4,recog,56,LIGHT,HF,lure,-,-,-,conservative,no,m,1,0.640112855166,3,777
106,001,4,recog,57,AIRBED,LF,target,left,yellow,pleasantness,liberal,no,m,0,0.586540745759,-3,774
106,001,4,recog,58,UNNAMED,LF,target,right,aqua,imageability,conservative,no,z,1,1.733026633,1,775
106,001,4,recog,59,INTEREST,HF,target,right,aqua,imageability,liberal,no,z,1,1.86631260118,3,778
106,001,4,recog,60,PIECE,HF,lure,-,-,-,liberal,no,m,1,0.693517426856,1,779
106,001,4,recog,61,EXPECT,HF,target,left,yellow,pleasantness,liberal,no,m,0,0.746765458929,-3,776
106,001,4,recog,62,YOUNG,HF,lure,-,-,-,conservative,no,m,1,0.613667558246,3,779
106,001,4,recog,63,NIGHT,HF,lure,-,-,-,liberal,no,m,1,0.62679672286,1,780
106,001,4,recog,64,EXACTLY,HF,lure,-,-,-,liberal,no,m,1,1.2530281434,1,781
106,001,4,recog,65,HANDS,HF,lure,-,-,-,conservative,no,m,1,0.62678462495,3,784
106,001,4,recog,66,DODGED,LF,lure,-,-,-,conservative,no,m,1,1.02662749877,3,787
106,001,4,recog,67,SLYLY,LF,lure,-,-,-,liberal,no,m,1,0.680587694447,1,788
106,001,4,recog,68,AVAILABLE,HF,lure,-,-,-,liberal,no,m,1,0.653145969709,1,789
106,001,4,recog,69,RIOTERS,LF,lure,-,-,-,liberal,no,m,1,0.653455016305,1,790
106,001,4,recog,70,RAGES,LF,target,right,aqua,imageability,conservative,no,z,1,0.680106344291,1,791
106,001,4,recog,71,USING,HF,target,left,yellow,pleasantness,conservative,no,z,1,1.22631265984,1,792
106,001,4,recog,72,YOGHURT,LF,target,right,aqua,imageability,liberal,no,z,1,0.693512661013,3,795
106,001,4,recog,73,GOBBLE,LF,lure,-,-,-,liberal,no,m,1,0.786757481641,1,796
106,001,4,recog,74,CRONE,LF,lure,-,-,-,liberal,no,m,1,3.07927613442,1,797
106,001,4,recog,75,WEEKS,HF,target,left,yellow,pleasantness,liberal,no,z,1,0.760004971142,3,800
106,001,4,recog,76,SEWED,LF,lure,-,-,-,conservative,no,m,1,0.800056750193,3,803
106,001,4,recog,77,LARGE,HF,target,right,aqua,imageability,liberal,no,m,0,2.81241494803,-3,800
106,001,4,recog,78,SHUNNED,LF,target,right,aqua,imageability,liberal,no,z,1,1.67895081063,3,803
106,001,4,recog,79,FRACTIONS,LF,lure,-,-,-,liberal,yes,z,0,0.773406522019,-1,802
106,001,4,recog,80,REGAINING,LF,target,left,yellow,pleasantness,conservative,no,m,0,0.920010455528,-1,801
106,001,4,recog,81,PREPARED,HF,target,left,yellow,pleasantness,liberal,no,z,1,2.87923353511,3,804
106,001,4,recog,82,MASKING,LF,target,left,yellow,pleasantness,liberal,no,z,1,0.839992315994,3,807
106,001,4,recog,83,PICTURE,HF,target,left,yellow,pleasantness,liberal,no,z,1,0.733160443209,3,810
106,001,4,recog,84,FOCUSES,LF,target,left,yellow,pleasantness,liberal,yes,z,1,1.57315019298,3,813
106,001,4,recog,85,CUDDLE,LF,target,right,aqua,imageability,conservative,no,z,1,1.0133821209,1,814
106,001,4,recog,86,GENERAL,HF,target,left,yellow,pleasantness,conservative,no,z,1,0.71984174468,1,815
106,001,4,recog,87,AMALGAM,LF,lure,-,-,-,conservative,no,m,1,1.81299271486,3,818
106,001,4,recog,88,TRIED,HF,lure,-,-,-,liberal,no,m,1,0.600169224092,1,819
106,001,4,recog,89,DEITIES,LF,target,left,yellow,pleasantness,liberal,no,z,1,0.666776647662,3,822
106,001,4,recog,90,AMONG,HF,lure,-,-,-,liberal,no,z,0,1.19993958377,-1,821
106,001,4,recog,91,GALACTIC,LF,lure,-,-,-,conservative,no,m,1,0.706517913704,3,824
106,001,4,recog,92,SHRED,LF,target,right,aqua,imageability,conservative,no,z,1,0.786738051665,1,825
106,001,4,recog,93,YARDSTICK,LF,target,left,yellow,pleasantness,conservative,no,z,1,0.693438607143,1,826
106,001,4,recog,94,INDEED,HF,target,right,aqua,imageability,liberal,no,z,1,1.19989265855,3,829
106,001,4,recog,95,REPORT,HF,lure,-,-,-,conservative,no,m,1,0.666566583961,3,832
