date,subj,session,cycle,task,trial,item,wf,type,source,colour,encoding,bias,null,response,corr,rt,points,total
2019_Apr_18,107,001,0,source,0,SOCIAL,HF,target,right,yellow,pleasantness,conservative,no,None,-1,-1,-,-
2019_Apr_18,107,001,0,source,1,OBSCURELY,LF,target,left,aqua,imageability,liberal,yes,None,-1,-1,-,-
2019_Apr_18,107,001,0,source,2,IRATE,LF,target,left,aqua,imageability,conservative,yes,1,1,1.39984250548,-,-
2019_Apr_18,107,001,0,source,3,ERUDITE,LF,target,right,yellow,pleasantness,conservative,no,None,-1,-1,-,-
2019_Apr_18,107,001,0,source,4,QUESTION,HF,target,left,aqua,imageability,conservative,no,1,1,3.37240597805,-,-
2019_Apr_18,107,001,0,source,5,HOODLUMS,LF,target,right,yellow,pleasantness,conservative,no,9,1,3.05245747905,-,-
2019_Apr_18,107,001,0,source,6,CARRIED,HF,target,left,aqua,imageability,liberal,no,2,1,2.35945703985,-,-
2019_Apr_18,107,001,0,source,7,BIDDER,LF,target,right,yellow,pleasantness,liberal,no,9,1,3.22584625808,-,-
2019_Apr_18,107,001,0,source,8,NAPPY,LF,target,right,yellow,pleasantness,conservative,no,9,1,0.973091753754,-,-
2019_Apr_18,107,001,0,source,9,HAMLETS,LF,target,left,aqua,imageability,liberal,no,1,1,1.25330441535,-,-
2019_Apr_18,107,001,0,source,10,HEALTH,HF,target,left,aqua,imageability,conservative,no,3,1,2.70598383848,-,-
2019_Apr_18,107,001,0,source,11,PUPPETS,LF,target,left,aqua,imageability,liberal,yes,2,1,1.21329178939,-,-
2019_Apr_18,107,001,0,source,12,ELICIT,LF,target,right,yellow,pleasantness,liberal,no,8,1,2.97236293834,-,-
2019_Apr_18,107,001,0,source,13,ECONOMIC,HF,target,right,yellow,pleasantness,conservative,no,9,1,1.55947214407,-,-
2019_Apr_18,107,001,0,source,14,OPTIC,LF,target,left,aqua,imageability,conservative,no,1,1,1.6261547215,-,-
2019_Apr_18,107,001,0,source,15,ALONE,HF,target,right,yellow,pleasantness,liberal,no,7,1,2.33287874022,-,-
2019_Apr_18,107,001,0,source,16,SUMMER,HF,target,left,aqua,imageability,liberal,no,1,1,1.78639989383,-,-
2019_Apr_18,107,001,0,source,17,HAWKED,LF,target,left,aqua,imageability,liberal,no,1,1,1.13329696588,-,-
2019_Apr_18,107,001,0,source,18,CONCERNED,HF,target,left,aqua,imageability,conservative,no,1,1,0.986500784173,-,-
2019_Apr_18,107,001,0,source,19,ANVIL,LF,target,right,yellow,pleasantness,conservative,no,9,1,1.57311800284,-,-
2019_Apr_18,107,001,0,source,20,FLYWHEEL,LF,target,left,aqua,imageability,liberal,no,1,1,1.3065951929,-,-
2019_Apr_18,107,001,0,source,21,TEDIUM,LF,target,right,yellow,pleasantness,conservative,no,9,1,1.31982128625,-,-
2019_Apr_18,107,001,0,source,22,ALREADY,HF,target,right,yellow,pleasantness,conservative,no,9,1,0.839967459932,-,-
2019_Apr_18,107,001,0,source,23,FAMILY,HF,target,right,yellow,pleasantness,conservative,no,9,1,0.8400506798,-,-
2019_Apr_18,107,001,0,source,24,ENOUGH,HF,target,right,yellow,pleasantness,liberal,no,9,1,1.63980277991,-,-
2019_Apr_18,107,001,0,source,25,CESSATION,LF,target,right,yellow,pleasantness,liberal,no,9,1,0.813149032487,-,-
2019_Apr_18,107,001,0,source,26,ADDED,HF,target,right,yellow,pleasantness,liberal,no,9,1,1.08005678015,-,-
2019_Apr_18,107,001,0,source,27,FIELD,HF,target,right,yellow,pleasantness,liberal,no,2,0,1.39984067245,-,-
2019_Apr_18,107,001,0,source,28,TAVERNS,LF,target,left,aqua,imageability,conservative,no,1,1,1.57322908487,-,-
2019_Apr_18,107,001,0,source,29,RAGES,LF,target,left,aqua,imageability,conservative,no,1,1,0.933350417236,-,-
2019_Apr_18,107,001,0,source,30,FEVERS,LF,target,right,yellow,pleasantness,liberal,yes,2,0,0.747976877341,-,-
2019_Apr_18,107,001,0,source,31,POINT,HF,target,right,yellow,pleasantness,liberal,no,8,1,1.53315963477,-,-
2019_Apr_18,107,001,0,source,32,WOMAN,HF,target,right,yellow,pleasantness,conservative,no,9,1,1.25322156208,-,-
2019_Apr_18,107,001,0,source,33,NUCLEAR,HF,target,left,aqua,imageability,conservative,no,1,1,1.61284797453,-,-
2019_Apr_18,107,001,0,source,34,PHRASED,LF,target,right,yellow,pleasantness,conservative,no,1,0,1.70613488071,-,-
2019_Apr_18,107,001,0,source,35,NURTURING,LF,target,left,aqua,imageability,conservative,no,2,1,1.82632490063,-,-
2019_Apr_18,107,001,0,source,36,ENTIRELY,HF,target,right,yellow,pleasantness,liberal,no,9,1,1.21300510244,-,-
2019_Apr_18,107,001,0,source,37,UNABATED,LF,target,left,aqua,imageability,liberal,no,7,0,2.4794039991,-,-
2019_Apr_18,107,001,0,source,38,MOVED,HF,target,left,aqua,imageability,liberal,no,2,1,1.18636337974,-,-
2019_Apr_18,107,001,0,source,39,TRIED,HF,target,left,aqua,imageability,liberal,no,2,1,0.69339124263,-,-
2019_Apr_18,107,001,0,source,40,MILES,HF,target,left,aqua,imageability,conservative,no,2,1,0.666574648222,-,-
2019_Apr_18,107,001,0,source,41,PYJAMA,LF,target,left,aqua,imageability,conservative,no,1,1,1.34650700183,-,-
2019_Apr_18,107,001,0,source,42,HOTEL,HF,target,left,aqua,imageability,liberal,no,1,1,1.4133211913,-,-
2019_Apr_18,107,001,0,source,43,NOTHING,HF,target,right,yellow,pleasantness,conservative,no,9,1,0.880028844666,-,-
2019_Apr_18,107,001,0,source,44,WANTED,HF,target,left,aqua,imageability,conservative,no,8,0,1.05308584404,-,-
2019_Apr_18,107,001,0,source,45,COOING,LF,target,right,yellow,pleasantness,liberal,no,9,1,0.786716275973,-,-
2019_Apr_18,107,001,0,source,46,KNUCKLE,LF,target,right,yellow,pleasantness,liberal,no,9,1,0.680096227097,-,-
2019_Apr_18,107,001,0,source,47,BRING,HF,target,left,aqua,imageability,liberal,no,9,0,1.22661026779,-,-
2019_Apr_18,107,001,0,recog,0,LEARN,HF,lure,-,-,-,liberal,no,None,-1,-1,-1,-1
2019_Apr_18,107,001,0,recog,1,RUGGER,LF,lure,-,-,-,conservative,no,m,1,4.34536501994,3,2
2019_Apr_18,107,001,0,recog,2,ALREADY,HF,target,right,yellow,pleasantness,conservative,no,z,1,5.62486719649,1,3
2019_Apr_18,107,001,0,recog,3,MAUSOLEUM,LF,lure,-,-,-,liberal,no,m,1,2.34614662681,1,4
2019_Apr_18,107,001,0,recog,4,UNABATED,LF,target,left,aqua,imageability,liberal,no,z,1,1.26657156872,3,7
2019_Apr_18,107,001,0,recog,5,ACROSS,HF,lure,-,-,-,liberal,no,m,1,1.78651427532,1,8
2019_Apr_18,107,001,0,recog,6,WOMAN,HF,target,right,yellow,pleasantness,conservative,no,z,1,1.33315772841,1,9
2019_Apr_18,107,001,0,recog,7,FORCE,HF,lure,-,-,-,conservative,no,m,1,1.2797793317,3,12
2019_Apr_18,107,001,0,recog,8,TOPICAL,LF,lure,-,-,-,liberal,no,m,1,1.1865811445,1,13
2019_Apr_18,107,001,0,recog,9,ANSWER,HF,lure,-,-,-,liberal,no,m,1,1.33318412414,1,14
2019_Apr_18,107,001,0,recog,10,SINCE,HF,lure,-,-,-,conservative,no,m,1,0.707099791254,3,17
2019_Apr_18,107,001,0,recog,11,DUGOUTS,LF,lure,-,-,-,conservative,yes,m,1,1.75968924895,3,20
2019_Apr_18,107,001,0,recog,12,ORIGINALS,LF,lure,-,-,-,liberal,no,m,1,2.75929477944,1,21
2019_Apr_18,107,001,0,recog,13,SYRINGE,LF,lure,-,-,-,liberal,no,m,1,0.880293535173,1,22
2019_Apr_18,107,001,0,recog,14,PUPPETS,LF,target,left,aqua,imageability,liberal,no,z,1,1.10669520338,3,25
2019_Apr_18,107,001,0,recog,15,HAWKED,LF,target,left,aqua,imageability,liberal,no,z,1,1.05331387382,3,28
2019_Apr_18,107,001,0,recog,16,YEARN,LF,lure,-,-,-,liberal,no,m,1,1.39980731118,1,29
2019_Apr_18,107,001,0,recog,17,JABBED,LF,lure,-,-,-,conservative,no,m,1,1.14661177821,3,32
2019_Apr_18,107,001,0,recog,18,GREATER,HF,lure,-,-,-,conservative,no,m,1,0.773500447628,3,35
2019_Apr_18,107,001,0,recog,19,ENTIRELY,HF,target,right,yellow,pleasantness,liberal,no,z,1,1.25321422994,3,38
2019_Apr_18,107,001,0,recog,20,NUCLEAR,HF,target,left,aqua,imageability,conservative,no,z,1,1.37319565028,1,39
2019_Apr_18,107,001,0,recog,21,WANTED,HF,target,left,aqua,imageability,conservative,no,z,1,1.71969348693,1,40
2019_Apr_18,107,001,0,recog,22,VIOLATING,LF,lure,-,-,-,liberal,no,m,1,1.09327554135,1,41
2019_Apr_18,107,001,0,recog,23,CONCERNED,HF,target,left,aqua,imageability,conservative,no,z,1,1.62640841379,1,42
2019_Apr_18,107,001,0,recog,24,SIESTA,LF,lure,-,-,-,conservative,no,m,1,2.09287080684,3,45
2019_Apr_18,107,001,0,recog,25,ECONOMIC,HF,target,right,yellow,pleasantness,conservative,no,z,1,1.17329492755,1,46
2019_Apr_18,107,001,0,recog,26,HOTEL,HF,target,left,aqua,imageability,liberal,no,z,1,1.03971420757,3,49
2019_Apr_18,107,001,0,recog,27,TAVERNS,LF,target,left,aqua,imageability,conservative,no,z,1,1.07970337066,1,50
2019_Apr_18,107,001,0,recog,28,QUESTION,HF,target,left,aqua,imageability,conservative,no,z,1,0.919760282786,1,51
2019_Apr_18,107,001,0,recog,29,TEDIUM,LF,target,right,yellow,pleasantness,conservative,no,m,0,0.680091827809,-1,50
2019_Apr_18,107,001,0,recog,30,BUILDING,HF,lure,-,-,-,liberal,no,m,1,1.18660387416,1,51
2019_Apr_18,107,001,0,recog,31,AMEND,LF,lure,-,-,-,liberal,no,m,1,1.01332397751,1,52
2019_Apr_18,107,001,0,recog,32,POINT,HF,target,right,yellow,pleasantness,liberal,no,z,1,1.13330429803,3,55
2019_Apr_18,107,001,0,recog,33,ALONE,HF,target,right,yellow,pleasantness,liberal,no,z,1,0.946681726896,3,58
2019_Apr_18,107,001,0,recog,34,VIGILANT,LF,lure,-,-,-,conservative,no,m,1,1.75984872314,3,61
2019_Apr_18,107,001,0,recog,35,NAPPY,LF,target,right,yellow,pleasantness,conservative,no,z,1,0.973054359804,1,62
2019_Apr_18,107,001,0,recog,36,ANVIL,LF,target,right,yellow,pleasantness,conservative,no,z,1,1.19923166432,1,63
2019_Apr_18,107,001,0,recog,37,PEACEABLY,LF,lure,-,-,-,liberal,no,m,1,0.773502280664,1,64
2019_Apr_18,107,001,0,recog,38,IRATE,LF,target,left,aqua,imageability,conservative,no,z,1,1.14659014838,1,65
2019_Apr_18,107,001,0,recog,39,NURTURING,LF,target,left,aqua,imageability,conservative,no,z,1,0.840117402337,1,66
2019_Apr_18,107,001,0,recog,40,VOICE,HF,lure,-,-,-,liberal,yes,z,0,1.42622796965,-1,65
2019_Apr_18,107,001,0,recog,41,PHRASED,LF,target,right,yellow,pleasantness,conservative,yes,z,1,1.5998271813,1,66
2019_Apr_18,107,001,0,recog,42,SOCIAL,HF,target,right,yellow,pleasantness,conservative,no,z,1,2.51940855969,1,67
2019_Apr_18,107,001,0,recog,43,ARDENTLY,LF,lure,-,-,-,liberal,no,m,1,0.920000777207,1,68
2019_Apr_18,107,001,0,recog,44,BUMBLING,LF,lure,-,-,-,liberal,no,m,1,3.14581147437,1,69
2019_Apr_18,107,001,0,recog,45,FAMILY,HF,target,right,yellow,pleasantness,conservative,no,z,1,0.920087296542,1,70
2019_Apr_18,107,001,0,recog,46,FREEDOM,HF,lure,-,-,-,liberal,no,m,1,0.733429897709,1,71
2019_Apr_18,107,001,0,recog,47,PASSED,HF,lure,-,-,-,conservative,no,m,1,0.86676755701,3,74
2019_Apr_18,107,001,0,recog,48,NOTHING,HF,target,right,yellow,pleasantness,conservative,no,z,1,1.82658445863,1,75
2019_Apr_18,107,001,0,recog,49,HEALTH,HF,target,left,aqua,imageability,conservative,no,m,0,0.77337836738,-1,74
2019_Apr_18,107,001,0,recog,50,UNION,HF,lure,-,-,-,liberal,no,m,1,0.946785110169,1,75
2019_Apr_18,107,001,0,recog,51,CESSATION,LF,target,right,yellow,pleasantness,liberal,no,z,1,0.760173903862,3,78
2019_Apr_18,107,001,0,recog,52,WRITE,HF,lure,-,-,-,conservative,no,m,1,0.786520141041,3,81
2019_Apr_18,107,001,0,recog,53,TIMES,HF,lure,-,-,-,liberal,no,m,1,1.50648491741,1,82
2019_Apr_18,107,001,0,recog,54,GROUND,HF,lure,-,-,-,conservative,no,m,1,0.600233382239,3,85
2019_Apr_18,107,001,0,recog,55,DOUBT,HF,lure,-,-,-,conservative,yes,z,0,0.986673089627,-3,82
2019_Apr_18,107,001,0,recog,56,MILES,HF,target,left,aqua,imageability,conservative,no,z,1,2.42610405636,1,83
2019_Apr_18,107,001,0,recog,57,MOVED,HF,target,left,aqua,imageability,liberal,no,z,1,0.946651298486,3,86
2019_Apr_18,107,001,0,recog,58,FLYWHEEL,LF,target,left,aqua,imageability,liberal,no,z,1,0.640129060451,3,89
2019_Apr_18,107,001,0,recog,59,KNUCKLE,LF,target,right,yellow,pleasantness,liberal,no,z,1,0.85339042143,3,92
2019_Apr_18,107,001,0,recog,60,OBESE,LF,lure,-,-,-,conservative,no,m,1,0.78678446494,3,95
2019_Apr_18,107,001,0,recog,61,FIELD,HF,target,right,yellow,pleasantness,liberal,no,z,1,0.893487733685,3,98
2019_Apr_18,107,001,0,recog,62,ELICIT,LF,target,right,yellow,pleasantness,liberal,no,z,1,0.813356532246,3,101
2019_Apr_18,107,001,0,recog,63,BIDDER,LF,target,right,yellow,pleasantness,liberal,no,z,1,0.720120217882,3,104
2019_Apr_18,107,001,0,recog,64,ERUDITE,LF,target,right,yellow,pleasantness,conservative,no,m,0,1.34632956388,-1,103
2019_Apr_18,107,001,0,recog,65,FEVERS,LF,target,right,yellow,pleasantness,liberal,no,m,0,0.893325693236,-3,100
2019_Apr_18,107,001,0,recog,66,KILOWATT,LF,lure,-,-,-,conservative,no,m,1,0.840179725587,3,103
2019_Apr_18,107,001,0,recog,67,RAGES,LF,target,left,aqua,imageability,conservative,no,z,1,0.693155880712,1,104
2019_Apr_18,107,001,0,recog,68,OBSCURELY,LF,target,left,aqua,imageability,liberal,no,z,1,0.839781223398,3,107
2019_Apr_18,107,001,0,recog,69,ADDED,HF,target,right,yellow,pleasantness,liberal,no,z,1,0.573566363629,3,110
2019_Apr_18,107,001,0,recog,70,TWOFOLD,LF,lure,-,-,-,conservative,no,m,1,0.679980379175,3,113
2019_Apr_18,107,001,0,recog,71,SUDDENLY,HF,lure,-,-,-,conservative,no,m,1,0.680178713751,3,116
2019_Apr_18,107,001,0,recog,72,SMUDGE,LF,lure,-,-,-,conservative,no,m,1,0.746792002387,3,119
2019_Apr_18,107,001,0,recog,73,SUNBURN,LF,lure,-,-,-,liberal,no,m,1,0.893386916664,1,120
2019_Apr_18,107,001,0,recog,74,DIMMED,LF,lure,-,-,-,conservative,no,m,1,0.693440001408,3,123
2019_Apr_18,107,001,0,recog,75,COOING,LF,target,right,yellow,pleasantness,liberal,no,z,1,0.813341501345,3,126
2019_Apr_18,107,001,0,recog,76,HAVING,HF,lure,-,-,-,conservative,no,m,1,1.06663565168,3,129
2019_Apr_18,107,001,0,recog,77,APART,HF,lure,-,-,-,conservative,no,m,1,0.65356998571,3,132
2019_Apr_18,107,001,0,recog,78,REPORT,HF,lure,-,-,-,liberal,no,m,1,0.653549455698,1,133
2019_Apr_18,107,001,0,recog,79,ODOURS,LF,lure,-,-,-,conservative,no,m,1,0.600143196831,3,136
2019_Apr_18,107,001,0,recog,80,THOUSAND,HF,lure,-,-,-,liberal,no,m,1,0.533787266554,1,137
2019_Apr_18,107,001,0,recog,81,EAVES,LF,lure,-,-,-,conservative,no,m,1,0.586792090373,3,140
2019_Apr_18,107,001,0,recog,82,EFFECT,HF,lure,-,-,-,conservative,no,m,1,0.680184579468,3,143
2019_Apr_18,107,001,0,recog,83,STRAIGHT,HF,lure,-,-,-,liberal,no,m,1,0.746748376112,1,144
2019_Apr_18,107,001,0,recog,84,HAMLETS,LF,target,left,aqua,imageability,liberal,no,z,1,1.05357819771,3,147
2019_Apr_18,107,001,0,recog,85,HOODLUMS,LF,target,right,yellow,pleasantness,conservative,no,z,1,1.07996659474,1,148
2019_Apr_18,107,001,0,recog,86,ENMESHED,LF,lure,-,-,-,liberal,no,m,1,0.80005785064,1,149
2019_Apr_18,107,001,0,recog,87,VALUE,HF,lure,-,-,-,liberal,no,m,1,0.813455149624,1,150
2019_Apr_18,107,001,0,recog,88,OPTIC,LF,target,left,aqua,imageability,conservative,no,z,1,0.680179813573,1,151
2019_Apr_18,107,001,0,recog,89,ENOUGH,HF,target,right,yellow,pleasantness,liberal,no,z,1,0.613548927783,3,154
2019_Apr_18,107,001,0,recog,90,PYJAMA,LF,target,left,aqua,imageability,conservative,no,z,1,1.03997523201,1,155
2019_Apr_18,107,001,0,recog,91,CARRIED,HF,target,left,aqua,imageability,liberal,no,m,0,0.840061311413,-3,152
2019_Apr_18,107,001,0,recog,92,BRING,HF,target,left,aqua,imageability,liberal,no,z,1,0.640219979074,3,155
2019_Apr_18,107,001,0,recog,93,SUMMER,HF,target,left,aqua,imageability,liberal,no,z,1,0.626792618287,3,158
2019_Apr_18,107,001,0,recog,94,TALKING,HF,lure,-,-,-,conservative,no,m,1,0.786765401358,3,161
2019_Apr_18,107,001,0,recog,95,TRIED,HF,target,left,aqua,imageability,liberal,no,z,1,0.559975129357,3,164
2019_Apr_18,107,001,1,source,0,FLECKED,LF,target,left,aqua,imageability,conservative,no,2,1,2.0793012024,-,-
2019_Apr_18,107,001,1,source,1,MAJOR,HF,target,left,aqua,imageability,liberal,no,1,1,2.2128335302,-,-
2019_Apr_18,107,001,1,source,2,YOUNG,HF,target,left,aqua,imageability,conservative,yes,2,1,1.15992145804,-,-
2019_Apr_18,107,001,1,source,3,FUSELAGE,LF,target,right,yellow,pleasantness,conservative,no,2,0,1.5598273866,-,-
2019_Apr_18,107,001,1,source,4,EVENING,HF,target,right,yellow,pleasantness,liberal,no,2,0,0.813150498916,-,-
2019_Apr_18,107,001,1,source,5,LANGUAGE,HF,target,left,aqua,imageability,liberal,no,1,1,2.59913026072,-,-
2019_Apr_18,107,001,1,source,6,TOGETHER,HF,target,left,aqua,imageability,liberal,no,8,0,1.06635739671,-,-
2019_Apr_18,107,001,1,source,7,LOOKED,HF,target,left,aqua,imageability,conservative,no,8,0,0.653512794963,-,-
2019_Apr_18,107,001,1,source,8,AVUNCULAR,LF,target,right,yellow,pleasantness,liberal,no,9,1,0.800017523831,-,-
2019_Apr_18,107,001,1,source,9,CHAIR,HF,target,right,yellow,pleasantness,liberal,no,8,1,0.760103148644,-,-
2019_Apr_18,107,001,1,source,10,LEMURS,LF,target,left,aqua,imageability,liberal,yes,8,0,0.626808015796,-,-
2019_Apr_18,107,001,1,source,11,GEYSER,LF,target,left,aqua,imageability,conservative,no,1,1,1.78653003944,-,-
2019_Apr_18,107,001,1,source,12,DIETING,LF,target,right,yellow,pleasantness,liberal,no,9,1,0.933402475479,-,-
2019_Apr_18,107,001,1,source,13,VAGABOND,LF,target,right,yellow,pleasantness,conservative,no,9,1,0.720083923754,-,-
2019_Apr_18,107,001,1,source,14,POUNDS,HF,target,right,yellow,pleasantness,conservative,yes,8,1,0.626814248121,-,-
2019_Apr_18,107,001,1,source,15,BLOOD,HF,target,right,yellow,pleasantness,liberal,no,9,1,2.66593931769,-,-
2019_Apr_18,107,001,1,source,16,BAWLED,LF,target,left,aqua,imageability,conservative,no,1,1,0.999990468209,-,-
2019_Apr_18,107,001,1,source,17,REACHED,HF,target,left,aqua,imageability,liberal,no,2,1,0.920033771869,-,-
2019_Apr_18,107,001,1,source,18,VELVETY,LF,target,right,yellow,pleasantness,liberal,no,8,1,0.786513908716,-,-
2019_Apr_18,107,001,1,source,19,MOUTH,HF,target,left,aqua,imageability,liberal,no,2,1,1.079740398,-,-
2019_Apr_18,107,001,1,source,20,HIGHER,HF,target,right,yellow,pleasantness,conservative,no,9,1,0.693514056093,-,-
2019_Apr_18,107,001,1,source,21,HUSBAND,HF,target,right,yellow,pleasantness,conservative,no,9,1,0.666586746265,-,-
2019_Apr_18,107,001,1,source,22,SLACKEN,LF,target,left,aqua,imageability,conservative,no,1,1,1.01338556755,-,-
2019_Apr_18,107,001,1,source,23,UTTERANCE,LF,target,left,aqua,imageability,conservative,no,9,0,0.706874694341,-,-
2019_Apr_18,107,001,1,source,24,AGATE,LF,target,left,aqua,imageability,liberal,no,9,0,0.639867669411,-,-
2019_Apr_18,107,001,1,source,25,WESTERN,HF,target,right,yellow,pleasantness,liberal,no,9,1,0.613590721021,-,-
2019_Apr_18,107,001,1,source,26,MAYBE,HF,target,left,aqua,imageability,conservative,no,8,0,0.813203656982,-,-
2019_Apr_18,107,001,1,source,27,WALKED,HF,target,left,aqua,imageability,conservative,no,1,1,1.01334230788,-,-
2019_Apr_18,107,001,1,source,28,SPUDS,LF,target,right,yellow,pleasantness,liberal,no,1,0,0.773422360262,-,-
2019_Apr_18,107,001,1,source,29,AILMENT,LF,target,left,aqua,imageability,liberal,no,9,0,0.986709017148,-,-
2019_Apr_18,107,001,1,source,30,LIGHT,HF,target,right,yellow,pleasantness,liberal,no,8,1,0.933414573522,-,-
2019_Apr_18,107,001,1,source,31,THING,HF,target,left,aqua,imageability,conservative,yes,8,0,0.507008066095,-,-
2019_Apr_18,107,001,1,source,32,SECOND,HF,target,right,yellow,pleasantness,liberal,no,1,0,0.840019151568,-,-
2019_Apr_18,107,001,1,source,33,WICKEDLY,LF,target,right,yellow,pleasantness,liberal,no,9,1,1.43957650985,-,-
2019_Apr_18,107,001,1,source,34,VAULTED,LF,target,left,aqua,imageability,liberal,no,8,0,1.23969851678,-,-
2019_Apr_18,107,001,1,source,35,BEGAN,HF,target,left,aqua,imageability,conservative,no,2,1,0.599910401163,-,-
2019_Apr_18,107,001,1,source,36,NUMBER,HF,target,right,yellow,pleasantness,conservative,no,7,1,3.55872316526,-,-
2019_Apr_18,107,001,1,source,37,FITFUL,LF,target,right,yellow,pleasantness,conservative,no,3,0,0.586582390969,-,-
2019_Apr_18,107,001,1,source,38,ENHANCES,LF,target,left,aqua,imageability,liberal,no,7,0,2.77259859355,-,-
2019_Apr_18,107,001,1,source,39,STAFF,HF,target,left,aqua,imageability,liberal,no,1,1,1.29296033235,-,-
2019_Apr_18,107,001,1,source,40,LEOPARDS,LF,target,right,yellow,pleasantness,conservative,no,7,1,0.800039153665,-,-
2019_Apr_18,107,001,1,source,41,NECESSARY,HF,target,right,yellow,pleasantness,conservative,no,9,1,0.680118590145,-,-
2019_Apr_18,107,001,1,source,42,DEXTERITY,LF,target,left,aqua,imageability,conservative,no,9,0,1.38650899618,-,-
2019_Apr_18,107,001,1,source,43,RUINOUS,LF,target,right,yellow,pleasantness,liberal,no,9,1,0.840033449254,-,-
2019_Apr_18,107,001,1,source,44,CUDDLE,LF,target,left,aqua,imageability,liberal,no,1,1,1.05305944831,-,-
2019_Apr_18,107,001,1,source,45,BEYOND,HF,target,right,yellow,pleasantness,conservative,no,8,1,1.1999890751,-,-
2019_Apr_18,107,001,1,source,46,BAUXITE,LF,target,right,yellow,pleasantness,conservative,no,2,0,0.64016095529,-,-
2019_Apr_18,107,001,1,source,47,EXHALED,LF,target,right,yellow,pleasantness,conservative,no,9,1,0.773417594366,-,-
2019_Apr_18,107,001,1,recog,0,MAJOR,HF,target,left,aqua,imageability,liberal,no,m,0,2.11955615581,-3,161
2019_Apr_18,107,001,1,recog,1,RAKING,LF,lure,-,-,-,liberal,no,m,1,2.54607154562,1,162
2019_Apr_18,107,001,1,recog,2,AGATE,LF,target,left,aqua,imageability,liberal,no,z,1,1.69306459548,3,165
2019_Apr_18,107,001,1,recog,3,MAMMAL,LF,lure,-,-,-,liberal,no,m,1,1.31984731537,1,166
2019_Apr_18,107,001,1,recog,4,DEXTERITY,LF,target,left,aqua,imageability,conservative,no,z,1,1.16001384309,1,167
2019_Apr_18,107,001,1,recog,5,WALKED,HF,target,left,aqua,imageability,conservative,no,z,1,1.16003254007,1,168
2019_Apr_18,107,001,1,recog,6,UTTERANCE,LF,target,left,aqua,imageability,conservative,no,z,1,0.959735881401,1,169
2019_Apr_18,107,001,1,recog,7,FRIEND,HF,lure,-,-,-,liberal,no,m,1,1.30630960577,1,170
2019_Apr_18,107,001,1,recog,8,BLOOD,HF,target,right,yellow,pleasantness,liberal,no,z,1,0.839776090895,3,173
2019_Apr_18,107,001,1,recog,9,SEVEN,HF,lure,-,-,-,conservative,no,m,1,3.07915089339,3,176
2019_Apr_18,107,001,1,recog,10,SCYTHE,LF,lure,-,-,-,conservative,no,m,1,1.15998011522,3,179
2019_Apr_18,107,001,1,recog,11,CUDDLE,LF,target,left,aqua,imageability,liberal,no,z,1,0.786732773304,3,182
2019_Apr_18,107,001,1,recog,12,SUSPEND,LF,lure,-,-,-,conservative,no,m,1,1.78639916062,3,185
2019_Apr_18,107,001,1,recog,13,YOUNG,HF,target,left,aqua,imageability,conservative,no,z,1,0.893144222598,1,186
2019_Apr_18,107,001,1,recog,14,BETTER,HF,lure,-,-,-,conservative,no,z,0,1.42648276176,-3,183
2019_Apr_18,107,001,1,recog,15,AILMENT,LF,target,left,aqua,imageability,liberal,no,m,0,1.41319984427,-3,180
2019_Apr_18,107,001,1,recog,16,BEGAN,HF,target,left,aqua,imageability,conservative,no,z,1,0.946507221798,1,181
2019_Apr_18,107,001,1,recog,17,SPUDS,LF,target,right,yellow,pleasantness,liberal,no,m,0,1.26654150692,-3,178
2019_Apr_18,107,001,1,recog,18,PUBLIC,HF,lure,-,-,-,liberal,no,m,1,1.86629096745,1,179
2019_Apr_18,107,001,1,recog,19,COLDEST,LF,lure,-,-,-,conservative,no,m,1,0.786770900468,3,182
2019_Apr_18,107,001,1,recog,20,SOYBEAN,LF,lure,-,-,-,liberal,no,m,1,0.826732568004,1,183
2019_Apr_18,107,001,1,recog,21,SIMILAR,HF,lure,-,-,-,liberal,no,z,0,1.11973432699,-1,182
2019_Apr_18,107,001,1,recog,22,FITFUL,LF,target,right,yellow,pleasantness,conservative,no,z,1,1.77356240427,1,183
2019_Apr_18,107,001,1,recog,23,ENHANCES,LF,target,left,aqua,imageability,liberal,no,z,1,1.9329695122,3,186
2019_Apr_18,107,001,1,recog,24,OBVIOUSLY,HF,lure,-,-,-,liberal,no,m,1,1.09332356691,1,187
2019_Apr_18,107,001,1,recog,25,SECOND,HF,target,right,yellow,pleasantness,liberal,no,z,1,1.08002635174,3,190
2019_Apr_18,107,001,1,recog,26,THING,HF,target,left,aqua,imageability,conservative,no,z,1,1.02669818023,1,191
2019_Apr_18,107,001,1,recog,27,CHAIR,HF,target,right,yellow,pleasantness,liberal,no,z,1,1.01329171607,3,194
2019_Apr_18,107,001,1,recog,28,WICKEDLY,LF,target,right,yellow,pleasantness,liberal,no,z,1,2.05291573823,3,197
2019_Apr_18,107,001,1,recog,29,PISTONS,LF,lure,-,-,-,conservative,no,m,1,0.826761529984,3,200
2019_Apr_18,107,001,1,recog,30,LOOKED,HF,target,left,aqua,imageability,conservative,no,z,1,1.05339489404,1,201
2019_Apr_18,107,001,1,recog,31,FUDGE,LF,lure,-,-,-,liberal,no,m,1,0.880280703916,1,202
2019_Apr_18,107,001,1,recog,32,MOUTH,HF,target,left,aqua,imageability,liberal,no,z,1,0.72024633081,3,205
2019_Apr_18,107,001,1,recog,33,EARLIER,HF,lure,-,-,-,liberal,no,z,0,0.840187790949,-1,204
2019_Apr_18,107,001,1,recog,34,RADIAL,LF,lure,-,-,-,liberal,no,z,0,1.41312945565,-1,203
2019_Apr_18,107,001,1,recog,35,RUINOUS,LF,target,right,yellow,pleasantness,liberal,no,z,1,0.733450794328,3,206
2019_Apr_18,107,001,1,recog,36,VELVETY,LF,target,right,yellow,pleasantness,liberal,yes,m,0,1.02657023427,-3,203
2019_Apr_18,107,001,1,recog,37,EVIDENCE,HF,lure,-,-,-,conservative,no,z,0,3.95883329411,-3,200
2019_Apr_18,107,001,1,recog,38,OTHERS,HF,lure,-,-,-,conservative,no,z,0,0.84003821515,-3,197
2019_Apr_18,107,001,1,recog,39,LEMURS,LF,target,left,aqua,imageability,liberal,no,m,0,1.22674187983,-3,194
2019_Apr_18,107,001,1,recog,40,SOVIET,HF,lure,-,-,-,conservative,no,m,1,1.6263790852,3,197
2019_Apr_18,107,001,1,recog,41,PLODDED,LF,lure,-,-,-,conservative,no,m,1,0.600173625241,3,200
2019_Apr_18,107,001,1,recog,42,TOGETHER,HF,target,left,aqua,imageability,liberal,no,z,1,0.747608070348,3,203
2019_Apr_18,107,001,1,recog,43,BAUXITE,LF,target,right,yellow,pleasantness,conservative,no,z,1,1.42651209034,1,204
2019_Apr_18,107,001,1,recog,44,POUNDS,HF,target,right,yellow,pleasantness,conservative,no,z,1,0.653529292294,1,205
2019_Apr_18,107,001,1,recog,45,LANGUAGE,HF,target,left,aqua,imageability,liberal,no,z,1,0.760102782036,3,208
2019_Apr_18,107,001,1,recog,46,JELLIES,LF,lure,-,-,-,conservative,no,m,1,1.06663051918,3,211
2019_Apr_18,107,001,1,recog,47,AVUNCULAR,LF,target,right,yellow,pleasantness,liberal,no,z,1,1.10670400196,3,214
2019_Apr_18,107,001,1,recog,48,FEELING,HF,lure,-,-,-,liberal,no,z,0,1.21328189099,-1,213
2019_Apr_18,107,001,1,recog,49,AFRAID,HF,lure,-,-,-,conservative,no,z,0,1.3732169135,-3,210
2019_Apr_18,107,001,1,recog,50,EXCEPT,HF,lure,-,-,-,liberal,no,z,0,0.73359707066,-1,209
2019_Apr_18,107,001,1,recog,51,VOLITION,LF,lure,-,-,-,liberal,no,m,1,0.706835833962,1,210
2019_Apr_18,107,001,1,recog,52,HIGHER,HF,target,right,yellow,pleasantness,conservative,no,z,1,0.880026645022,1,211
2019_Apr_18,107,001,1,recog,53,VINEYARDS,LF,lure,-,-,-,conservative,no,m,1,0.706540348438,3,214
2019_Apr_18,107,001,1,recog,54,FURTHER,HF,lure,-,-,-,liberal,no,z,0,0.73342293217,-1,213
2019_Apr_18,107,001,1,recog,55,MUMBLES,LF,lure,-,-,-,liberal,no,m,1,0.666834572833,1,214
2019_Apr_18,107,001,1,recog,56,HUSBAND,HF,target,right,yellow,pleasantness,conservative,no,z,1,1.02642065847,1,215
2019_Apr_18,107,001,1,recog,57,LIGHT,HF,target,right,yellow,pleasantness,liberal,yes,z,1,1.18660644041,3,218
2019_Apr_18,107,001,1,recog,58,PANACHE,LF,lure,-,-,-,liberal,no,m,1,0.840072676241,1,219
2019_Apr_18,107,001,1,recog,59,UNLESS,HF,lure,-,-,-,liberal,no,m,1,1.66647346459,1,220
2019_Apr_18,107,001,1,recog,60,GEYSER,LF,target,left,aqua,imageability,conservative,no,z,1,0.720119484667,1,221
2019_Apr_18,107,001,1,recog,61,EVENING,HF,target,right,yellow,pleasantness,liberal,no,z,1,0.653211810329,3,224
2019_Apr_18,107,001,1,recog,62,COUNCIL,HF,lure,-,-,-,liberal,no,m,1,0.720164577371,1,225
2019_Apr_18,107,001,1,recog,63,LEOPARDS,LF,target,right,yellow,pleasantness,conservative,no,z,1,0.773374334699,1,226
2019_Apr_18,107,001,1,recog,64,MAYBE,HF,target,left,aqua,imageability,conservative,no,z,1,0.866696801791,1,227
2019_Apr_18,107,001,1,recog,65,REACHED,HF,target,left,aqua,imageability,liberal,no,z,1,0.706787808399,3,230
2019_Apr_18,107,001,1,recog,66,ATROCITY,LF,lure,-,-,-,conservative,no,m,1,0.879820978299,3,233
2019_Apr_18,107,001,1,recog,67,MYRIADS,LF,lure,-,-,-,liberal,no,z,0,0.599910034557,-1,232
2019_Apr_18,107,001,1,recog,68,NECESSARY,HF,target,right,yellow,pleasantness,conservative,no,m,0,1.07976752695,-1,231
2019_Apr_18,107,001,1,recog,69,POWER,HF,lure,-,-,-,conservative,no,m,1,1.73305669143,3,234
2019_Apr_18,107,001,1,recog,70,FUSELAGE,LF,target,right,yellow,pleasantness,conservative,no,m,0,1.21298933832,-1,233
2019_Apr_18,107,001,1,recog,71,STUDENT,HF,lure,-,-,-,conservative,no,z,0,1.34762882032,-3,230
2019_Apr_18,107,001,1,recog,72,SLACKEN,LF,target,left,aqua,imageability,conservative,no,z,1,2.13289553084,1,231
2019_Apr_18,107,001,1,recog,73,ANEMONES,LF,lure,-,-,-,conservative,no,m,1,1.14661141161,3,234
2019_Apr_18,107,001,1,recog,74,SYMBOLIZE,LF,lure,-,-,-,liberal,yes,z,0,1.14659638071,-1,233
2019_Apr_18,107,001,1,recog,75,FLECKED,LF,target,left,aqua,imageability,conservative,no,z,1,1.69278780693,1,234
2019_Apr_18,107,001,1,recog,76,NUMBER,HF,target,right,yellow,pleasantness,conservative,no,z,1,0.866700101257,1,235
2019_Apr_18,107,001,1,recog,77,WESTERN,HF,target,right,yellow,pleasantness,liberal,no,z,1,1.59953242899,3,238
2019_Apr_18,107,001,1,recog,78,HUMAN,HF,lure,-,-,-,conservative,yes,m,1,1.41327463216,3,241
2019_Apr_18,107,001,1,recog,79,TAKEN,HF,lure,-,-,-,conservative,no,m,1,0.906433005806,3,244
2019_Apr_18,107,001,1,recog,80,BECAME,HF,lure,-,-,-,conservative,no,z,0,0.88006293915,-3,241
2019_Apr_18,107,001,1,recog,81,BEYOND,HF,target,right,yellow,pleasantness,conservative,no,m,0,2.17293271949,-1,240
2019_Apr_18,107,001,1,recog,82,VAULTED,LF,target,left,aqua,imageability,liberal,no,z,1,1.14494554781,3,243
2019_Apr_18,107,001,1,recog,83,RUNNING,HF,lure,-,-,-,liberal,no,m,1,1.15993978841,1,244
2019_Apr_18,107,001,1,recog,84,REFECTORY,LF,lure,-,-,-,conservative,no,m,1,0.920046236519,3,247
2019_Apr_18,107,001,1,recog,85,FLOOR,HF,lure,-,-,-,conservative,no,m,1,0.733174005779,3,250
2019_Apr_18,107,001,1,recog,86,THEORY,HF,lure,-,-,-,liberal,no,m,1,0.73352118294,1,251
2019_Apr_18,107,001,1,recog,87,FARAWAY,LF,lure,-,-,-,liberal,no,m,1,0.586859546125,1,252
2019_Apr_18,107,001,1,recog,88,TULIPS,LF,lure,-,-,-,conservative,no,m,1,0.586860645947,3,255
2019_Apr_18,107,001,1,recog,89,REIGNING,LF,lure,-,-,-,conservative,no,m,1,0.546993929715,3,258
2019_Apr_18,107,001,1,recog,90,DIETING,LF,target,right,yellow,pleasantness,liberal,no,z,1,0.786815993172,3,261
2019_Apr_18,107,001,1,recog,91,HURDLES,LF,lure,-,-,-,liberal,no,m,1,0.840062411236,1,262
2019_Apr_18,107,001,1,recog,92,BAWLED,LF,target,left,aqua,imageability,conservative,no,z,1,0.800203760365,1,263
2019_Apr_18,107,001,1,recog,93,EXHALED,LF,target,right,yellow,pleasantness,conservative,no,z,1,0.826997991725,1,264
2019_Apr_18,107,001,1,recog,94,VAGABOND,LF,target,right,yellow,pleasantness,conservative,no,z,1,0.533531008016,1,265
2019_Apr_18,107,001,1,recog,95,STAFF,HF,target,left,aqua,imageability,liberal,no,z,1,0.653514994607,3,268
2019_Apr_18,107,001,2,source,0,OUTSIDE,HF,target,left,aqua,imageability,liberal,yes,2,1,1.25298363391,-,-
2019_Apr_18,107,001,2,source,1,REQUIRED,HF,target,right,yellow,pleasantness,liberal,no,2,0,1.51973154077,-,-
2019_Apr_18,107,001,2,source,2,THWART,LF,target,right,yellow,pleasantness,conservative,no,8,1,0.919996744527,-,-
2019_Apr_18,107,001,2,source,3,HISTORY,HF,target,left,aqua,imageability,conservative,no,1,1,1.47989122027,-,-
2019_Apr_18,107,001,2,source,4,JUBILANT,LF,target,left,aqua,imageability,liberal,no,8,0,2.77237862914,-,-
2019_Apr_18,107,001,2,source,5,TROUBLE,HF,target,left,aqua,imageability,conservative,no,1,1,2.59915079074,-,-
2019_Apr_18,107,001,2,source,6,AQUARIUM,LF,target,right,yellow,pleasantness,liberal,no,9,1,0.800090478694,-,-
2019_Apr_18,107,001,2,source,7,APTLY,LF,target,right,yellow,pleasantness,liberal,no,8,1,0.680133254439,-,-
2019_Apr_18,107,001,2,source,8,GOADED,LF,target,right,yellow,pleasantness,liberal,no,2,0,0.733383705183,-,-
2019_Apr_18,107,001,2,source,9,NAIVELY,LF,target,left,aqua,imageability,liberal,no,8,0,0.60015016237,-,-
2019_Apr_18,107,001,2,source,10,CERTAIN,HF,target,right,yellow,pleasantness,liberal,no,2,0,1.09351090327,-,-
2019_Apr_18,107,001,2,source,11,KIBBUTZIM,LF,target,left,aqua,imageability,conservative,no,9,0,1.81300532241,-,-
2019_Apr_18,107,001,2,source,12,UNOPENED,LF,target,left,aqua,imageability,liberal,no,9,0,1.34633689602,-,-
2019_Apr_18,107,001,2,source,13,OFFER,HF,target,left,aqua,imageability,liberal,yes,8,0,0.520250656777,-,-
2019_Apr_18,107,001,2,source,14,INDEED,HF,target,left,aqua,imageability,liberal,no,1,1,0.693480694823,-,-
2019_Apr_18,107,001,2,source,15,CAUGHT,HF,target,right,yellow,pleasantness,conservative,no,9,1,0.653275966615,-,-
2019_Apr_18,107,001,2,source,16,TAILED,LF,target,right,yellow,pleasantness,conservative,no,8,1,0.546846186953,-,-
2019_Apr_18,107,001,2,source,17,WEEKS,HF,target,left,aqua,imageability,conservative,no,2,1,0.666761251363,-,-
2019_Apr_18,107,001,2,source,18,RETURN,HF,target,right,yellow,pleasantness,liberal,no,8,1,1.82618815609,-,-
2019_Apr_18,107,001,2,source,19,CASES,HF,target,right,yellow,pleasantness,conservative,no,9,1,0.840128400558,-,-
2019_Apr_18,107,001,2,source,20,WONDROUS,LF,target,left,aqua,imageability,conservative,no,1,1,2.59931833029,-,-
2019_Apr_18,107,001,2,source,21,YEOMAN,LF,target,left,aqua,imageability,liberal,no,8,0,0.693471163033,-,-
2019_Apr_18,107,001,2,source,22,MELODIC,LF,target,right,yellow,pleasantness,conservative,no,9,1,0.826853915037,-,-
2019_Apr_18,107,001,2,source,23,GIRLS,HF,target,right,yellow,pleasantness,conservative,no,9,1,0.626782353282,-,-
2019_Apr_18,107,001,2,source,24,IDLING,LF,target,right,yellow,pleasantness,liberal,no,9,1,0.746768172909,-,-
2019_Apr_18,107,001,2,source,25,DIABETIC,LF,target,left,aqua,imageability,liberal,no,8,0,1.15991339268,-,-
2019_Apr_18,107,001,2,source,26,DAUGHTER,HF,target,right,yellow,pleasantness,liberal,no,9,1,1.07999775636,-,-
2019_Apr_18,107,001,2,source,27,UNJUSTLY,LF,target,right,yellow,pleasantness,liberal,no,9,1,1.43982506964,-,-
2019_Apr_18,107,001,2,source,28,TABLE,HF,target,left,aqua,imageability,conservative,no,8,0,1.82642755069,-,-
2019_Apr_18,107,001,2,source,29,SOUND,HF,target,right,yellow,pleasantness,conservative,no,9,1,0.98664926015,-,-
2019_Apr_18,107,001,2,source,30,PLEASE,HF,target,left,aqua,imageability,conservative,no,1,1,1.22662493209,-,-
2019_Apr_18,107,001,2,source,31,LIKELY,HF,target,left,aqua,imageability,liberal,no,1,1,0.733196735435,-,-
2019_Apr_18,107,001,2,source,32,DICHOTOMY,LF,target,right,yellow,pleasantness,conservative,no,8,1,0.720152479329,-,-
2019_Apr_18,107,001,2,source,33,AUSPICES,LF,target,left,aqua,imageability,liberal,no,8,0,0.853436980563,-,-
2019_Apr_18,107,001,2,source,34,COBALT,LF,target,left,aqua,imageability,conservative,no,8,0,0.946405671562,-,-
2019_Apr_18,107,001,2,source,35,WEIRDLY,LF,target,left,aqua,imageability,conservative,no,1,1,1.15961827376,-,-
2019_Apr_18,107,001,2,source,36,REREAD,LF,target,right,yellow,pleasantness,conservative,yes,8,1,0.613549294391,-,-
2019_Apr_18,107,001,2,source,37,WOBBLE,LF,target,right,yellow,pleasantness,conservative,no,8,1,0.826736600685,-,-
2019_Apr_18,107,001,2,source,38,KETCHUP,LF,target,right,yellow,pleasantness,liberal,no,9,1,0.680092194416,-,-
2019_Apr_18,107,001,2,source,39,EITHER,HF,target,right,yellow,pleasantness,conservative,no,8,1,1.61295905656,-,-
2019_Apr_18,107,001,2,source,40,HIMSELF,HF,target,right,yellow,pleasantness,conservative,no,9,1,0.759855322076,-,-
2019_Apr_18,107,001,2,source,41,HILLSIDES,LF,target,left,aqua,imageability,conservative,no,2,1,1.01326458712,-,-
2019_Apr_18,107,001,2,source,42,ALLOWED,HF,target,left,aqua,imageability,liberal,no,1,1,1.39984433852,-,-
2019_Apr_18,107,001,2,source,43,LATER,HF,target,right,yellow,pleasantness,liberal,yes,8,1,0.546972299882,-,-
2019_Apr_18,107,001,2,source,44,FOLLOWED,HF,target,left,aqua,imageability,conservative,no,8,0,0.746760840763,-,-
2019_Apr_18,107,001,2,source,45,GARDEN,HF,target,right,yellow,pleasantness,liberal,no,9,1,0.81396326741,-,-
2019_Apr_18,107,001,2,source,46,FIGURE,HF,target,left,aqua,imageability,liberal,no,9,0,0.626913232105,-,-
2019_Apr_18,107,001,2,source,47,ACORNS,LF,target,left,aqua,imageability,conservative,no,8,0,1.97302466461,-,-
2019_Apr_18,107,001,2,recog,0,NEPHEWS,LF,lure,-,-,-,conservative,no,m,1,1.21303663067,3,271
2019_Apr_18,107,001,2,recog,1,CAUGHT,HF,target,right,yellow,pleasantness,conservative,no,z,1,1.25320323172,1,272
2019_Apr_18,107,001,2,recog,2,YOGHURT,LF,lure,-,-,-,liberal,no,m,1,0.706836200569,1,273
2019_Apr_18,107,001,2,recog,3,INCLUDING,HF,lure,-,-,-,liberal,no,m,1,0.986640828181,1,274
2019_Apr_18,107,001,2,recog,4,COILING,LF,lure,-,-,-,conservative,no,m,1,0.826758597126,3,277
2019_Apr_18,107,001,2,recog,5,REQUIRED,HF,target,right,yellow,pleasantness,liberal,no,z,1,1.30652077161,3,280
2019_Apr_18,107,001,2,recog,6,UNSAVOURY,LF,lure,-,-,-,liberal,no,m,1,0.666558884106,1,281
2019_Apr_18,107,001,2,recog,7,OUTSIDE,HF,target,left,aqua,imageability,liberal,no,m,0,1.55979805801,-3,278
2019_Apr_18,107,001,2,recog,8,TABLE,HF,target,left,aqua,imageability,conservative,no,z,1,1.00005645753,1,279
2019_Apr_18,107,001,2,recog,9,COBALT,LF,target,left,aqua,imageability,conservative,no,z,1,1.27997070074,1,280
2019_Apr_18,107,001,2,recog,10,GALACTIC,LF,lure,-,-,-,liberal,no,m,1,0.813264880409,1,281
2019_Apr_18,107,001,2,recog,11,BASIC,HF,lure,-,-,-,liberal,no,m,1,0.706828501815,1,282
2019_Apr_18,107,001,2,recog,12,CAGED,LF,lure,-,-,-,liberal,no,m,1,0.560148534634,1,283
2019_Apr_18,107,001,2,recog,13,HILLSIDES,LF,target,left,aqua,imageability,conservative,no,z,1,0.840147464141,1,284
2019_Apr_18,107,001,2,recog,14,DICHOTOMY,LF,target,right,yellow,pleasantness,conservative,no,z,1,1.10667137391,1,285
2019_Apr_18,107,001,2,recog,15,IDEAS,HF,lure,-,-,-,conservative,no,m,1,0.666861701777,3,288
2019_Apr_18,107,001,2,recog,16,YEOMAN,LF,target,left,aqua,imageability,liberal,no,z,1,1.15992549072,3,291
2019_Apr_18,107,001,2,recog,17,WAITING,HF,lure,-,-,-,liberal,no,m,1,1.30644231763,1,292
2019_Apr_18,107,001,2,recog,18,REREAD,LF,target,right,yellow,pleasantness,conservative,no,z,1,0.828582102082,1,293
2019_Apr_18,107,001,2,recog,19,SOUND,HF,target,right,yellow,pleasantness,conservative,no,z,1,0.973122915379,1,294
2019_Apr_18,107,001,2,recog,20,INDEED,HF,target,left,aqua,imageability,liberal,no,z,1,0.786758802426,3,297
2019_Apr_18,107,001,2,recog,21,GOADED,LF,target,right,yellow,pleasantness,liberal,no,z,1,0.826698840127,3,300
2019_Apr_18,107,001,2,recog,22,WEEKS,HF,target,left,aqua,imageability,conservative,no,z,1,0.573249248272,1,301
2019_Apr_18,107,001,2,recog,23,MOGUL,LF,lure,-,-,-,conservative,no,m,1,0.599909301342,3,304
2019_Apr_18,107,001,2,recog,24,HISTORY,HF,target,left,aqua,imageability,conservative,no,z,1,0.533492514245,1,305
2019_Apr_18,107,001,2,recog,25,SOLEMNITY,LF,lure,-,-,-,liberal,no,m,1,0.613349126778,1,306
2019_Apr_18,107,001,2,recog,26,ROADWAY,LF,lure,-,-,-,liberal,no,m,1,0.680226006099,1,307
2019_Apr_18,107,001,2,recog,27,VANDALS,LF,lure,-,-,-,liberal,no,m,1,0.53348481549,1,308
2019_Apr_18,107,001,2,recog,28,TROUBLE,HF,target,left,aqua,imageability,conservative,no,z,1,0.706649597429,1,309
2019_Apr_18,107,001,2,recog,29,MANDARIN,LF,lure,-,-,-,conservative,no,m,1,0.640169387259,3,312
2019_Apr_18,107,001,2,recog,30,FELLS,LF,lure,-,-,-,liberal,no,m,1,0.600247679925,1,313
2019_Apr_18,107,001,2,recog,31,TRYING,HF,lure,-,-,-,conservative,no,z,0,0.600162260413,-3,310
2019_Apr_18,107,001,2,recog,32,WEIRDLY,LF,target,left,aqua,imageability,conservative,no,z,1,0.906693297025,1,311
2019_Apr_18,107,001,2,recog,33,TAILED,LF,target,right,yellow,pleasantness,conservative,no,z,1,0.693460898027,1,312
2019_Apr_18,107,001,2,recog,34,APTLY,LF,target,right,yellow,pleasantness,liberal,no,m,0,0.58678695787,-3,309
2019_Apr_18,107,001,2,recog,35,THWART,LF,target,right,yellow,pleasantness,conservative,no,z,1,0.760096549712,1,310
2019_Apr_18,107,001,2,recog,36,WOBBLE,LF,target,right,yellow,pleasantness,conservative,no,z,1,0.733432097353,1,311
2019_Apr_18,107,001,2,recog,37,PROBABLY,HF,lure,-,-,-,liberal,no,m,1,0.933395143333,1,312
2019_Apr_18,107,001,2,recog,38,HIMSELF,HF,target,right,yellow,pleasantness,conservative,no,z,1,0.613508234368,1,313
2019_Apr_18,107,001,2,recog,39,MARKET,HF,lure,-,-,-,liberal,no,m,1,0.60016262702,1,314
2019_Apr_18,107,001,2,recog,40,ZIGZAG,LF,lure,-,-,-,liberal,no,m,1,0.56030397615,1,315
2019_Apr_18,107,001,2,recog,41,RAPACIOUS,LF,lure,-,-,-,conservative,no,m,1,0.600259777968,3,318
2019_Apr_18,107,001,2,recog,42,CASES,HF,target,right,yellow,pleasantness,conservative,no,z,1,0.613592554058,1,319
2019_Apr_18,107,001,2,recog,43,SHALL,HF,lure,-,-,-,conservative,no,m,1,0.893107195256,3,322
2019_Apr_18,107,001,2,recog,44,EITHER,HF,target,right,yellow,pleasantness,conservative,yes,m,0,0.720087589828,-1,321
2019_Apr_18,107,001,2,recog,45,WONDROUS,LF,target,left,aqua,imageability,conservative,no,z,1,0.973335914249,1,322
2019_Apr_18,107,001,2,recog,46,SLOWLY,HF,lure,-,-,-,conservative,no,m,1,0.906705395067,3,325
2019_Apr_18,107,001,2,recog,47,KETCHUP,LF,target,right,yellow,pleasantness,liberal,no,z,1,0.826465677853,3,328
2019_Apr_18,107,001,2,recog,48,NATIONAL,HF,lure,-,-,-,liberal,no,m,1,0.640195049774,1,329
2019_Apr_18,107,001,2,recog,49,JUBILANT,LF,target,left,aqua,imageability,liberal,no,z,1,0.653451938143,3,332
2019_Apr_18,107,001,2,recog,50,RIOTERS,LF,lure,-,-,-,liberal,no,m,1,0.680125189078,1,333
2019_Apr_18,107,001,2,recog,51,UNJUSTLY,LF,target,right,yellow,pleasantness,liberal,no,z,1,0.746735911463,3,336
2019_Apr_18,107,001,2,recog,52,FIGURE,HF,target,left,aqua,imageability,liberal,no,z,1,0.560157699817,3,339
2019_Apr_18,107,001,2,recog,53,JUDICIOUS,LF,lure,-,-,-,conservative,no,z,0,0.973266992067,-3,336
2019_Apr_18,107,001,2,recog,54,KIBBUTZIM,LF,target,left,aqua,imageability,conservative,no,m,0,0.533357236132,-1,335
2019_Apr_18,107,001,2,recog,55,DOCTOR,HF,lure,-,-,-,conservative,no,m,1,0.840115935908,3,338
2019_Apr_18,107,001,2,recog,56,LATER,HF,target,right,yellow,pleasantness,liberal,no,z,1,0.880057073432,3,341
2019_Apr_18,107,001,2,recog,57,LETTER,HF,lure,-,-,-,conservative,yes,m,1,0.773494215303,3,344
2019_Apr_18,107,001,2,recog,58,PIGLETS,LF,lure,-,-,-,conservative,no,m,1,0.840097238933,3,347
2019_Apr_18,107,001,2,recog,59,BOASTS,LF,lure,-,-,-,liberal,no,m,1,1.45287555807,1,348
2019_Apr_18,107,001,2,recog,60,DAUGHTER,HF,target,right,yellow,pleasantness,liberal,no,z,1,0.813625988649,3,351
2019_Apr_18,107,001,2,recog,61,LIVED,HF,lure,-,-,-,liberal,no,m,1,0.586881542567,1,352
2019_Apr_18,107,001,2,recog,62,MEETING,HF,lure,-,-,-,conservative,no,m,1,0.706484257514,3,355
2019_Apr_18,107,001,2,recog,63,ALCHEMIST,LF,lure,-,-,-,conservative,no,m,1,0.546698444192,3,358
2019_Apr_18,107,001,2,recog,64,UPROOTED,LF,lure,-,-,-,conservative,yes,m,1,0.733208100262,3,361
2019_Apr_18,107,001,2,recog,65,UNOPENED,LF,target,left,aqua,imageability,liberal,no,z,1,1.04000566042,3,364
2019_Apr_18,107,001,2,recog,66,AUSPICES,LF,target,left,aqua,imageability,liberal,no,z,1,0.906684865055,3,367
2019_Apr_18,107,001,2,recog,67,RETURN,HF,target,right,yellow,pleasantness,liberal,no,z,1,0.560023521527,3,370
2019_Apr_18,107,001,2,recog,68,MYSELF,HF,lure,-,-,-,conservative,yes,m,1,0.613492103645,3,373
2019_Apr_18,107,001,2,recog,69,DIABETIC,LF,target,left,aqua,imageability,liberal,no,z,1,0.826508570913,3,376
2019_Apr_18,107,001,2,recog,70,BYPASS,LF,lure,-,-,-,conservative,no,m,1,1.34757712869,3,379
2019_Apr_18,107,001,2,recog,71,GARDEN,HF,target,right,yellow,pleasantness,liberal,no,z,1,1.01331554554,3,382
2019_Apr_18,107,001,2,recog,72,MELODIC,LF,target,right,yellow,pleasantness,conservative,no,m,0,0.813465781237,-1,381
2019_Apr_18,107,001,2,recog,73,MOMENT,HF,lure,-,-,-,liberal,no,m,1,1.01269634573,1,382
2019_Apr_18,107,001,2,recog,74,NAIVELY,LF,target,left,aqua,imageability,liberal,no,z,1,0.906816843702,3,385
2019_Apr_18,107,001,2,recog,75,RESEARCH,HF,lure,-,-,-,conservative,no,z,0,0.933343818303,-3,382
2019_Apr_18,107,001,2,recog,76,FUTURE,HF,lure,-,-,-,conservative,no,m,1,1.10636745641,3,385
2019_Apr_18,107,001,2,recog,77,AQUARIUM,LF,target,right,yellow,pleasantness,liberal,no,z,1,0.800074347971,3,388
2019_Apr_18,107,001,2,recog,78,CERTAIN,HF,target,right,yellow,pleasantness,liberal,no,z,1,1.57307730942,3,391
2019_Apr_18,107,001,2,recog,79,OFFER,HF,target,left,aqua,imageability,liberal,no,m,0,0.640196149596,-3,388
2019_Apr_18,107,001,2,recog,80,GLEANED,LF,lure,-,-,-,conservative,no,m,1,1.95971425157,3,391
2019_Apr_18,107,001,2,recog,81,OFTEN,HF,lure,-,-,-,liberal,no,z,0,0.840037481936,-1,390
2019_Apr_18,107,001,2,recog,82,TIERS,LF,lure,-,-,-,conservative,no,m,1,0.506836860463,3,393
2019_Apr_18,107,001,2,recog,83,IDLING,LF,target,right,yellow,pleasantness,liberal,no,z,1,0.706776443571,3,396
2019_Apr_18,107,001,2,recog,84,FOLLOWED,HF,target,left,aqua,imageability,conservative,no,m,0,2.0130838497,-1,395
2019_Apr_18,107,001,2,recog,85,FINAL,HF,lure,-,-,-,liberal,no,m,1,0.573254014167,1,396
2019_Apr_18,107,001,2,recog,86,ALLOWED,HF,target,left,aqua,imageability,liberal,no,z,1,0.759839557959,3,399
2019_Apr_18,107,001,2,recog,87,BUSINESS,HF,lure,-,-,-,liberal,no,m,1,0.599940096359,1,400
2019_Apr_18,107,001,2,recog,88,LIKELY,HF,target,left,aqua,imageability,liberal,no,m,0,0.519959203934,-3,397
2019_Apr_18,107,001,2,recog,89,PLEASE,HF,target,left,aqua,imageability,conservative,no,z,1,0.546849853027,1,398
2019_Apr_18,107,001,2,recog,90,SHORT,HF,lure,-,-,-,conservative,no,m,1,0.706773510713,3,401
2019_Apr_18,107,001,2,recog,91,ASKED,HF,lure,-,-,-,conservative,no,z,0,0.586841948973,-3,398
2019_Apr_18,107,001,2,recog,92,GIRLS,HF,target,right,yellow,pleasantness,conservative,no,m,0,0.533591131622,-1,397
2019_Apr_18,107,001,2,recog,93,LAPELS,LF,lure,-,-,-,liberal,no,m,1,1.18633625079,1,398
2019_Apr_18,107,001,2,recog,94,MEMBERS,HF,lure,-,-,-,liberal,no,m,1,0.533505345502,1,399
2019_Apr_18,107,001,2,recog,95,ACORNS,LF,target,left,aqua,imageability,conservative,no,z,1,0.999983502669,1,400
2019_Apr_18,107,001,3,source,0,PRIVATE,HF,target,left,aqua,imageability,liberal,no,2,1,2.01292290907,-,-
2019_Apr_18,107,001,3,source,1,SORRY,HF,target,left,aqua,imageability,liberal,no,1,1,1.34627310634,-,-
2019_Apr_18,107,001,3,source,2,CICADAS,LF,target,right,yellow,pleasantness,liberal,no,2,0,1.18649059249,-,-
2019_Apr_18,107,001,3,source,3,PAPER,HF,target,left,aqua,imageability,conservative,no,8,0,0.71985626059,-,-
2019_Apr_18,107,001,3,source,4,INSIDE,HF,target,right,yellow,pleasantness,liberal,no,8,1,0.786731673482,-,-
2019_Apr_18,107,001,3,source,5,WATCH,HF,target,right,yellow,pleasantness,liberal,no,9,1,0.786751103671,-,-
2019_Apr_18,107,001,3,source,6,TAWNY,LF,target,left,aqua,imageability,conservative,no,9,0,0.746756074867,-,-
2019_Apr_18,107,001,3,source,7,SPOKE,HF,target,right,yellow,pleasantness,conservative,no,9,1,0.786491179061,-,-
2019_Apr_18,107,001,3,source,8,MASKING,LF,target,right,yellow,pleasantness,liberal,yes,2,0,0.626831845274,-,-
2019_Apr_18,107,001,3,source,9,PUTTS,LF,target,left,aqua,imageability,liberal,no,8,0,0.666832739796,-,-
2019_Apr_18,107,001,3,source,10,INORGANIC,LF,target,right,yellow,pleasantness,liberal,no,9,1,0.693489860007,-,-
2019_Apr_18,107,001,3,source,11,IMPORTANT,HF,target,left,aqua,imageability,liberal,no,2,1,0.959779141068,-,-
2019_Apr_18,107,001,3,source,12,ERSTWHILE,LF,target,right,yellow,pleasantness,liberal,no,9,1,0.813384394405,-,-
2019_Apr_18,107,001,3,source,13,VISCOUS,LF,target,left,aqua,imageability,conservative,no,8,0,0.813482278567,-,-
2019_Apr_18,107,001,3,source,14,WHETHER,HF,target,right,yellow,pleasantness,conservative,no,9,1,0.653205578004,-,-
2019_Apr_18,107,001,3,source,15,GAMBITS,LF,target,left,aqua,imageability,conservative,no,8,0,0.62680471633,-,-
2019_Apr_18,107,001,3,source,16,ORDER,HF,target,right,yellow,pleasantness,liberal,no,8,1,0.760042291824,-,-
2019_Apr_18,107,001,3,source,17,AHEAD,HF,target,left,aqua,imageability,conservative,no,2,1,0.719909785264,-,-
2019_Apr_18,107,001,3,source,18,RECENT,HF,target,left,aqua,imageability,liberal,no,9,0,0.653457803861,-,-
2019_Apr_18,107,001,3,source,19,AGILITY,LF,target,left,aqua,imageability,liberal,no,8,0,0.560331838308,-,-
2019_Apr_18,107,001,3,source,20,SMALL,HF,target,left,aqua,imageability,liberal,no,2,1,0.520208130324,-,-
2019_Apr_18,107,001,3,source,21,VESTIBULE,LF,target,right,yellow,pleasantness,conservative,no,9,1,0.786728740623,-,-
2019_Apr_18,107,001,3,source,22,SENSE,HF,target,right,yellow,pleasantness,conservative,yes,8,1,0.426879430908,-,-
2019_Apr_18,107,001,3,source,23,WAFER,LF,target,left,aqua,imageability,liberal,no,1,1,1.13302604305,-,-
2019_Apr_18,107,001,3,source,24,RIVER,HF,target,right,yellow,pleasantness,conservative,no,1,0,0.986394101435,-,-
2019_Apr_18,107,001,3,source,25,DANDELION,LF,target,right,yellow,pleasantness,conservative,no,9,1,0.773430425624,-,-
2019_Apr_18,107,001,3,source,26,MONEY,HF,target,right,yellow,pleasantness,conservative,no,9,1,0.94663003526,-,-
2019_Apr_18,107,001,3,source,27,MAKES,HF,target,left,aqua,imageability,conservative,no,8,0,0.493513249556,-,-
2019_Apr_18,107,001,3,source,28,VETOED,LF,target,left,aqua,imageability,conservative,yes,8,0,0.573256580419,-,-
2019_Apr_18,107,001,3,source,29,RAMBLE,LF,target,right,yellow,pleasantness,conservative,no,9,1,0.786764668143,-,-
2019_Apr_18,107,001,3,source,30,GLASS,HF,target,right,yellow,pleasantness,conservative,no,9,1,0.733158608271,-,-
2019_Apr_18,107,001,3,source,31,MORNING,HF,target,left,aqua,imageability,liberal,no,2,1,0.679889460552,-,-
2019_Apr_18,107,001,3,source,32,LOPSIDED,LF,target,left,aqua,imageability,liberal,no,1,1,1.65299001288,-,-
2019_Apr_18,107,001,3,source,33,BEHIND,HF,target,right,yellow,pleasantness,liberal,no,8,1,0.986412798409,-,-
2019_Apr_18,107,001,3,source,34,INNATELY,LF,target,left,aqua,imageability,liberal,no,9,0,1.0132931825,-,-
2019_Apr_18,107,001,3,source,35,HYACINTHS,LF,target,right,yellow,pleasantness,conservative,no,2,0,0.680123356041,-,-
2019_Apr_18,107,001,3,source,36,OUGHT,HF,target,right,yellow,pleasantness,liberal,no,8,1,0.54681209247,-,-
2019_Apr_18,107,001,3,source,37,DIOCESE,LF,target,right,yellow,pleasantness,liberal,no,2,0,0.586905372044,-,-
2019_Apr_18,107,001,3,source,38,RANGE,HF,target,left,aqua,imageability,conservative,no,8,0,0.573491575729,-,-
2019_Apr_18,107,001,3,source,39,YONDER,LF,target,left,aqua,imageability,conservative,yes,2,1,0.533540906415,-,-
2019_Apr_18,107,001,3,source,40,VARIOUS,HF,target,left,aqua,imageability,conservative,no,7,0,2.41276358152,-,-
2019_Apr_18,107,001,3,source,41,SNIGGERED,LF,target,left,aqua,imageability,conservative,no,3,1,0.800092311731,-,-
2019_Apr_18,107,001,3,source,42,MINISTER,HF,target,left,aqua,imageability,conservative,no,8,0,0.866490768461,-,-
2019_Apr_18,107,001,3,source,43,KENNEL,LF,target,right,yellow,pleasantness,conservative,no,2,0,0.613431613432,-,-
2019_Apr_18,107,001,3,source,44,HYPNOSIS,LF,target,left,aqua,imageability,liberal,no,1,1,1.29296949754,-,-
2019_Apr_18,107,001,3,source,45,DEDICATE,LF,target,right,yellow,pleasantness,liberal,no,7,1,0.866752526108,-,-
2019_Apr_18,107,001,3,source,46,CLOSE,HF,target,right,yellow,pleasantness,liberal,no,2,0,0.786739005629,-,-
2019_Apr_18,107,001,3,source,47,RIMMED,LF,target,right,yellow,pleasantness,conservative,no,9,1,0.81338366119,-,-
2019_Apr_18,107,001,3,recog,0,GAMBITS,LF,target,left,aqua,imageability,conservative,no,z,1,1.63971369432,1,401
2019_Apr_18,107,001,3,recog,1,CICADAS,LF,target,right,yellow,pleasantness,liberal,no,z,1,0.733409734305,3,404
2019_Apr_18,107,001,3,recog,2,MAKES,HF,target,left,aqua,imageability,conservative,no,m,0,0.826758230518,-1,403
2019_Apr_18,107,001,3,recog,3,UNKEMPT,LF,lure,-,-,-,liberal,no,m,1,0.720104087159,1,404
2019_Apr_18,107,001,3,recog,4,INORGANIC,LF,target,right,yellow,pleasantness,liberal,no,z,1,1.06666204741,3,407
2019_Apr_18,107,001,3,recog,5,AHEAD,HF,target,left,aqua,imageability,conservative,no,z,1,1.3998282078,1,408
2019_Apr_18,107,001,3,recog,6,INNATELY,LF,target,left,aqua,imageability,liberal,no,z,1,0.586817019673,3,411
2019_Apr_18,107,001,3,recog,7,TUBERS,LF,lure,-,-,-,liberal,no,z,0,0.613492836859,-1,410
2019_Apr_18,107,001,3,recog,8,WIZENED,LF,lure,-,-,-,conservative,yes,m,1,0.813468714096,3,413
2019_Apr_18,107,001,3,recog,9,MINISTER,HF,target,left,aqua,imageability,conservative,no,z,1,0.826720103354,1,414
2019_Apr_18,107,001,3,recog,10,LOPSIDED,LF,target,left,aqua,imageability,liberal,no,z,1,0.720159811476,3,417
2019_Apr_18,107,001,3,recog,11,PARENTS,HF,lure,-,-,-,conservative,no,m,1,0.880167788852,3,420
2019_Apr_18,107,001,3,recog,12,BOTANIST,LF,lure,-,-,-,conservative,no,m,1,1.41317344854,3,423
2019_Apr_18,107,001,3,recog,13,PRACTICE,HF,lure,-,-,-,liberal,no,m,1,0.826744666047,1,424
2019_Apr_18,107,001,3,recog,14,ARSENALS,LF,lure,-,-,-,conservative,no,m,1,0.600120100568,3,427
2019_Apr_18,107,001,3,recog,15,DRINK,HF,lure,-,-,-,liberal,no,m,1,0.626769155417,1,428
2019_Apr_18,107,001,3,recog,16,SMALL,HF,target,left,aqua,imageability,liberal,yes,z,1,0.826698473521,3,431
2019_Apr_18,107,001,3,recog,17,HUNDRED,HF,lure,-,-,-,conservative,no,m,1,0.613420981818,3,434
2019_Apr_18,107,001,3,recog,18,UPDATE,LF,lure,-,-,-,liberal,no,m,1,0.560207558417,1,435
2019_Apr_18,107,001,3,recog,19,RIPEN,LF,lure,-,-,-,conservative,no,m,1,0.53350974479,3,438
2019_Apr_18,107,001,3,recog,20,ENGULF,LF,lure,-,-,-,conservative,no,m,1,0.453515287893,3,441
2019_Apr_18,107,001,3,recog,21,SENSE,HF,target,right,yellow,pleasantness,conservative,no,m,0,0.746658190705,-1,440
2019_Apr_18,107,001,3,recog,22,SPOKE,HF,target,right,yellow,pleasantness,conservative,no,z,1,0.746809232933,1,441
2019_Apr_18,107,001,3,recog,23,FRONT,HF,lure,-,-,-,liberal,no,z,0,0.786808661025,-1,440
2019_Apr_18,107,001,3,recog,24,UPTIGHT,LF,lure,-,-,-,conservative,no,m,1,0.81338512762,3,443
2019_Apr_18,107,001,3,recog,25,OUGHT,HF,target,right,yellow,pleasantness,liberal,no,z,1,0.760069420768,3,446
2019_Apr_18,107,001,3,recog,26,RATHER,HF,lure,-,-,-,conservative,no,z,0,1.73303982749,-3,443
2019_Apr_18,107,001,3,recog,27,WAFER,LF,target,left,aqua,imageability,liberal,no,z,1,0.546583696092,3,446
2019_Apr_18,107,001,3,recog,28,RANGE,HF,target,left,aqua,imageability,conservative,no,z,1,0.946744783361,1,447
2019_Apr_18,107,001,3,recog,29,PRIVATE,HF,target,left,aqua,imageability,liberal,no,z,1,0.573489376085,3,450
2019_Apr_18,107,001,3,recog,30,QUICKLY,HF,lure,-,-,-,liberal,no,m,1,0.560102708715,1,451
2019_Apr_18,107,001,3,recog,31,DIOCESE,LF,target,right,yellow,pleasantness,liberal,no,z,1,0.826869312545,3,454
2019_Apr_18,107,001,3,recog,32,MUSIC,HF,lure,-,-,-,liberal,no,z,0,0.666752086179,-1,453
2019_Apr_18,107,001,3,recog,33,LOCAL,HF,lure,-,-,-,liberal,no,m,1,0.704280947343,1,454
2019_Apr_18,107,001,3,recog,34,ERSTWHILE,LF,target,right,yellow,pleasantness,liberal,no,z,1,1.25304009145,3,457
2019_Apr_18,107,001,3,recog,35,DETACH,LF,lure,-,-,-,liberal,no,m,1,0.653457437253,1,458
2019_Apr_18,107,001,3,recog,36,ORDER,HF,target,right,yellow,pleasantness,liberal,no,z,1,0.680245069681,3,461
2019_Apr_18,107,001,3,recog,37,SERIOUS,HF,lure,-,-,-,conservative,no,m,1,1.61310863236,3,464
2019_Apr_18,107,001,3,recog,38,PERHAPS,HF,lure,-,-,-,conservative,no,m,1,0.533499113177,3,467
2019_Apr_18,107,001,3,recog,39,SORRY,HF,target,left,aqua,imageability,liberal,no,z,1,0.600109835562,3,470
2019_Apr_18,107,001,3,recog,40,UNFAILING,LF,lure,-,-,-,liberal,no,m,1,0.586843048794,1,471
2019_Apr_18,107,001,3,recog,41,BOOKS,HF,lure,-,-,-,conservative,no,m,1,0.840114469479,3,474
2019_Apr_18,107,001,3,recog,42,HAPPEN,HF,lure,-,-,-,conservative,no,m,1,0.453486325912,3,477
2019_Apr_18,107,001,3,recog,43,VETOED,LF,target,left,aqua,imageability,conservative,no,z,1,0.946424735144,1,478
2019_Apr_18,107,001,3,recog,44,INSIDE,HF,target,right,yellow,pleasantness,liberal,no,z,1,0.613449210584,3,481
2019_Apr_18,107,001,3,recog,45,FOCUSES,LF,lure,-,-,-,liberal,no,z,0,0.573245215591,-1,480
2019_Apr_18,107,001,3,recog,46,KENNEL,LF,target,right,yellow,pleasantness,conservative,no,z,1,0.81340309138,1,481
2019_Apr_18,107,001,3,recog,47,HYACINTHS,LF,target,right,yellow,pleasantness,conservative,no,m,0,0.800041719916,-1,480
2019_Apr_18,107,001,3,recog,48,PUTTS,LF,target,left,aqua,imageability,liberal,yes,z,1,0.77343519152,3,483
2019_Apr_18,107,001,3,recog,49,RECENT,HF,target,left,aqua,imageability,liberal,no,z,1,0.653461836541,3,486
2019_Apr_18,107,001,3,recog,50,VOWEL,LF,lure,-,-,-,conservative,no,m,1,0.840052512837,3,489
2019_Apr_18,107,001,3,recog,51,BOWER,LF,lure,-,-,-,liberal,no,m,1,0.773338407179,1,490
2019_Apr_18,107,001,3,recog,52,DUMMIES,LF,lure,-,-,-,liberal,no,m,1,0.946711788699,1,491
2019_Apr_18,107,001,3,recog,53,GLASS,HF,target,right,yellow,pleasantness,conservative,no,z,1,0.653468802081,1,492
2019_Apr_18,107,001,3,recog,54,CLOSE,HF,target,right,yellow,pleasantness,liberal,no,m,0,0.733178771675,-3,489
2019_Apr_18,107,001,3,recog,55,YONDER,LF,target,left,aqua,imageability,conservative,no,z,1,1.63973899023,1,490
2019_Apr_18,107,001,3,recog,56,ENERGY,HF,lure,-,-,-,liberal,no,z,0,0.626865206543,-1,489
2019_Apr_18,107,001,3,recog,57,RIMMED,LF,target,right,yellow,pleasantness,conservative,no,m,0,0.573507339846,-1,488
2019_Apr_18,107,001,3,recog,58,LEVEL,HF,lure,-,-,-,conservative,no,m,1,1.17322893822,3,491
2019_Apr_18,107,001,3,recog,59,TOWARDS,HF,lure,-,-,-,liberal,no,m,1,0.626800683649,1,492
2019_Apr_18,107,001,3,recog,60,PLACE,HF,lure,-,-,-,liberal,no,m,1,0.733438329678,1,493
2019_Apr_18,107,001,3,recog,61,SNIGGERED,LF,target,left,aqua,imageability,conservative,no,z,1,0.520186133884,1,494
2019_Apr_18,107,001,3,recog,62,IMPORTANT,HF,target,left,aqua,imageability,liberal,no,m,0,0.60014612969,-3,491
2019_Apr_18,107,001,3,recog,63,MORNING,HF,target,left,aqua,imageability,liberal,no,z,1,0.600136597899,3,494
2019_Apr_18,107,001,3,recog,64,SLIGHTLY,HF,lure,-,-,-,liberal,no,z,0,0.959749445873,-1,493
2019_Apr_18,107,001,3,recog,65,MONEY,HF,target,right,yellow,pleasantness,conservative,no,z,1,1.05335640027,1,494
2019_Apr_18,107,001,3,recog,66,MUTATIONS,LF,lure,-,-,-,liberal,no,m,1,0.666843738017,1,495
2019_Apr_18,107,001,3,recog,67,OVARIES,LF,lure,-,-,-,conservative,no,m,1,0.733485622026,3,498
2019_Apr_18,107,001,3,recog,68,TAWNY,LF,target,left,aqua,imageability,conservative,no,z,1,0.706767278387,1,499
2019_Apr_18,107,001,3,recog,69,RIVER,HF,target,right,yellow,pleasantness,conservative,no,z,1,0.546572331263,1,500
2019_Apr_18,107,001,3,recog,70,VESTIBULE,LF,target,right,yellow,pleasantness,conservative,no,z,1,0.613469373989,1,501
2019_Apr_18,107,001,3,recog,71,MASKING,LF,target,right,yellow,pleasantness,liberal,no,m,0,0.640139325457,-3,498
2019_Apr_18,107,001,3,recog,72,VISCOUS,LF,target,left,aqua,imageability,conservative,no,z,1,0.80006334975,1,499
2019_Apr_18,107,001,3,recog,73,ABOVE,HF,lure,-,-,-,conservative,no,m,1,0.786677048987,3,502
2019_Apr_18,107,001,3,recog,74,WHETHER,HF,target,right,yellow,pleasantness,conservative,no,z,1,1.04000272756,1,503
2019_Apr_18,107,001,3,recog,75,AGILITY,LF,target,left,aqua,imageability,liberal,no,z,1,1.15988479731,3,506
2019_Apr_18,107,001,3,recog,76,DEDICATE,LF,target,right,yellow,pleasantness,liberal,no,z,1,0.560170164467,3,509
2019_Apr_18,107,001,3,recog,77,SUCCESS,HF,lure,-,-,-,liberal,no,z,0,0.426896294846,-1,508
2019_Apr_18,107,001,3,recog,78,VILLAGE,HF,lure,-,-,-,conservative,no,m,1,0.893369319511,3,511
2019_Apr_18,107,001,3,recog,79,ECHELONS,LF,lure,-,-,-,liberal,no,m,1,0.586900972756,1,512
2019_Apr_18,107,001,3,recog,80,NORTH,HF,lure,-,-,-,liberal,no,m,1,0.546765899944,1,513
2019_Apr_18,107,001,3,recog,81,GOBBLE,LF,lure,-,-,-,conservative,no,m,1,0.720171542911,3,516
2019_Apr_18,107,001,3,recog,82,DANDELION,LF,target,right,yellow,pleasantness,conservative,no,z,1,1.18655511538,1,517
2019_Apr_18,107,001,3,recog,83,RAMBLE,LF,target,right,yellow,pleasantness,conservative,no,z,1,1.09333603156,1,518
2019_Apr_18,107,001,3,recog,84,PINAFORE,LF,lure,-,-,-,liberal,no,m,1,0.666760884756,1,519
2019_Apr_18,107,001,3,recog,85,CITES,LF,lure,-,-,-,conservative,no,m,1,0.600201854007,3,522
2019_Apr_18,107,001,3,recog,86,MODERN,HF,lure,-,-,-,conservative,no,m,1,0.53345988619,3,525
2019_Apr_18,107,001,3,recog,87,PAPER,HF,target,left,aqua,imageability,conservative,no,m,0,0.440292860615,-1,524
2019_Apr_18,107,001,3,recog,88,PICTURE,HF,lure,-,-,-,conservative,no,m,1,0.746752042186,3,527
2019_Apr_18,107,001,3,recog,89,TYCOONS,LF,lure,-,-,-,conservative,no,m,1,0.506883786203,3,530
2019_Apr_18,107,001,3,recog,90,HYPNOSIS,LF,target,left,aqua,imageability,liberal,yes,z,1,0.719885955786,3,533
2019_Apr_18,107,001,3,recog,91,VARIOUS,HF,target,left,aqua,imageability,conservative,no,m,0,1.04000529381,-1,532
2019_Apr_18,107,001,3,recog,92,UPLIFT,LF,lure,-,-,-,conservative,no,m,1,1.11997885409,3,535
2019_Apr_18,107,001,3,recog,93,DEMEANOUR,LF,lure,-,-,-,liberal,no,m,1,0.680102826029,1,536
2019_Apr_18,107,001,3,recog,94,BEHIND,HF,target,right,yellow,pleasantness,liberal,no,z,1,0.800139237471,3,539
2019_Apr_18,107,001,3,recog,95,WATCH,HF,target,right,yellow,pleasantness,liberal,no,m,0,0.506879386915,-3,536
2019_Apr_18,107,001,4,source,0,LAUNCHER,LF,target,right,yellow,pleasantness,liberal,no,1,0,0.959999105478,-,-
2019_Apr_18,107,001,4,source,1,OPULENCE,LF,target,left,aqua,imageability,conservative,no,8,0,0.746742510396,-,-
2019_Apr_18,107,001,4,source,2,DAMASK,LF,target,right,yellow,pleasantness,liberal,no,8,1,0.600158960947,-,-
2019_Apr_18,107,001,4,source,3,VEERED,LF,target,right,yellow,pleasantness,conservative,no,9,1,0.639878301025,-,-
2019_Apr_18,107,001,4,source,4,GUILDHALL,LF,target,right,yellow,pleasantness,conservative,no,2,0,1.02664722181,-,-
2019_Apr_18,107,001,4,source,5,STOOD,HF,target,right,yellow,pleasantness,conservative,no,9,1,0.920123224063,-,-
2019_Apr_18,107,001,4,source,6,MIDDLE,HF,target,left,aqua,imageability,liberal,no,1,1,0.693421671041,-,-
2019_Apr_18,107,001,4,source,7,MEANS,HF,target,left,aqua,imageability,conservative,no,8,0,0.546963501306,-,-
2019_Apr_18,107,001,4,source,8,ACCORDING,HF,target,left,aqua,imageability,conservative,no,2,1,0.640171586904,-,-
2019_Apr_18,107,001,4,source,9,HOURS,HF,target,right,yellow,pleasantness,conservative,no,8,1,0.466624066893,-,-
2019_Apr_18,107,001,4,source,10,WHATEVER,HF,target,right,yellow,pleasantness,liberal,no,9,1,0.573477644651,-,-
2019_Apr_18,107,001,4,source,11,FACILE,LF,target,left,aqua,imageability,liberal,no,8,0,0.520160471369,-,-
2019_Apr_18,107,001,4,source,12,UNTIL,HF,target,left,aqua,imageability,liberal,no,1,1,0.813387327264,-,-
2019_Apr_18,107,001,4,source,13,SELECTS,LF,target,left,aqua,imageability,liberal,no,8,0,0.573243382554,-,-
2019_Apr_18,107,001,4,source,14,ELLIPSE,LF,target,left,aqua,imageability,liberal,no,1,1,0.720140014679,-,-
2019_Apr_18,107,001,4,source,15,IRONICAL,LF,target,left,aqua,imageability,liberal,no,1,1,0.600139530757,-,-
2019_Apr_18,107,001,4,source,16,ROUND,HF,target,right,yellow,pleasantness,liberal,no,1,0,0.479912483494,-,-
2019_Apr_18,107,001,4,source,17,SAYING,HF,target,left,aqua,imageability,conservative,no,8,0,0.560129837659,-,-
2019_Apr_18,107,001,4,source,18,AFTERNOON,HF,target,left,aqua,imageability,liberal,no,1,1,0.586891440965,-,-
2019_Apr_18,107,001,4,source,19,DITTO,LF,target,left,aqua,imageability,liberal,no,8,0,0.506969572323,-,-
2019_Apr_18,107,001,4,source,20,CANNOT,HF,target,right,yellow,pleasantness,conservative,yes,8,1,0.666769316725,-,-
2019_Apr_18,107,001,4,source,21,CHIEF,HF,target,right,yellow,pleasantness,conservative,no,2,0,0.586568093282,-,-
2019_Apr_18,107,001,4,source,22,ANIMAL,HF,target,left,aqua,imageability,liberal,no,1,1,0.999990834816,-,-
2019_Apr_18,107,001,4,source,23,GLIDED,LF,target,right,yellow,pleasantness,conservative,no,1,0,1.38627949998,-,-
2019_Apr_18,107,001,4,source,24,EPIDEMICS,LF,target,left,aqua,imageability,conservative,no,1,1,0.759869619762,-,-
2019_Apr_18,107,001,4,source,25,VOUCH,LF,target,left,aqua,imageability,conservative,no,1,1,0.733582406367,-,-
2019_Apr_18,107,001,4,source,26,HOARD,LF,target,right,yellow,pleasantness,liberal,no,8,1,0.466656328339,-,-
2019_Apr_18,107,001,4,source,27,CODING,LF,target,right,yellow,pleasantness,liberal,yes,9,1,0.48035974446,-,-
2019_Apr_18,107,001,4,source,28,FRACTIONS,LF,target,right,yellow,pleasantness,conservative,no,8,1,0.413667268636,-,-
2019_Apr_18,107,001,4,source,29,FOUND,HF,target,left,aqua,imageability,liberal,yes,8,0,1.01340353131,-,-
2019_Apr_18,107,001,4,source,30,EIGHT,HF,target,right,yellow,pleasantness,liberal,yes,8,1,0.399968618411,-,-
2019_Apr_18,107,001,4,source,31,ACTION,HF,target,left,aqua,imageability,conservative,no,8,0,0.706803572516,-,-
2019_Apr_18,107,001,4,source,32,GENERAL,HF,target,right,yellow,pleasantness,liberal,no,8,1,0.560320473481,-,-
2019_Apr_18,107,001,4,source,33,KNOWLEDGE,HF,target,left,aqua,imageability,conservative,no,2,1,0.839842080218,-,-
2019_Apr_18,107,001,4,source,34,FICKLE,LF,target,left,aqua,imageability,conservative,no,1,1,1.01331774519,-,-
2019_Apr_18,107,001,4,source,35,MATERIAL,HF,target,right,yellow,pleasantness,conservative,no,9,1,0.706909155432,-,-
2019_Apr_18,107,001,4,source,36,CLEAR,HF,target,right,yellow,pleasantness,liberal,no,8,1,0.453626003313,-,-
2019_Apr_18,107,001,4,source,37,DWELT,LF,target,left,aqua,imageability,conservative,no,2,1,0.413566085007,-,-
2019_Apr_18,107,001,4,source,38,ASHEN,LF,target,right,yellow,pleasantness,liberal,no,8,1,0.400042673095,-,-
2019_Apr_18,107,001,4,source,39,USELESSLY,LF,target,right,yellow,pleasantness,conservative,no,2,0,0.493646328024,-,-
2019_Apr_18,107,001,4,source,40,BOUGH,LF,target,right,yellow,pleasantness,liberal,no,8,1,0.92007373207,-,-
2019_Apr_18,107,001,4,source,41,BESOTTED,LF,target,left,aqua,imageability,liberal,no,8,0,0.640141891708,-,-
2019_Apr_18,107,001,4,source,42,MOLARS,LF,target,right,yellow,pleasantness,conservative,no,9,1,1.03993233895,-,-
2019_Apr_18,107,001,4,source,43,METABOLIC,LF,target,left,aqua,imageability,conservative,no,1,1,0.786493012097,-,-
2019_Apr_18,107,001,4,source,44,SUBJECT,HF,target,right,yellow,pleasantness,liberal,no,8,1,0.519941240174,-,-
2019_Apr_18,107,001,4,source,45,LARGE,HF,target,left,aqua,imageability,conservative,no,2,1,0.72010811984,-,-
2019_Apr_18,107,001,4,source,46,SPEAK,HF,target,right,yellow,pleasantness,conservative,no,9,1,0.626560555836,-,-
2019_Apr_18,107,001,4,source,47,HARDLY,HF,target,left,aqua,imageability,liberal,no,2,1,0.640111463299,-,-
2019_Apr_18,107,001,4,recog,0,AMONG,HF,lure,-,-,-,liberal,yes,z,0,1.06661878775,-1,535
2019_Apr_18,107,001,4,recog,1,SCABS,LF,lure,-,-,-,liberal,no,m,1,1.05328014594,1,536
2019_Apr_18,107,001,4,recog,2,METABOLIC,LF,target,left,aqua,imageability,conservative,yes,m,0,0.893166585647,-1,535
2019_Apr_18,107,001,4,recog,3,LAVISHED,LF,lure,-,-,-,conservative,no,m,1,0.773413561686,3,538
2019_Apr_18,107,001,4,recog,4,BOXCAR,LF,lure,-,-,-,liberal,no,m,1,0.760090317387,1,539
2019_Apr_18,107,001,4,recog,5,SPEAK,HF,target,right,yellow,pleasantness,conservative,no,z,1,2.51939572844,1,540
2019_Apr_18,107,001,4,recog,6,NEBULOUS,LF,lure,-,-,-,liberal,no,m,1,0.733215065802,1,541
2019_Apr_18,107,001,4,recog,7,GENERAL,HF,target,right,yellow,pleasantness,liberal,no,z,1,0.853455310931,3,544
2019_Apr_18,107,001,4,recog,8,DEGREE,HF,lure,-,-,-,conservative,no,m,1,0.786713709722,3,547
2019_Apr_18,107,001,4,recog,9,KRONOR,LF,lure,-,-,-,liberal,yes,z,0,0.680133621047,-1,546
2019_Apr_18,107,001,4,recog,10,ROUND,HF,target,right,yellow,pleasantness,liberal,no,z,1,0.880049741285,3,549
2019_Apr_18,107,001,4,recog,11,STOOD,HF,target,right,yellow,pleasantness,conservative,no,z,1,0.800071415112,1,550
2019_Apr_18,107,001,4,recog,12,ACTION,HF,target,left,aqua,imageability,conservative,no,z,1,0.480270658874,1,551
2019_Apr_18,107,001,4,recog,13,RODENTS,LF,lure,-,-,-,liberal,no,m,1,0.680108691747,1,552
2019_Apr_18,107,001,4,recog,14,SUPPORT,HF,lure,-,-,-,liberal,no,m,1,0.707184110944,1,553
2019_Apr_18,107,001,4,recog,15,MATERIAL,HF,target,right,yellow,pleasantness,conservative,no,z,1,0.760139076164,1,554
2019_Apr_18,107,001,4,recog,16,BUOYANCY,LF,lure,-,-,-,conservative,no,m,1,0.880017846446,3,557
2019_Apr_18,107,001,4,recog,17,NEEDED,HF,lure,-,-,-,conservative,no,z,0,0.720090522686,-3,554
2019_Apr_18,107,001,4,recog,18,KNOWLEDGE,HF,target,left,aqua,imageability,conservative,no,z,1,0.640241608908,1,555
2019_Apr_18,107,001,4,recog,19,SUBJECT,HF,target,right,yellow,pleasantness,liberal,no,z,1,0.853380156424,3,558
2019_Apr_18,107,001,4,recog,20,IRONICAL,LF,target,left,aqua,imageability,liberal,no,z,1,0.479925314751,3,561
2019_Apr_18,107,001,4,recog,21,LARGE,HF,target,left,aqua,imageability,conservative,no,z,1,0.546867083573,1,562
2019_Apr_18,107,001,4,recog,22,DITTO,LF,target,left,aqua,imageability,liberal,no,z,1,0.600219451159,3,565
2019_Apr_18,107,001,4,recog,23,DONATE,LF,lure,-,-,-,conservative,no,m,1,0.693467863566,3,568
2019_Apr_18,107,001,4,recog,24,FACILE,LF,target,left,aqua,imageability,liberal,no,z,1,0.760047790934,3,571
2019_Apr_18,107,001,4,recog,25,ASCEND,LF,lure,-,-,-,conservative,no,z,0,0.666785814055,-3,568
2019_Apr_18,107,001,4,recog,26,CODING,LF,target,right,yellow,pleasantness,liberal,no,z,1,0.559920504862,3,571
2019_Apr_18,107,001,4,recog,27,WHATEVER,HF,target,right,yellow,pleasantness,liberal,no,z,1,0.453599974191,3,574
2019_Apr_18,107,001,4,recog,28,AREAS,HF,lure,-,-,-,liberal,no,m,1,0.613601719242,1,575
2019_Apr_18,107,001,4,recog,29,ITSELF,HF,lure,-,-,-,conservative,no,m,1,1.06670090779,3,578
2019_Apr_18,107,001,4,recog,30,MOLARS,LF,target,right,yellow,pleasantness,conservative,no,z,1,0.560128004622,1,579
2019_Apr_18,107,001,4,recog,31,NIBBLE,LF,lure,-,-,-,liberal,no,m,1,0.693242400046,1,580
2019_Apr_18,107,001,4,recog,32,HOURS,HF,target,right,yellow,pleasantness,conservative,no,z,1,0.507930083579,1,581
2019_Apr_18,107,001,4,recog,33,BESOTTED,LF,target,left,aqua,imageability,liberal,no,z,1,0.560247885225,3,584
2019_Apr_18,107,001,4,recog,34,GOVERNS,LF,lure,-,-,-,conservative,no,z,0,0.85338492232,-3,581
2019_Apr_18,107,001,4,recog,35,MIDDLE,HF,target,left,aqua,imageability,liberal,no,z,1,0.426921957361,3,584
2019_Apr_18,107,001,4,recog,36,TWENTY,HF,lure,-,-,-,conservative,no,m,1,1.07999775636,3,587
2019_Apr_18,107,001,4,recog,37,TUMBLER,LF,lure,-,-,-,liberal,no,z,0,0.573511739134,-1,586
2019_Apr_18,107,001,4,recog,38,CHIEF,HF,target,right,yellow,pleasantness,conservative,no,z,1,2.66576811205,1,587
2019_Apr_18,107,001,4,recog,39,ACCORDING,HF,target,left,aqua,imageability,conservative,no,z,1,0.919722888837,1,588
2019_Apr_18,107,001,4,recog,40,WRONG,HF,lure,-,-,-,conservative,no,m,1,0.626832211881,3,591
2019_Apr_18,107,001,4,recog,41,HARDLY,HF,target,left,aqua,imageability,liberal,no,z,1,0.773401463643,3,594
2019_Apr_18,107,001,4,recog,42,BLUECOATS,LF,lure,-,-,-,conservative,no,m,1,0.626600149429,3,597
2019_Apr_18,107,001,4,recog,43,MEANS,HF,target,left,aqua,imageability,conservative,no,z,1,0.4935653078,1,598
2019_Apr_18,107,001,4,recog,44,NIMBLE,LF,lure,-,-,-,conservative,no,m,1,0.893342557174,3,601
2019_Apr_18,107,001,4,recog,45,UMBILICAL,LF,lure,-,-,-,conservative,no,m,1,0.760136509913,3,604
2019_Apr_18,107,001,4,recog,46,HOARD,LF,target,right,yellow,pleasantness,liberal,no,z,1,0.733675524634,3,607
2019_Apr_18,107,001,4,recog,47,GUILDHALL,LF,target,right,yellow,pleasantness,conservative,no,z,1,0.600117167709,1,608
2019_Apr_18,107,001,4,recog,48,DWELT,LF,target,left,aqua,imageability,conservative,no,z,1,0.613551494035,1,609
2019_Apr_18,107,001,4,recog,49,PSALMS,LF,lure,-,-,-,conservative,no,m,1,0.546888713406,3,612
2019_Apr_18,107,001,4,recog,50,VEERED,LF,target,right,yellow,pleasantness,conservative,no,z,1,0.520164137442,1,613
2019_Apr_18,107,001,4,recog,51,DAMASK,LF,target,right,yellow,pleasantness,liberal,no,z,1,0.467044198916,3,616
2019_Apr_18,107,001,4,recog,52,LAUNCHER,LF,target,right,yellow,pleasantness,liberal,no,z,1,0.53357206804,3,619
2019_Apr_18,107,001,4,recog,53,SPACE,HF,lure,-,-,-,liberal,no,z,0,0.533610195204,-1,618
2019_Apr_18,107,001,4,recog,54,EIDERDOWN,LF,lure,-,-,-,conservative,no,m,1,0.733459959512,3,621
2019_Apr_18,107,001,4,recog,55,GLIDED,LF,target,right,yellow,pleasantness,conservative,no,z,1,0.426550217508,1,622
2019_Apr_18,107,001,4,recog,56,LABOUR,HF,lure,-,-,-,conservative,no,z,0,0.973337380678,-3,619
2019_Apr_18,107,001,4,recog,57,TAPER,LF,lure,-,-,-,liberal,no,m,1,0.600200754185,1,620
2019_Apr_18,107,001,4,recog,58,UNTIL,HF,target,left,aqua,imageability,liberal,no,z,1,0.586819952532,3,623
2019_Apr_18,107,001,4,recog,59,UNEARTHED,LF,lure,-,-,-,conservative,no,m,1,0.586819585924,3,626
2019_Apr_18,107,001,4,recog,60,GRIEVE,LF,lure,-,-,-,liberal,no,m,1,0.719859926664,1,627
2019_Apr_18,107,001,4,recog,61,ANIMAL,HF,target,left,aqua,imageability,liberal,no,z,1,0.573536301827,3,630
2019_Apr_18,107,001,4,recog,62,TERMS,HF,lure,-,-,-,liberal,no,m,1,0.720107020018,1,631
2019_Apr_18,107,001,4,recog,63,HOSPITAL,HF,lure,-,-,-,liberal,no,z,0,1.09329937083,-1,630
2019_Apr_18,107,001,4,recog,64,HADJI,LF,lure,-,-,-,conservative,no,m,1,0.613501635436,3,633
2019_Apr_18,107,001,4,recog,65,POLICE,HF,lure,-,-,-,liberal,no,m,1,1.05330617506,1,634
2019_Apr_18,107,001,4,recog,66,ARRIVED,HF,lure,-,-,-,liberal,no,z,0,0.65319787925,-1,633
2019_Apr_18,107,001,4,recog,67,FRACTIONS,LF,target,right,yellow,pleasantness,conservative,no,z,1,0.733470591125,1,634
2019_Apr_18,107,001,4,recog,68,SELECTS,LF,target,left,aqua,imageability,liberal,yes,z,1,0.720060827492,3,637
2019_Apr_18,107,001,4,recog,69,OPULENCE,LF,target,left,aqua,imageability,conservative,no,m,0,0.600197088111,-1,636
2019_Apr_18,107,001,4,recog,70,DIFFERENT,HF,lure,-,-,-,conservative,no,z,0,0.653285131799,-3,633
2019_Apr_18,107,001,4,recog,71,CANNOT,HF,target,right,yellow,pleasantness,conservative,no,m,0,0.560171630897,-1,632
2019_Apr_18,107,001,4,recog,72,USELESSLY,LF,target,right,yellow,pleasantness,conservative,no,z,1,0.639888199423,1,633
2019_Apr_18,107,001,4,recog,73,BREAK,HF,lure,-,-,-,liberal,no,m,1,0.88000208233,1,634
2019_Apr_18,107,001,4,recog,74,HACKNEY,LF,lure,-,-,-,liberal,no,m,1,0.559907673605,1,635
2019_Apr_18,107,001,4,recog,75,OVENS,LF,lure,-,-,-,liberal,no,m,1,0.560188128228,1,636
2019_Apr_18,107,001,4,recog,76,NEARLY,HF,lure,-,-,-,liberal,no,z,0,0.813438285686,-1,635
2019_Apr_18,107,001,4,recog,77,EIGHT,HF,target,right,yellow,pleasantness,liberal,no,z,1,0.520173669234,3,638
2019_Apr_18,107,001,4,recog,78,ALTHOUGH,HF,lure,-,-,-,liberal,no,z,0,0.693536785748,-1,637
2019_Apr_18,107,001,4,recog,79,SAYING,HF,target,left,aqua,imageability,conservative,no,z,1,0.76009398346,1,638
2019_Apr_18,107,001,4,recog,80,SODDING,LF,lure,-,-,-,liberal,no,m,1,0.693426436936,1,639
2019_Apr_18,107,001,4,recog,81,CORNER,HF,lure,-,-,-,liberal,no,m,1,0.760121479012,1,640
2019_Apr_18,107,001,4,recog,82,NIGHT,HF,lure,-,-,-,conservative,no,m,1,0.53324688732,3,643
2019_Apr_18,107,001,4,recog,83,WINDOW,HF,lure,-,-,-,conservative,no,z,0,1.31963394989,-3,640
2019_Apr_18,107,001,4,recog,84,BOUGH,LF,target,right,yellow,pleasantness,liberal,no,z,1,0.480199903656,3,643
2019_Apr_18,107,001,4,recog,85,CHURCH,HF,lure,-,-,-,conservative,no,m,1,0.479968574418,3,646
2019_Apr_18,107,001,4,recog,86,COVER,HF,lure,-,-,-,conservative,no,m,1,0.480195870975,3,649
2019_Apr_18,107,001,4,recog,87,ELLIPSE,LF,target,left,aqua,imageability,liberal,no,z,1,0.560166498394,3,652
2019_Apr_18,107,001,4,recog,88,FOUND,HF,target,left,aqua,imageability,liberal,no,z,1,0.600225316877,3,655
2019_Apr_18,107,001,4,recog,89,EPIDEMICS,LF,target,left,aqua,imageability,conservative,no,z,1,0.666539087309,1,656
2019_Apr_18,107,001,4,recog,90,FICKLE,LF,target,left,aqua,imageability,conservative,no,z,1,0.653443872781,1,657
2019_Apr_18,107,001,4,recog,91,VOUCH,LF,target,left,aqua,imageability,conservative,no,z,1,0.586815919851,1,658
2019_Apr_18,107,001,4,recog,92,CLEAR,HF,target,right,yellow,pleasantness,liberal,no,z,1,0.440201941993,3,661
2019_Apr_18,107,001,4,recog,93,AFTERNOON,HF,target,left,aqua,imageability,liberal,no,z,1,0.506803132586,3,664
2019_Apr_18,107,001,4,recog,94,ASHEN,LF,target,right,yellow,pleasantness,liberal,no,m,0,0.719765341968,-3,661
2019_Apr_18,107,001,4,recog,95,DURING,HF,lure,-,-,-,conservative,no,z,0,0.786818559424,-3,658
