date,subj,session,cycle,task,trial,item,wf,type,source,colour,encoding,bias,null,response,corr,rt,points,total
2019_Apr_18,108,001,0,source,0,SCABS,LF,target,right,aqua,pleasantness,conservative,yes,2,0,3.62568216463,-,-
2019_Apr_18,108,001,0,source,1,SIESTA,LF,target,right,aqua,pleasantness,liberal,no,9,1,2.35958278617,-,-
2019_Apr_18,108,001,0,source,2,BROUGHT,HF,target,left,yellow,imageability,liberal,no,1,1,2.79928870842,-,-
2019_Apr_18,108,001,0,source,3,ENVIRONS,LF,target,left,yellow,imageability,conservative,no,7,0,2.77267558109,-,-
2019_Apr_18,108,001,0,source,4,BOOKS,HF,target,left,yellow,imageability,liberal,no,7,0,2.31926660933,-,-
2019_Apr_18,108,001,0,source,5,SERIOUS,HF,target,right,aqua,pleasantness,liberal,no,8,1,1.3332020879,-,-
2019_Apr_18,108,001,0,source,6,SHUNNED,LF,target,left,yellow,imageability,liberal,yes,2,1,0.933343451697,-,-
2019_Apr_18,108,001,0,source,7,SUBJECT,HF,target,right,aqua,pleasantness,conservative,no,8,1,1.70633798118,-,-
2019_Apr_18,108,001,0,source,8,ULCER,LF,target,left,yellow,imageability,liberal,no,8,0,1.39983920602,-,-
2019_Apr_18,108,001,0,source,9,FLOOR,HF,target,left,yellow,imageability,liberal,no,2,1,1.18632855204,-,-
2019_Apr_18,108,001,0,source,10,AMULETS,LF,target,left,yellow,imageability,conservative,no,2,1,1.35982328059,-,-
2019_Apr_18,108,001,0,source,11,ODDER,LF,target,right,aqua,pleasantness,liberal,no,8,1,2.83927823811,-,-
2019_Apr_18,108,001,0,source,12,ANSWER,HF,target,right,aqua,pleasantness,conservative,no,8,1,1.74611487861,-,-
2019_Apr_18,108,001,0,source,13,EXUDED,LF,target,right,aqua,pleasantness,conservative,no,9,1,1.47959903421,-,-
2019_Apr_18,108,001,0,source,14,CAKED,LF,target,left,yellow,imageability,liberal,no,3,1,2.50582832364,-,-
2019_Apr_18,108,001,0,source,15,JARRED,LF,target,left,yellow,imageability,conservative,no,3,1,0.893359421112,-,-
2019_Apr_18,108,001,0,source,16,OPENED,HF,target,left,yellow,imageability,conservative,no,7,0,1.90607409721,-,-
2019_Apr_18,108,001,0,source,17,ANVIL,LF,target,left,yellow,imageability,conservative,no,1,1,1.8130698453,-,-
2019_Apr_18,108,001,0,source,18,YACHTING,LF,target,left,yellow,imageability,liberal,no,3,1,2.01274107183,-,-
2019_Apr_18,108,001,0,source,19,EXCEPT,HF,target,right,aqua,pleasantness,conservative,no,7,1,1.82638759049,-,-
2019_Apr_18,108,001,0,source,20,VAINLY,LF,target,right,aqua,pleasantness,conservative,no,7,1,1.53287331443,-,-
2019_Apr_18,108,001,0,source,21,RETURN,HF,target,left,yellow,imageability,liberal,no,7,0,0.786737172592,-,-
2019_Apr_18,108,001,0,source,22,SPACE,HF,target,left,yellow,imageability,liberal,no,2,1,1.00008908559,-,-
2019_Apr_18,108,001,0,source,23,AGILITY,LF,target,right,aqua,pleasantness,liberal,no,1,0,3.8656450053,-,-
2019_Apr_18,108,001,0,source,24,WHITE,HF,target,right,aqua,pleasantness,liberal,no,8,1,1.73311131592,-,-
2019_Apr_18,108,001,0,source,25,FUTURE,HF,target,left,yellow,imageability,conservative,yes,8,0,0.653565953029,-,-
2019_Apr_18,108,001,0,source,26,WOMAN,HF,target,right,aqua,pleasantness,conservative,no,9,1,1.43955488002,-,-
2019_Apr_18,108,001,0,source,27,PROBABLY,HF,target,right,aqua,pleasantness,conservative,no,8,1,0.960016702631,-,-
2019_Apr_18,108,001,0,source,28,ACCORDING,HF,target,right,aqua,pleasantness,conservative,no,2,0,1.11969619982,-,-
2019_Apr_18,108,001,0,source,29,TAWNY,LF,target,left,yellow,imageability,conservative,no,8,0,2.11931492818,-,-
2019_Apr_18,108,001,0,source,30,USUAL,HF,target,right,aqua,pleasantness,liberal,no,8,1,0.826457612491,-,-
2019_Apr_18,108,001,0,source,31,DULLED,LF,target,right,aqua,pleasantness,conservative,no,2,0,1.63950436153,-,-
2019_Apr_18,108,001,0,source,32,VESTIBULE,LF,target,right,aqua,pleasantness,conservative,no,3,0,1.27989188016,-,-
2019_Apr_18,108,001,0,source,33,SLOWLY,HF,target,left,yellow,imageability,conservative,no,1,1,1.75945278721,-,-
2019_Apr_18,108,001,0,source,34,PREPARED,HF,target,left,yellow,imageability,conservative,no,8,0,2.95920796682,-,-
2019_Apr_18,108,001,0,source,35,BRACES,LF,target,left,yellow,imageability,liberal,no,8,0,3.77224958335,-,-
2019_Apr_18,108,001,0,source,36,MAJOR,HF,target,left,yellow,imageability,conservative,no,8,0,1.37319345063,-,-
2019_Apr_18,108,001,0,source,37,USELESSLY,LF,target,right,aqua,pleasantness,liberal,no,7,1,1.46623656292,-,-
2019_Apr_18,108,001,0,source,38,QUICKLY,HF,target,right,aqua,pleasantness,liberal,no,3,0,3.14556254798,-,-
2019_Apr_18,108,001,0,source,39,COGENT,LF,target,right,aqua,pleasantness,liberal,no,3,0,4.17227319286,-,-
2019_Apr_18,108,001,0,source,40,PHOBIC,LF,target,left,yellow,imageability,liberal,no,7,0,2.41277054706,-,-
2019_Apr_18,108,001,0,source,41,COUNCIL,HF,target,right,aqua,pleasantness,liberal,no,9,1,1.43957321039,-,-
2019_Apr_18,108,001,0,source,42,JEALOUSLY,LF,target,left,yellow,imageability,conservative,yes,8,0,0.613422448248,-,-
2019_Apr_18,108,001,0,source,43,WAITING,HF,target,left,yellow,imageability,conservative,no,2,1,2.89229369355,-,-
2019_Apr_18,108,001,0,source,44,HOSPITAL,HF,target,right,aqua,pleasantness,liberal,no,8,1,1.09326087706,-,-
2019_Apr_18,108,001,0,source,45,RALLIED,LF,target,right,aqua,pleasantness,liberal,no,2,0,1.86608273448,-,-
2019_Apr_18,108,001,0,source,46,CIPHER,LF,target,right,aqua,pleasantness,conservative,no,2,0,2.1992859222,-,-
2019_Apr_18,108,001,0,source,47,TRIED,HF,target,left,yellow,imageability,liberal,no,2,1,0.706801739479,-,-
2019_Apr_18,108,001,0,recog,0,DAILIES,LF,lure,-,-,-,conservative,no,m,1,4.53203048413,3,3
2019_Apr_18,108,001,0,recog,1,SUBJECT,HF,target,right,aqua,pleasantness,conservative,no,z,1,1.08004541532,1,4
2019_Apr_18,108,001,0,recog,2,RALLIED,LF,target,right,aqua,pleasantness,liberal,no,z,1,2.21262163115,3,7
2019_Apr_18,108,001,0,recog,3,NIPPED,LF,lure,-,-,-,conservative,no,m,1,1.71953547916,3,10
2019_Apr_18,108,001,0,recog,4,PREPARED,HF,target,left,yellow,imageability,conservative,no,z,1,2.35946217235,1,11
2019_Apr_18,108,001,0,recog,5,APART,HF,lure,-,-,-,conservative,no,m,1,1.08024265007,3,14
2019_Apr_18,108,001,0,recog,6,MYSELF,HF,lure,-,-,-,liberal,yes,z,0,1.28003449042,-1,13
2019_Apr_18,108,001,0,recog,7,COGENT,LF,target,right,aqua,pleasantness,liberal,no,z,1,1.42626353056,3,16
2019_Apr_18,108,001,0,recog,8,SLOWLY,HF,target,left,yellow,imageability,conservative,no,z,1,0.933455266938,1,17
2019_Apr_18,108,001,0,recog,9,DULLED,LF,target,right,aqua,pleasantness,conservative,no,z,1,0.786618391811,1,18
2019_Apr_18,108,001,0,recog,10,SIESTA,LF,target,right,aqua,pleasantness,liberal,no,z,1,0.920036338121,3,21
2019_Apr_18,108,001,0,recog,11,WHITE,HF,target,right,aqua,pleasantness,liberal,no,z,1,0.60020002097,3,24
2019_Apr_18,108,001,0,recog,12,UPTIGHT,LF,lure,-,-,-,liberal,no,m,1,0.813453683194,1,25
2019_Apr_18,108,001,0,recog,13,ANSWER,HF,target,right,aqua,pleasantness,conservative,no,z,1,3.03900042306,1,26
2019_Apr_18,108,001,0,recog,14,PHOBIC,LF,target,left,yellow,imageability,liberal,no,z,1,1.59973406303,3,29
2019_Apr_18,108,001,0,recog,15,WAITING,HF,target,left,yellow,imageability,conservative,no,z,1,1.29319936034,1,30
2019_Apr_18,108,001,0,recog,16,DOING,HF,lure,-,-,-,conservative,no,m,1,0.760074553271,3,33
2019_Apr_18,108,001,0,recog,17,FUTURE,HF,target,left,yellow,imageability,conservative,no,z,1,0.946668162424,1,34
2019_Apr_18,108,001,0,recog,18,USUAL,HF,target,right,aqua,pleasantness,liberal,no,m,0,3.3057472301,-3,31
2019_Apr_18,108,001,0,recog,19,SERIOUS,HF,target,right,aqua,pleasantness,liberal,no,z,1,1.07995266366,3,34
2019_Apr_18,108,001,0,recog,20,CEMENTED,LF,lure,-,-,-,conservative,no,m,1,1.47981166647,3,37
2019_Apr_18,108,001,0,recog,21,TROUBLE,HF,lure,-,-,-,liberal,no,z,0,3.27911467258,-1,36
2019_Apr_18,108,001,0,recog,22,ALMOST,HF,lure,-,-,-,conservative,no,z,0,3.22577183678,-3,33
2019_Apr_18,108,001,0,recog,23,JEALOUSLY,LF,target,left,yellow,imageability,conservative,no,z,1,1.15992072483,1,34
2019_Apr_18,108,001,0,recog,24,WATCH,HF,lure,-,-,-,conservative,no,m,1,1.58642694945,3,37
2019_Apr_18,108,001,0,recog,25,ACCORDING,HF,target,right,aqua,pleasantness,conservative,no,z,1,1.54661339129,1,38
2019_Apr_18,108,001,0,recog,26,USELESSLY,LF,target,right,aqua,pleasantness,liberal,no,z,1,1.09335216229,3,41
2019_Apr_18,108,001,0,recog,27,ENVIRONS,LF,target,left,yellow,imageability,conservative,yes,z,1,0.560222955925,1,42
2019_Apr_18,108,001,0,recog,28,LUNACY,LF,lure,-,-,-,liberal,no,m,1,1.57307804264,1,43
2019_Apr_18,108,001,0,recog,29,EDUCATION,HF,lure,-,-,-,liberal,no,m,1,2.55912826638,1,44
2019_Apr_18,108,001,0,recog,30,CAKED,LF,target,left,yellow,imageability,liberal,no,z,1,0.960021101919,3,47
2019_Apr_18,108,001,0,recog,31,FRIEND,HF,lure,-,-,-,liberal,no,m,1,1.01341269649,1,48
2019_Apr_18,108,001,0,recog,32,TAWNY,LF,target,left,yellow,imageability,conservative,no,z,1,0.826758230519,1,49
2019_Apr_18,108,001,0,recog,33,ARPEGGIO,LF,lure,-,-,-,liberal,no,m,1,0.760091783816,1,50
2019_Apr_18,108,001,0,recog,34,JARRED,LF,target,left,yellow,imageability,conservative,no,z,1,0.760087017921,1,51
2019_Apr_18,108,001,0,recog,35,MORNING,HF,lure,-,-,-,conservative,no,m,1,2.87942760861,3,54
2019_Apr_18,108,001,0,recog,36,BOMBARDED,LF,lure,-,-,-,conservative,no,m,1,1.0134482574,3,57
2019_Apr_18,108,001,0,recog,37,HELICAL,LF,lure,-,-,-,conservative,no,m,1,1.06660449006,3,60
2019_Apr_18,108,001,0,recog,38,BRACES,LF,target,left,yellow,imageability,liberal,no,z,1,0.626855674752,3,63
2019_Apr_18,108,001,0,recog,39,NOTHING,HF,lure,-,-,-,liberal,no,m,1,2.42614255014,1,64
2019_Apr_18,108,001,0,recog,40,ORCHARDS,LF,lure,-,-,-,liberal,no,m,1,0.826730734967,1,65
2019_Apr_18,108,001,0,recog,41,GNARLED,LF,lure,-,-,-,conservative,no,m,1,1.0397501351,3,68
2019_Apr_18,108,001,0,recog,42,REFECTORY,LF,lure,-,-,-,conservative,no,m,1,1.31964678115,3,71
2019_Apr_18,108,001,0,recog,43,MOTHER,HF,lure,-,-,-,liberal,no,m,1,1.173077896,1,72
2019_Apr_18,108,001,0,recog,44,ODDER,LF,target,right,aqua,pleasantness,liberal,no,z,1,0.919892994647,3,75
2019_Apr_18,108,001,0,recog,45,EASILY,HF,lure,-,-,-,conservative,no,m,1,1.18657271254,3,78
2019_Apr_18,108,001,0,recog,46,ENROLMENT,LF,lure,-,-,-,liberal,no,m,1,1.11969363357,1,79
2019_Apr_18,108,001,0,recog,47,BROUGHT,HF,target,left,yellow,imageability,liberal,no,m,0,1.95937330673,-3,76
2019_Apr_18,108,001,0,recog,48,EXCEPT,HF,target,right,aqua,pleasantness,conservative,no,z,1,1.00022912959,1,77
2019_Apr_18,108,001,0,recog,49,SOUND,HF,lure,-,-,-,liberal,no,m,1,0.76008298524,1,78
2019_Apr_18,108,001,0,recog,50,MAJOR,HF,target,left,yellow,imageability,conservative,no,z,1,0.76009398346,1,79
2019_Apr_18,108,001,0,recog,51,HEIFERS,LF,lure,-,-,-,conservative,no,m,1,0.586521167542,3,82
2019_Apr_18,108,001,0,recog,52,VESTIBULE,LF,target,right,aqua,pleasantness,conservative,no,z,1,0.813417389067,1,83
2019_Apr_18,108,001,0,recog,53,BAGGY,LF,lure,-,-,-,liberal,no,m,1,2.98586325399,1,84
2019_Apr_18,108,001,0,recog,54,BOOKS,HF,target,left,yellow,imageability,liberal,no,z,1,0.82676776231,3,87
2019_Apr_18,108,001,0,recog,55,SHUNNED,LF,target,left,yellow,imageability,liberal,no,z,1,1.09327517474,3,90
2019_Apr_18,108,001,0,recog,56,IMPORTANT,HF,lure,-,-,-,conservative,yes,z,0,0.573495241803,-3,87
2019_Apr_18,108,001,0,recog,57,ANVIL,LF,target,left,yellow,imageability,conservative,no,z,1,4.21219123413,1,88
2019_Apr_18,108,001,0,recog,58,FOUND,HF,lure,-,-,-,liberal,no,z,0,4.8784542661,-1,87
2019_Apr_18,108,001,0,recog,59,REACHED,HF,lure,-,-,-,liberal,no,m,1,0.813140967124,1,88
2019_Apr_18,108,001,0,recog,60,GAMBITS,LF,lure,-,-,-,conservative,no,m,1,0.773399997213,3,91
2019_Apr_18,108,001,0,recog,61,GARDEN,HF,lure,-,-,-,conservative,no,m,1,0.773453521887,3,94
2019_Apr_18,108,001,0,recog,62,FALCON,LF,lure,-,-,-,conservative,no,m,1,0.906666901295,3,97
2019_Apr_18,108,001,0,recog,63,TWOFOLD,LF,lure,-,-,-,liberal,no,m,1,0.733190136503,1,98
2019_Apr_18,108,001,0,recog,64,CRICKETER,LF,lure,-,-,-,liberal,no,m,1,0.773418694189,1,99
2019_Apr_18,108,001,0,recog,65,VAINLY,LF,target,right,aqua,pleasantness,conservative,no,m,0,4.518675345,-1,98
2019_Apr_18,108,001,0,recog,66,WINDOW,HF,lure,-,-,-,liberal,no,m,1,1.15988992981,1,99
2019_Apr_18,108,001,0,recog,67,LIKELY,HF,lure,-,-,-,conservative,no,m,1,0.773436291342,3,102
2019_Apr_18,108,001,0,recog,68,OPENED,HF,target,left,yellow,imageability,conservative,no,m,0,0.893377751479,-1,101
2019_Apr_18,108,001,0,recog,69,CREAK,LF,lure,-,-,-,liberal,no,m,1,3.93181286601,1,102
2019_Apr_18,108,001,0,recog,70,REDDENED,LF,lure,-,-,-,conservative,no,m,1,0.773405862932,3,105
2019_Apr_18,108,001,0,recog,71,QUICKLY,HF,target,right,aqua,pleasantness,liberal,yes,z,1,1.35988633706,3,108
2019_Apr_18,108,001,0,recog,72,COBALT,LF,lure,-,-,-,conservative,no,m,1,1.5064295597,3,111
2019_Apr_18,108,001,0,recog,73,BUSINESS,HF,lure,-,-,-,conservative,no,m,1,0.760145308489,3,114
2019_Apr_18,108,001,0,recog,74,AROUND,HF,lure,-,-,-,liberal,no,m,1,3.39906713094,1,115
2019_Apr_18,108,001,0,recog,75,WOMAN,HF,target,right,aqua,pleasantness,conservative,no,z,1,0.866736028777,1,116
2019_Apr_18,108,001,0,recog,76,EXUDED,LF,target,right,aqua,pleasantness,conservative,no,z,1,1.79968244471,1,117
2019_Apr_18,108,001,0,recog,77,HOSPITAL,HF,target,right,aqua,pleasantness,liberal,no,z,1,0.840064610879,3,120
2019_Apr_18,108,001,0,recog,78,ULCER,LF,target,left,yellow,imageability,liberal,no,z,1,0.720100787693,3,123
2019_Apr_18,108,001,0,recog,79,JACKALS,LF,lure,-,-,-,liberal,no,m,1,0.680181280002,1,124
2019_Apr_18,108,001,0,recog,80,TRIED,HF,target,left,yellow,imageability,liberal,no,z,1,1.4264600321,3,127
2019_Apr_18,108,001,0,recog,81,COUNCIL,HF,target,right,aqua,pleasantness,liberal,no,z,1,0.720089789472,3,130
2019_Apr_18,108,001,0,recog,82,RETURN,HF,target,left,yellow,imageability,liberal,no,z,1,4.30538465543,3,133
2019_Apr_18,108,001,0,recog,83,NEITHER,HF,lure,-,-,-,liberal,no,m,1,0.640137125813,1,134
2019_Apr_18,108,001,0,recog,84,SCABS,LF,target,right,aqua,pleasantness,conservative,no,z,1,0.880121596326,1,135
2019_Apr_18,108,001,0,recog,85,YACHTING,LF,target,left,yellow,imageability,liberal,no,z,1,0.840069010167,3,138
2019_Apr_18,108,001,0,recog,86,PIANOS,LF,lure,-,-,-,liberal,no,m,1,0.920118458167,1,139
2019_Apr_18,108,001,0,recog,87,AMULETS,LF,target,left,yellow,imageability,conservative,no,z,1,0.826738800329,1,140
2019_Apr_18,108,001,0,recog,88,AGILITY,LF,target,right,aqua,pleasantness,liberal,no,z,1,0.78661435913,3,143
2019_Apr_18,108,001,0,recog,89,FLOOR,HF,target,left,yellow,imageability,liberal,no,z,1,1.04006248456,3,146
2019_Apr_18,108,001,0,recog,90,SPACE,HF,target,left,yellow,imageability,liberal,no,z,1,2.79930007325,3,149
2019_Apr_18,108,001,0,recog,91,SENSE,HF,lure,-,-,-,conservative,no,m,1,0.680183846254,3,152
2019_Apr_18,108,001,0,recog,92,DRINK,HF,lure,-,-,-,conservative,no,z,0,1.67971275581,-3,149
2019_Apr_18,108,001,0,recog,93,COACHED,LF,lure,-,-,-,liberal,no,m,1,1.9596211333,1,150
2019_Apr_18,108,001,0,recog,94,CIPHER,LF,target,right,aqua,pleasantness,conservative,no,z,1,2.01300282948,1,151
2019_Apr_18,108,001,0,recog,95,PROBABLY,HF,target,right,aqua,pleasantness,conservative,no,z,1,0.773385699527,1,152
2019_Apr_18,108,001,1,source,0,FUSELAGE,LF,target,left,yellow,imageability,conservative,no,1,1,2.67931388701,-,-
2019_Apr_18,108,001,1,source,1,VOLITION,LF,target,right,aqua,pleasantness,liberal,yes,2,0,0.906436671879,-,-
2019_Apr_18,108,001,1,source,2,INVOLVED,HF,target,left,yellow,imageability,liberal,no,8,0,2.47940106624,-,-
2019_Apr_18,108,001,1,source,3,DINER,LF,target,left,yellow,imageability,conservative,no,1,1,2.11969693304,-,-
2019_Apr_18,108,001,1,source,4,SEEMED,HF,target,right,aqua,pleasantness,liberal,no,2,0,1.6131606906,-,-
2019_Apr_18,108,001,1,source,5,UNBEATEN,LF,target,left,yellow,imageability,liberal,no,2,1,0.933352250272,-,-
2019_Apr_18,108,001,1,source,6,PASSED,HF,target,right,aqua,pleasantness,liberal,no,8,1,1.47978747039,-,-
2019_Apr_18,108,001,1,source,7,SMEARING,LF,target,right,aqua,pleasantness,liberal,no,2,0,1.03996643343,-,-
2019_Apr_18,108,001,1,source,8,THOUSAND,HF,target,right,aqua,pleasantness,conservative,no,9,1,1.61293889315,-,-
2019_Apr_18,108,001,1,source,9,AFOOT,LF,target,right,aqua,pleasantness,conservative,no,9,1,1.34650443558,-,-
2019_Apr_18,108,001,1,source,10,NOSTRIL,LF,target,left,yellow,imageability,conservative,no,1,1,1.09330523655,-,-
2019_Apr_18,108,001,1,source,11,HAUNCHES,LF,target,right,aqua,pleasantness,liberal,yes,1,0,0.559935169156,-,-
2019_Apr_18,108,001,1,source,12,TOILED,LF,target,right,aqua,pleasantness,conservative,no,2,0,1.01337566915,-,-
2019_Apr_18,108,001,1,source,13,SOVIET,HF,target,left,yellow,imageability,liberal,no,7,0,1.90630066055,-,-
2019_Apr_18,108,001,1,source,14,AMONG,HF,target,left,yellow,imageability,conservative,no,2,1,1.67986123179,-,-
2019_Apr_18,108,001,1,source,15,MEETING,HF,target,right,aqua,pleasantness,conservative,no,8,1,1.50654100833,-,-
2019_Apr_18,108,001,1,source,16,CLASS,HF,target,left,yellow,imageability,conservative,yes,8,0,0.573463346964,-,-
2019_Apr_18,108,001,1,source,17,UPSTART,LF,target,left,yellow,imageability,liberal,no,3,1,1.53284801852,-,-
2019_Apr_18,108,001,1,source,18,NEEDED,HF,target,right,aqua,pleasantness,liberal,no,8,1,0.973407769289,-,-
2019_Apr_18,108,001,1,source,19,ANOINTED,LF,target,left,yellow,imageability,liberal,no,3,1,1.42621917107,-,-
2019_Apr_18,108,001,1,source,20,MYOPIC,LF,target,right,aqua,pleasantness,liberal,no,3,0,1.17323590376,-,-
2019_Apr_18,108,001,1,source,21,FILAMENTS,LF,target,right,aqua,pleasantness,conservative,no,1,0,2.17262843539,-,-
2019_Apr_18,108,001,1,source,22,MUTATIONS,LF,target,left,yellow,imageability,liberal,no,7,0,1.3996038441,-,-
2019_Apr_18,108,001,1,source,23,MARKET,HF,target,left,yellow,imageability,conservative,no,7,0,0.866679937852,-,-
2019_Apr_18,108,001,1,source,24,HOWEVER,HF,target,left,yellow,imageability,conservative,no,2,1,0.879803014539,-,-
2019_Apr_18,108,001,1,source,25,GOBBLE,LF,target,left,yellow,imageability,conservative,no,8,0,0.800104776381,-,-
2019_Apr_18,108,001,1,source,26,OBNOXIOUS,LF,target,right,aqua,pleasantness,conservative,no,8,1,0.773483217083,-,-
2019_Apr_18,108,001,1,source,27,HEMMED,LF,target,left,yellow,imageability,liberal,no,2,1,0.800075081185,-,-
2019_Apr_18,108,001,1,source,28,NUCLEAR,HF,target,right,aqua,pleasantness,liberal,no,2,0,0.826494273227,-,-
2019_Apr_18,108,001,1,source,29,CHAIR,HF,target,right,aqua,pleasantness,conservative,no,8,1,0.53350424568,-,-
2019_Apr_18,108,001,1,source,30,MEANS,HF,target,right,aqua,pleasantness,conservative,no,2,0,1.13304767289,-,-
2019_Apr_18,108,001,1,source,31,NIGHT,HF,target,left,yellow,imageability,liberal,no,2,1,0.773387165957,-,-
2019_Apr_18,108,001,1,source,32,FABLE,LF,target,left,yellow,imageability,conservative,no,2,1,1.14635845254,-,-
2019_Apr_18,108,001,1,source,33,BETTER,HF,target,left,yellow,imageability,conservative,no,3,1,1.97304006212,-,-
2019_Apr_18,108,001,1,source,34,HORDE,LF,target,right,aqua,pleasantness,conservative,no,3,0,0.693439634801,-,-
2019_Apr_18,108,001,1,source,35,DIZZINESS,LF,target,left,yellow,imageability,liberal,no,3,1,0.760104248466,-,-
2019_Apr_18,108,001,1,source,36,REPORT,HF,target,left,yellow,imageability,conservative,no,3,1,1.9060583331,-,-
2019_Apr_18,108,001,1,source,37,TUSKS,LF,target,right,aqua,pleasantness,liberal,no,3,0,0.546866716965,-,-
2019_Apr_18,108,001,1,source,38,BEYOND,HF,target,right,aqua,pleasantness,liberal,no,3,0,0.493316014802,-,-
2019_Apr_18,108,001,1,source,39,RIGGING,LF,target,left,yellow,imageability,conservative,no,7,0,0.813454416409,-,-
2019_Apr_18,108,001,1,source,40,MILES,HF,target,left,yellow,imageability,liberal,no,7,0,0.826790858572,-,-
2019_Apr_18,108,001,1,source,41,LIVED,HF,target,right,aqua,pleasantness,conservative,no,9,1,0.959777308031,-,-
2019_Apr_18,108,001,1,source,42,BOVINE,LF,target,right,aqua,pleasantness,conservative,no,2,0,0.760059522369,-,-
2019_Apr_18,108,001,1,source,43,SITTING,HF,target,right,aqua,pleasantness,liberal,no,9,1,0.75990591389,-,-
2019_Apr_18,108,001,1,source,44,ICEBOX,LF,target,right,aqua,pleasantness,liberal,yes,9,1,0.520477586726,-,-
2019_Apr_18,108,001,1,source,45,ROUND,HF,target,right,aqua,pleasantness,conservative,no,9,1,0.946682826719,-,-
2019_Apr_18,108,001,1,source,46,ABOVE,HF,target,left,yellow,imageability,liberal,no,1,1,1.19968075832,-,-
2019_Apr_18,108,001,1,source,47,TODAY,HF,target,left,yellow,imageability,liberal,no,1,1,0.986402900011,-,-
2019_Apr_18,108,001,1,recog,0,ANOINTED,LF,target,left,yellow,imageability,liberal,no,z,1,1.26658806605,3,155
2019_Apr_18,108,001,1,recog,1,SOVIET,HF,target,left,yellow,imageability,liberal,no,z,1,1.06661255542,3,158
2019_Apr_18,108,001,1,recog,2,ITSELF,HF,lure,-,-,-,liberal,no,m,1,1.39985020424,1,159
2019_Apr_18,108,001,1,recog,3,BEECHES,LF,lure,-,-,-,liberal,no,m,1,0.853364758915,1,160
2019_Apr_18,108,001,1,recog,4,SACRAMENT,LF,lure,-,-,-,conservative,no,m,1,0.773434458304,3,163
2019_Apr_18,108,001,1,recog,5,FRONT,HF,lure,-,-,-,conservative,no,m,1,1.13326873712,3,166
2019_Apr_18,108,001,1,recog,6,AFOOT,LF,target,right,aqua,pleasantness,conservative,no,z,1,0.493305749796,1,167
2019_Apr_18,108,001,1,recog,7,THEORY,HF,lure,-,-,-,conservative,no,m,1,0.626821213661,3,170
2019_Apr_18,108,001,1,recog,8,UNBEATEN,LF,target,left,yellow,imageability,liberal,no,m,0,1.14667446807,-3,167
2019_Apr_18,108,001,1,recog,9,METABOLIC,LF,lure,-,-,-,conservative,no,m,1,2.01267434929,3,170
2019_Apr_18,108,001,1,recog,10,ABOVE,HF,target,left,yellow,imageability,liberal,no,m,0,0.706555012732,-3,167
2019_Apr_18,108,001,1,recog,11,ACQUIRES,LF,lure,-,-,-,conservative,no,m,1,0.746779904345,3,170
2019_Apr_18,108,001,1,recog,12,FUSELAGE,LF,target,left,yellow,imageability,conservative,no,m,0,0.840003387451,-1,169
2019_Apr_18,108,001,1,recog,13,CLASS,HF,target,left,yellow,imageability,conservative,no,z,1,0.573251081309,1,170
2019_Apr_18,108,001,1,recog,14,DINER,LF,target,left,yellow,imageability,conservative,yes,z,1,0.599903435624,1,171
2019_Apr_18,108,001,1,recog,15,BEYOND,HF,target,right,aqua,pleasantness,liberal,no,m,0,1.23964352568,-3,168
2019_Apr_18,108,001,1,recog,16,RIGGING,LF,target,left,yellow,imageability,conservative,no,z,1,1.11996199015,1,169
2019_Apr_18,108,001,1,recog,17,TOILED,LF,target,right,aqua,pleasantness,conservative,yes,m,0,1.51967764949,-1,168
2019_Apr_18,108,001,1,recog,18,UPSTART,LF,target,left,yellow,imageability,liberal,no,z,1,0.90647406583,3,171
2019_Apr_18,108,001,1,recog,19,SWEARS,LF,lure,-,-,-,liberal,no,m,1,1.07974882997,1,172
2019_Apr_18,108,001,1,recog,20,JUNCTURE,LF,lure,-,-,-,liberal,no,m,1,1.25328755141,1,173
2019_Apr_18,108,001,1,recog,21,THOUSAND,HF,target,right,aqua,pleasantness,conservative,no,z,1,0.826719736746,1,174
2019_Apr_18,108,001,1,recog,22,AREAS,HF,lure,-,-,-,liberal,no,m,1,1.47979150307,1,175
2019_Apr_18,108,001,1,recog,23,EVENING,HF,lure,-,-,-,liberal,no,z,0,1.39985643656,-1,174
2019_Apr_18,108,001,1,recog,24,HAUNCHES,LF,target,right,aqua,pleasantness,liberal,yes,z,1,0.84010457108,3,177
2019_Apr_18,108,001,1,recog,25,PUPPETS,LF,lure,-,-,-,conservative,no,m,1,1.1865510827,3,180
2019_Apr_18,108,001,1,recog,26,HEMMED,LF,target,left,yellow,imageability,liberal,no,z,1,0.866465839161,3,183
2019_Apr_18,108,001,1,recog,27,FILAMENTS,LF,target,right,aqua,pleasantness,conservative,no,z,1,1.10661235012,1,184
2019_Apr_18,108,001,1,recog,28,BLOOD,HF,lure,-,-,-,liberal,no,m,1,0.946658997241,1,185
2019_Apr_18,108,001,1,recog,29,NOSTRIL,LF,target,left,yellow,imageability,conservative,no,z,1,0.82672890193,1,186
2019_Apr_18,108,001,1,recog,30,MOGUL,LF,lure,-,-,-,conservative,no,m,1,0.840097238934,3,189
2019_Apr_18,108,001,1,recog,31,VOLITION,LF,target,right,aqua,pleasantness,liberal,no,z,1,1.26631494358,3,192
2019_Apr_18,108,001,1,recog,32,UNDER,HF,lure,-,-,-,liberal,no,m,1,1.18658187772,1,193
2019_Apr_18,108,001,1,recog,33,PUBLIC,HF,lure,-,-,-,liberal,no,m,1,0.813216854846,1,194
2019_Apr_18,108,001,1,recog,34,HORDE,LF,target,right,aqua,pleasantness,conservative,no,z,1,1.26653710763,1,195
2019_Apr_18,108,001,1,recog,35,ICEBOX,LF,target,right,aqua,pleasantness,liberal,no,z,1,1.77301835896,3,198
2019_Apr_18,108,001,1,recog,36,TUSKS,LF,target,right,aqua,pleasantness,liberal,no,z,1,1.0266567536,3,201
2019_Apr_18,108,001,1,recog,37,YELLOWED,LF,lure,-,-,-,conservative,no,m,1,1.55974526655,3,204
2019_Apr_18,108,001,1,recog,38,GOBBLE,LF,target,left,yellow,imageability,conservative,no,z,1,0.759966037495,1,205
2019_Apr_18,108,001,1,recog,39,PAPER,HF,lure,-,-,-,conservative,no,z,0,0.800093411553,-3,202
2019_Apr_18,108,001,1,recog,40,EIGHT,HF,lure,-,-,-,conservative,no,z,0,1.0133034475,-3,199
2019_Apr_18,108,001,1,recog,41,CLOSE,HF,lure,-,-,-,conservative,no,z,0,1.31984914841,-3,196
2019_Apr_18,108,001,1,recog,42,RANGE,HF,lure,-,-,-,liberal,no,m,1,2.65258344533,1,197
2019_Apr_18,108,001,1,recog,43,POUNDS,HF,lure,-,-,-,conservative,no,m,1,0.840071209812,3,200
2019_Apr_18,108,001,1,recog,44,SMEARING,LF,target,right,aqua,pleasantness,liberal,no,z,1,0.880054873788,3,203
2019_Apr_18,108,001,1,recog,45,SNUBBED,LF,lure,-,-,-,liberal,no,m,1,0.90667166719,1,204
2019_Apr_18,108,001,1,recog,46,EARLIER,HF,lure,-,-,-,liberal,no,m,1,1.77305355327,1,205
2019_Apr_18,108,001,1,recog,47,OUSTED,LF,lure,-,-,-,conservative,no,m,1,0.733168873277,3,208
2019_Apr_18,108,001,1,recog,48,MEETING,HF,target,right,aqua,pleasantness,conservative,no,z,1,0.680144985875,1,209
2019_Apr_18,108,001,1,recog,49,DORMS,LF,lure,-,-,-,conservative,no,z,0,1.19991538702,-3,206
2019_Apr_18,108,001,1,recog,50,SLIGHTLY,HF,lure,-,-,-,liberal,no,z,0,1.19991318738,-1,205
2019_Apr_18,108,001,1,recog,51,NEEDED,HF,target,right,aqua,pleasantness,liberal,no,z,1,1.50644679024,3,208
2019_Apr_18,108,001,1,recog,52,INVOLVED,HF,target,left,yellow,imageability,liberal,no,m,0,1.33325011346,-3,205
2019_Apr_18,108,001,1,recog,53,MILES,HF,target,left,yellow,imageability,liberal,no,z,1,1.61317205543,3,208
2019_Apr_18,108,001,1,recog,54,BOVINE,LF,target,right,aqua,pleasantness,conservative,no,m,0,0.866829880259,-1,207
2019_Apr_18,108,001,1,recog,55,CHIEF,HF,lure,-,-,-,conservative,no,m,1,1.21324852972,3,210
2019_Apr_18,108,001,1,recog,56,AMALGAM,LF,lure,-,-,-,liberal,no,z,0,1.0533329374,-1,209
2019_Apr_18,108,001,1,recog,57,AEROSOL,LF,lure,-,-,-,liberal,no,m,1,1.39990519534,1,210
2019_Apr_18,108,001,1,recog,58,MAKES,HF,lure,-,-,-,conservative,no,m,1,0.853383089283,3,213
2019_Apr_18,108,001,1,recog,59,MYOPIC,LF,target,right,aqua,pleasantness,liberal,no,z,1,1.34631489958,3,216
2019_Apr_18,108,001,1,recog,60,PASSED,HF,target,right,aqua,pleasantness,liberal,no,z,1,1.07961428507,3,219
2019_Apr_18,108,001,1,recog,61,OSTRACISM,LF,lure,-,-,-,liberal,no,m,1,0.626798484005,1,220
2019_Apr_18,108,001,1,recog,62,LIVED,HF,target,right,aqua,pleasantness,conservative,no,z,1,1.14658721552,1,221
2019_Apr_18,108,001,1,recog,63,FABLE,LF,target,left,yellow,imageability,conservative,no,m,0,1.826353496,-1,220
2019_Apr_18,108,001,1,recog,64,MEANS,HF,target,right,aqua,pleasantness,conservative,no,z,1,0.946492924112,1,221
2019_Apr_18,108,001,1,recog,65,AMONG,HF,target,left,yellow,imageability,conservative,no,z,1,1.10674909466,1,222
2019_Apr_18,108,001,1,recog,66,PRIVATE,HF,lure,-,-,-,conservative,no,m,1,0.746752408794,3,225
2019_Apr_18,108,001,1,recog,67,REPORT,HF,target,left,yellow,imageability,conservative,no,z,1,1.25321972905,1,226
2019_Apr_18,108,001,1,recog,68,NIGHT,HF,target,left,yellow,imageability,liberal,no,z,1,0.733422565562,3,229
2019_Apr_18,108,001,1,recog,69,VIVACIOUS,LF,lure,-,-,-,conservative,no,z,0,1.11992129673,-3,226
2019_Apr_18,108,001,1,recog,70,NUCLEAR,HF,target,right,aqua,pleasantness,liberal,no,z,1,0.893364553615,3,229
2019_Apr_18,108,001,1,recog,71,ROUND,HF,target,right,aqua,pleasantness,conservative,no,z,1,0.933353350095,1,230
2019_Apr_18,108,001,1,recog,72,SEEMED,HF,target,right,aqua,pleasantness,liberal,no,z,1,1.54647041442,3,233
2019_Apr_18,108,001,1,recog,73,GLUTINOUS,LF,lure,-,-,-,conservative,no,m,1,0.719836463793,3,236
2019_Apr_18,108,001,1,recog,74,SIMILAR,HF,lure,-,-,-,liberal,no,m,1,1.85305827517,1,237
2019_Apr_18,108,001,1,recog,75,HIPPY,LF,lure,-,-,-,conservative,no,m,1,0.960004604589,3,240
2019_Apr_18,108,001,1,recog,76,BETTER,HF,target,left,yellow,imageability,conservative,no,z,1,0.920049169377,1,241
2019_Apr_18,108,001,1,recog,77,STAFF,HF,lure,-,-,-,conservative,no,z,0,1.69285159661,-3,238
2019_Apr_18,108,001,1,recog,78,OBNOXIOUS,LF,target,right,aqua,pleasantness,conservative,no,z,1,0.853388955,1,239
2019_Apr_18,108,001,1,recog,79,EITHER,HF,lure,-,-,-,liberal,no,m,1,0.960034666391,1,240
2019_Apr_18,108,001,1,recog,80,SINCE,HF,lure,-,-,-,conservative,yes,m,1,0.933039534203,3,243
2019_Apr_18,108,001,1,recog,81,VEHEMENCE,LF,lure,-,-,-,liberal,no,m,1,1.73300573301,1,244
2019_Apr_18,108,001,1,recog,82,TODAY,HF,target,left,yellow,imageability,liberal,no,z,1,1.43985073215,3,247
2019_Apr_18,108,001,1,recog,83,DENIALS,LF,lure,-,-,-,liberal,no,m,1,1.53316183441,1,248
2019_Apr_18,108,001,1,recog,84,HOWEVER,HF,target,left,yellow,imageability,conservative,no,m,0,1.23983599454,-1,247
2019_Apr_18,108,001,1,recog,85,MUTATIONS,LF,target,left,yellow,imageability,liberal,no,z,1,0.986664657658,3,250
2019_Apr_18,108,001,1,recog,86,ANEMONES,LF,lure,-,-,-,conservative,no,m,1,1.37295625568,3,253
2019_Apr_18,108,001,1,recog,87,CHAIR,HF,target,right,aqua,pleasantness,conservative,no,z,1,0.960057762654,1,254
2019_Apr_18,108,001,1,recog,88,MARKET,HF,target,left,yellow,imageability,conservative,no,z,1,0.959977475644,1,255
2019_Apr_18,108,001,1,recog,89,KITCHEN,HF,lure,-,-,-,liberal,no,m,1,0.880043142353,1,256
2019_Apr_18,108,001,1,recog,90,TENABLE,LF,lure,-,-,-,liberal,no,m,1,1.27990287838,1,257
2019_Apr_18,108,001,1,recog,91,DIZZINESS,LF,target,left,yellow,imageability,liberal,no,z,1,0.786746337775,3,260
2019_Apr_18,108,001,1,recog,92,SMOCK,LF,lure,-,-,-,liberal,no,m,1,0.853468142188,1,261
2019_Apr_18,108,001,1,recog,93,VENDETTA,LF,lure,-,-,-,liberal,no,m,1,1.10671023428,1,262
2019_Apr_18,108,001,1,recog,94,SPEAK,HF,lure,-,-,-,conservative,no,m,1,0.773409162397,3,265
2019_Apr_18,108,001,1,recog,95,SITTING,HF,target,right,aqua,pleasantness,liberal,no,z,1,0.613466807737,3,268
2019_Apr_18,108,001,2,source,0,PIPELINES,LF,target,right,aqua,pleasantness,conservative,no,2,0,2.0395759966,-,-
2019_Apr_18,108,001,2,source,1,SUMMER,HF,target,right,aqua,pleasantness,liberal,no,1,0,1.09328214028,-,-
2019_Apr_18,108,001,2,source,2,DRUDGERY,LF,target,left,yellow,imageability,conservative,no,9,0,1.78635003523,-,-
2019_Apr_18,108,001,2,source,3,VARIOUS,HF,target,left,yellow,imageability,liberal,no,8,0,1.01325395551,-,-
2019_Apr_18,108,001,2,source,4,EXACTLY,HF,target,left,yellow,imageability,conservative,no,7,0,1.13325957194,-,-
2019_Apr_18,108,001,2,source,5,TICKLE,LF,target,right,aqua,pleasantness,conservative,no,9,1,0.959713151745,-,-
2019_Apr_18,108,001,2,source,6,FASCINATE,LF,target,left,yellow,imageability,liberal,no,2,1,0.973291921367,-,-
2019_Apr_18,108,001,2,source,7,LIGHT,HF,target,left,yellow,imageability,conservative,no,9,0,0.813415189423,-,-
2019_Apr_18,108,001,2,source,8,INLAID,LF,target,left,yellow,imageability,conservative,no,2,1,0.73309775145,-,-
2019_Apr_18,108,001,2,source,9,AQUARIUM,LF,target,right,aqua,pleasantness,liberal,no,9,1,0.679877729117,-,-
2019_Apr_18,108,001,2,source,10,TAKEN,HF,target,right,aqua,pleasantness,conservative,yes,9,1,0.560209391453,-,-
2019_Apr_18,108,001,2,source,11,UNSAVOURY,LF,target,left,yellow,imageability,liberal,no,9,0,1.19965142973,-,-
2019_Apr_18,108,001,2,source,12,HUNDRED,HF,target,left,yellow,imageability,liberal,no,1,1,0.773364436302,-,-
2019_Apr_18,108,001,2,source,13,GRIEVE,LF,target,left,yellow,imageability,conservative,no,2,1,1.14659344785,-,-
2019_Apr_18,108,001,2,source,14,ORBITAL,LF,target,right,aqua,pleasantness,liberal,no,8,1,0.826500872158,-,-
2019_Apr_18,108,001,2,source,15,HYPNOSIS,LF,target,right,aqua,pleasantness,liberal,yes,8,1,0.519974601442,-,-
2019_Apr_18,108,001,2,source,16,HUBBUB,LF,target,left,yellow,imageability,liberal,no,8,0,0.626794084717,-,-
2019_Apr_18,108,001,2,source,17,CUFFED,LF,target,left,yellow,imageability,liberal,yes,8,0,0.479948777621,-,-
2019_Apr_18,108,001,2,source,18,BREAK,HF,target,left,yellow,imageability,conservative,no,8,0,1.39956095104,-,-
2019_Apr_18,108,001,2,source,19,OTTOMAN,LF,target,left,yellow,imageability,liberal,no,9,0,1.01306038683,-,-
2019_Apr_18,108,001,2,source,20,MEMBERS,HF,target,right,aqua,pleasantness,conservative,no,9,1,1.18658554379,-,-
2019_Apr_18,108,001,2,source,21,BOTANIST,LF,target,right,aqua,pleasantness,conservative,no,7,1,1.05331753989,-,-
2019_Apr_18,108,001,2,source,22,RUNNING,HF,target,right,aqua,pleasantness,liberal,no,7,1,0.773435558127,-,-
2019_Apr_18,108,001,2,source,23,AHEAD,HF,target,left,yellow,imageability,conservative,no,2,1,0.840041514616,-,-
2019_Apr_18,108,001,2,source,24,TRUTH,HF,target,left,yellow,imageability,liberal,no,1,1,1.55993260291,-,-
2019_Apr_18,108,001,2,source,25,OBVIOUSLY,HF,target,right,aqua,pleasantness,conservative,no,8,1,1.05329517684,-,-
2019_Apr_18,108,001,2,source,26,ASKED,HF,target,right,aqua,pleasantness,conservative,yes,8,1,0.533662986662,-,-
2019_Apr_18,108,001,2,source,27,FEELING,HF,target,right,aqua,pleasantness,liberal,no,9,1,2.5861501609,-,-
2019_Apr_18,108,001,2,source,28,OFTEN,HF,target,right,aqua,pleasantness,liberal,no,9,1,0.643204896114,-,-
2019_Apr_18,108,001,2,source,29,MOUTH,HF,target,right,aqua,pleasantness,conservative,no,9,1,0.706819336631,-,-
2019_Apr_18,108,001,2,source,30,DAYBREAK,LF,target,left,yellow,imageability,conservative,no,9,0,0.680111257999,-,-
2019_Apr_18,108,001,2,source,31,INSIDE,HF,target,left,yellow,imageability,liberal,no,2,1,1.71969788622,-,-
2019_Apr_18,108,001,2,source,32,JUBILANT,LF,target,left,yellow,imageability,liberal,no,2,1,0.733218731875,-,-
2019_Apr_18,108,001,2,source,33,GLASS,HF,target,right,aqua,pleasantness,liberal,no,3,0,2.41252125406,-,-
2019_Apr_18,108,001,2,source,34,IDLING,LF,target,right,aqua,pleasantness,liberal,no,3,0,1.25323109388,-,-
2019_Apr_18,108,001,2,source,35,TORMENTS,LF,target,right,aqua,pleasantness,conservative,no,3,0,1.14622794032,-,-
2019_Apr_18,108,001,2,source,36,DECIDED,HF,target,left,yellow,imageability,liberal,no,3,1,0.786644054325,-,-
2019_Apr_18,108,001,2,source,37,CULINARY,LF,target,left,yellow,imageability,conservative,no,9,0,0.92001984079,-,-
2019_Apr_18,108,001,2,source,38,EMPATHY,LF,target,right,aqua,pleasantness,liberal,no,9,1,1.46654304667,-,-
2019_Apr_18,108,001,2,source,39,SEWED,LF,target,right,aqua,pleasantness,liberal,no,8,1,0.826756030874,-,-
2019_Apr_18,108,001,2,source,40,ORPHANAGE,LF,target,right,aqua,pleasantness,conservative,no,9,1,1.11995649104,-,-
2019_Apr_18,108,001,2,source,41,DUBIOUSLY,LF,target,right,aqua,pleasantness,conservative,no,9,1,1.05331240739,-,-
2019_Apr_18,108,001,2,source,42,WRONG,HF,target,right,aqua,pleasantness,liberal,no,1,0,1.07994203205,-,-
2019_Apr_18,108,001,2,source,43,QUALITY,HF,target,right,aqua,pleasantness,conservative,no,9,1,1.8530447107,-,-
2019_Apr_18,108,001,2,source,44,FOLLOWED,HF,target,left,yellow,imageability,liberal,no,2,1,0.786729107231,-,-
2019_Apr_18,108,001,2,source,45,MINISTER,HF,target,left,yellow,imageability,conservative,no,3,1,1.26627864945,-,-
2019_Apr_18,108,001,2,source,46,ENERGY,HF,target,left,yellow,imageability,conservative,no,1,1,1.18659654201,-,-
2019_Apr_18,108,001,2,source,47,SCENARIOS,LF,target,left,yellow,imageability,conservative,no,7,0,0.93338157886,-,-
2019_Apr_18,108,001,2,recog,0,MERELY,HF,lure,-,-,-,conservative,no,m,1,1.38657205264,3,271
2019_Apr_18,108,001,2,recog,1,AQUARIUM,LF,target,right,aqua,pleasantness,liberal,no,z,1,1.05329114416,3,274
2019_Apr_18,108,001,2,recog,2,IRATE,LF,lure,-,-,-,conservative,no,m,1,0.933408707804,3,277
2019_Apr_18,108,001,2,recog,3,GRIEVE,LF,target,left,yellow,imageability,conservative,no,z,1,1.01330088125,1,278
2019_Apr_18,108,001,2,recog,4,AFTERNOON,HF,lure,-,-,-,conservative,no,m,1,1.13013131142,3,281
2019_Apr_18,108,001,2,recog,5,NUMBER,HF,lure,-,-,-,liberal,no,m,1,0.97347559165,1,282
2019_Apr_18,108,001,2,recog,6,LIGHT,HF,target,left,yellow,imageability,conservative,no,z,1,1.65313738904,1,283
2019_Apr_18,108,001,2,recog,7,LAXATIVE,LF,lure,-,-,-,conservative,no,m,1,0.840193656666,3,286
2019_Apr_18,108,001,2,recog,8,INLAID,LF,target,left,yellow,imageability,conservative,no,z,1,1.38659184944,1,287
2019_Apr_18,108,001,2,recog,9,BREAK,HF,target,left,yellow,imageability,conservative,no,z,1,0.946781810703,1,288
2019_Apr_18,108,001,2,recog,10,SEWED,LF,target,right,aqua,pleasantness,liberal,no,z,1,0.666789480129,3,291
2019_Apr_18,108,001,2,recog,11,SKYLIGHT,LF,lure,-,-,-,liberal,no,m,1,0.813417022459,1,292
2019_Apr_18,108,001,2,recog,12,ASKED,HF,target,right,aqua,pleasantness,conservative,no,z,1,0.679995410076,1,293
2019_Apr_18,108,001,2,recog,13,TRUTH,HF,target,left,yellow,imageability,liberal,no,z,1,0.666515991046,3,296
2019_Apr_18,108,001,2,recog,14,TRADE,HF,lure,-,-,-,liberal,yes,z,0,0.706753713916,-1,295
2019_Apr_18,108,001,2,recog,15,HUNDRED,HF,target,left,yellow,imageability,liberal,no,z,1,1.23989941761,3,298
2019_Apr_18,108,001,2,recog,16,FIELD,HF,lure,-,-,-,conservative,no,m,1,0.879821344906,3,301
2019_Apr_18,108,001,2,recog,17,OBESE,LF,lure,-,-,-,liberal,no,m,1,1.05329700988,1,302
2019_Apr_18,108,001,2,recog,18,QUALITY,HF,target,right,aqua,pleasantness,conservative,no,z,1,0.733415966631,1,303
2019_Apr_18,108,001,2,recog,19,DRUDGERY,LF,target,left,yellow,imageability,conservative,no,z,1,1.10676779164,1,304
2019_Apr_18,108,001,2,recog,20,DECIDED,HF,target,left,yellow,imageability,liberal,no,z,1,0.973335547642,3,307
2019_Apr_18,108,001,2,recog,21,LOCAL,HF,lure,-,-,-,conservative,no,m,1,0.773433725089,3,310
2019_Apr_18,108,001,2,recog,22,NORTH,HF,lure,-,-,-,liberal,yes,z,0,0.999983869277,-1,309
2019_Apr_18,108,001,2,recog,23,BOTANIST,LF,target,right,aqua,pleasantness,conservative,no,z,1,1.29351537588,1,310
2019_Apr_18,108,001,2,recog,24,KNUCKLE,LF,lure,-,-,-,conservative,no,m,1,1.6264190454,3,313
2019_Apr_18,108,001,2,recog,25,OBVIOUSLY,HF,target,right,aqua,pleasantness,conservative,no,z,1,0.813180560718,1,314
2019_Apr_18,108,001,2,recog,26,SAINTLY,LF,lure,-,-,-,conservative,no,m,1,1.02665052128,3,317
2019_Apr_18,108,001,2,recog,27,OTTOMAN,LF,target,left,yellow,imageability,liberal,no,z,1,0.746758274511,3,320
2019_Apr_18,108,001,2,recog,28,WRONG,HF,target,right,aqua,pleasantness,liberal,no,m,0,1.10661968227,-3,317
2019_Apr_18,108,001,2,recog,29,HUBBUB,LF,target,left,yellow,imageability,liberal,no,z,1,0.880061106112,3,320
2019_Apr_18,108,001,2,recog,30,CULINARY,LF,target,left,yellow,imageability,conservative,no,z,1,0.86668580357,1,321
2019_Apr_18,108,001,2,recog,31,EMPATHY,LF,target,right,aqua,pleasantness,liberal,no,z,1,0.733496986854,3,324
2019_Apr_18,108,001,2,recog,32,FOLLOWED,HF,target,left,yellow,imageability,liberal,no,z,1,0.586538398087,3,327
2019_Apr_18,108,001,2,recog,33,OCTAGONAL,LF,lure,-,-,-,liberal,no,m,1,0.773459754211,1,328
2019_Apr_18,108,001,2,recog,34,ENOUGH,HF,lure,-,-,-,liberal,no,z,0,0.653190180496,-1,327
2019_Apr_18,108,001,2,recog,35,WALKED,HF,lure,-,-,-,liberal,no,z,0,1.66653762088,-1,326
2019_Apr_18,108,001,2,recog,36,ENERGY,HF,target,left,yellow,imageability,conservative,no,z,1,0.85338638875,1,327
2019_Apr_18,108,001,2,recog,37,DUBIOUSLY,LF,target,right,aqua,pleasantness,conservative,no,z,1,1.15991155964,1,328
2019_Apr_18,108,001,2,recog,38,WEDGES,LF,lure,-,-,-,conservative,no,m,1,0.826707272096,3,331
2019_Apr_18,108,001,2,recog,39,TRYING,HF,lure,-,-,-,liberal,no,m,1,1.79977922905,1,332
2019_Apr_18,108,001,2,recog,40,CUFFED,LF,target,left,yellow,imageability,liberal,no,z,1,0.933338685801,3,335
2019_Apr_18,108,001,2,recog,41,AHEAD,HF,target,left,yellow,imageability,conservative,no,z,1,0.826839250743,1,336
2019_Apr_18,108,001,2,recog,42,UNEARTHED,LF,lure,-,-,-,liberal,no,m,1,1.14661911036,1,337
2019_Apr_18,108,001,2,recog,43,OFTEN,HF,target,right,aqua,pleasantness,liberal,no,z,1,0.666730822953,3,340
2019_Apr_18,108,001,2,recog,44,VARIOUS,HF,target,left,yellow,imageability,liberal,no,m,0,0.973305119232,-3,337
2019_Apr_18,108,001,2,recog,45,COMES,HF,lure,-,-,-,conservative,no,m,1,1.9195663475,3,340
2019_Apr_18,108,001,2,recog,46,SCENARIOS,LF,target,left,yellow,imageability,conservative,yes,m,0,0.640222911932,-1,339
2019_Apr_18,108,001,2,recog,47,OATHS,LF,lure,-,-,-,liberal,no,m,1,2.66604416739,1,340
2019_Apr_18,108,001,2,recog,48,INMATE,LF,lure,-,-,-,liberal,no,z,0,1.2532274278,-1,339
2019_Apr_18,108,001,2,recog,49,PIPELINES,LF,target,right,aqua,pleasantness,conservative,no,z,1,1.58650833628,1,340
2019_Apr_18,108,001,2,recog,50,TAKEN,HF,target,right,aqua,pleasantness,conservative,no,z,1,2.58600058511,1,341
2019_Apr_18,108,001,2,recog,51,DEBACLE,LF,lure,-,-,-,conservative,no,m,1,0.973357544082,3,344
2019_Apr_18,108,001,2,recog,52,RUNNING,HF,target,right,aqua,pleasantness,liberal,no,z,1,0.706771311069,3,347
2019_Apr_18,108,001,2,recog,53,MEMBERS,HF,target,right,aqua,pleasantness,conservative,no,z,1,0.880091534523,1,348
2019_Apr_18,108,001,2,recog,54,SUMMER,HF,target,right,aqua,pleasantness,liberal,no,z,1,0.666783981018,3,351
2019_Apr_18,108,001,2,recog,55,SPOKE,HF,lure,-,-,-,conservative,no,z,0,0.880066605223,-3,348
2019_Apr_18,108,001,2,recog,56,CHOICE,HF,lure,-,-,-,conservative,no,z,0,0.826691874588,-3,345
2019_Apr_18,108,001,2,recog,57,OUTSIDE,HF,lure,-,-,-,conservative,no,m,1,1.30654276805,3,348
2019_Apr_18,108,001,2,recog,58,AXIOM,LF,lure,-,-,-,conservative,no,m,1,0.693414705501,3,351
2019_Apr_18,108,001,2,recog,59,ORPHANAGE,LF,target,right,aqua,pleasantness,conservative,no,z,1,0.88010583221,1,352
2019_Apr_18,108,001,2,recog,60,BECAME,HF,lure,-,-,-,conservative,no,m,1,1.06639039137,3,355
2019_Apr_18,108,001,2,recog,61,UNSAVOURY,LF,target,left,yellow,imageability,liberal,no,z,1,1.4132812311,3,358
2019_Apr_18,108,001,2,recog,62,ASPIRED,LF,lure,-,-,-,liberal,no,m,1,0.840121801625,1,359
2019_Apr_18,108,001,2,recog,63,FEELING,HF,target,right,aqua,pleasantness,liberal,no,z,1,0.773454988316,3,362
2019_Apr_18,108,001,2,recog,64,HYPNOSIS,LF,target,right,aqua,pleasantness,liberal,no,z,1,0.999969204982,3,365
2019_Apr_18,108,001,2,recog,65,SKATES,LF,lure,-,-,-,liberal,no,m,1,1.25325272371,1,366
2019_Apr_18,108,001,2,recog,66,UNTIL,HF,lure,-,-,-,liberal,no,m,1,1.23986349009,1,367
2019_Apr_18,108,001,2,recog,67,SNEAKED,LF,lure,-,-,-,conservative,no,m,1,0.746790902565,3,370
2019_Apr_18,108,001,2,recog,68,IDLING,LF,target,right,aqua,pleasantness,liberal,no,z,1,1.30649107641,3,373
2019_Apr_18,108,001,2,recog,69,GLASS,HF,target,right,aqua,pleasantness,liberal,no,z,1,0.680162583028,3,376
2019_Apr_18,108,001,2,recog,70,CAMPANILE,LF,lure,-,-,-,liberal,no,m,1,0.826732201397,1,377
2019_Apr_18,108,001,2,recog,71,LABOUR,HF,lure,-,-,-,liberal,no,m,1,1.14678298385,1,378
2019_Apr_18,108,001,2,recog,72,INCLUDING,HF,lure,-,-,-,liberal,no,z,0,1.1330333752,-1,377
2019_Apr_18,108,001,2,recog,73,IRONICAL,LF,lure,-,-,-,conservative,no,m,1,0.853381989461,3,380
2019_Apr_18,108,001,2,recog,74,ACORNS,LF,lure,-,-,-,conservative,no,m,1,0.760063188442,3,383
2019_Apr_18,108,001,2,recog,75,CAUGHT,HF,lure,-,-,-,conservative,no,m,1,0.693436701941,3,386
2019_Apr_18,108,001,2,recog,76,JUBILANT,LF,target,left,yellow,imageability,liberal,no,z,1,0.693444034089,3,389
2019_Apr_18,108,001,2,recog,77,DAYBREAK,LF,target,left,yellow,imageability,conservative,no,z,1,1.1064015509,1,390
2019_Apr_18,108,001,2,recog,78,TORMENTS,LF,target,right,aqua,pleasantness,conservative,no,z,1,1.17324360252,1,391
2019_Apr_18,108,001,2,recog,79,MINISTER,HF,target,left,yellow,imageability,conservative,no,z,1,0.880034343777,1,392
2019_Apr_18,108,001,2,recog,80,INSIDE,HF,target,left,yellow,imageability,liberal,no,z,1,0.786578798217,3,395
2019_Apr_18,108,001,2,recog,81,KNOWLEDGE,HF,lure,-,-,-,liberal,no,m,1,0.613493570074,1,396
2019_Apr_18,108,001,2,recog,82,MOUTH,HF,target,right,aqua,pleasantness,conservative,yes,m,0,0.520322511818,-1,395
2019_Apr_18,108,001,2,recog,83,GOADED,LF,lure,-,-,-,conservative,no,m,1,1.02666445236,3,398
2019_Apr_18,108,001,2,recog,84,HALLMARK,LF,lure,-,-,-,liberal,no,m,1,1.61311193182,1,399
2019_Apr_18,108,001,2,recog,85,APPEARED,HF,lure,-,-,-,liberal,no,m,1,0.986681521596,1,400
2019_Apr_18,108,001,2,recog,86,PAGANISM,LF,lure,-,-,-,conservative,no,m,1,1.02665822003,3,403
2019_Apr_18,108,001,2,recog,87,FASCINATE,LF,target,left,yellow,imageability,liberal,no,m,0,0.959688589053,-3,400
2019_Apr_18,108,001,2,recog,88,EXACTLY,HF,target,left,yellow,imageability,conservative,no,z,1,1.0399550686,1,401
2019_Apr_18,108,001,2,recog,89,SYMBOLIZE,LF,lure,-,-,-,liberal,no,z,0,1.04001592542,-1,400
2019_Apr_18,108,001,2,recog,90,PLEASE,HF,lure,-,-,-,conservative,no,z,0,1.02665308753,-3,397
2019_Apr_18,108,001,2,recog,91,ORBITAL,LF,target,right,aqua,pleasantness,liberal,no,z,1,0.826793058217,3,400
2019_Apr_18,108,001,2,recog,92,MUSIC,HF,lure,-,-,-,conservative,no,m,1,0.666793146202,3,403
2019_Apr_18,108,001,2,recog,93,TICKLE,LF,target,right,aqua,pleasantness,conservative,no,z,1,0.74667688768,1,404
2019_Apr_18,108,001,2,recog,94,UNKEMPT,LF,lure,-,-,-,liberal,no,m,1,0.600125966285,1,405
2019_Apr_18,108,001,2,recog,95,WHATEVER,HF,lure,-,-,-,liberal,no,m,1,0.760232927646,1,406
2019_Apr_18,108,001,3,source,0,PAVILIONS,LF,target,left,yellow,imageability,conservative,no,2,1,1.85299191924,-,-
2019_Apr_18,108,001,3,source,1,AVENGE,LF,target,left,yellow,imageability,liberal,no,3,1,1.3198788436,-,-
2019_Apr_18,108,001,3,source,2,SHRED,LF,target,left,yellow,imageability,liberal,no,3,1,2.05280832228,-,-
2019_Apr_18,108,001,3,source,3,CORNER,HF,target,left,yellow,imageability,conservative,no,9,0,1.15991852518,-,-
2019_Apr_18,108,001,3,source,4,BUILDING,HF,target,right,aqua,pleasantness,conservative,no,2,0,1.02642029186,-,-
2019_Apr_18,108,001,3,source,5,JEOPARDY,LF,target,left,yellow,imageability,liberal,no,3,1,3.41241237168,-,-
2019_Apr_18,108,001,3,source,6,TOWARDS,HF,target,left,yellow,imageability,conservative,no,3,1,0.626842843495,-,-
2019_Apr_18,108,001,3,source,7,KEENER,LF,target,left,yellow,imageability,conservative,no,3,1,0.786479447625,-,-
2019_Apr_18,108,001,3,source,8,QUESTION,HF,target,left,yellow,imageability,conservative,no,3,1,1.15969416148,-,-
2019_Apr_18,108,001,3,source,9,LIQUEUR,LF,target,left,yellow,imageability,conservative,yes,3,1,0.559974029536,-,-
2019_Apr_18,108,001,3,source,10,LEARN,HF,target,right,aqua,pleasantness,conservative,no,3,0,0.666802311386,-,-
2019_Apr_18,108,001,3,source,11,BEQUEST,LF,target,right,aqua,pleasantness,conservative,no,1,0,1.13326983694,-,-
2019_Apr_18,108,001,3,source,12,PICTURE,HF,target,left,yellow,imageability,conservative,no,9,0,0.626782353282,-,-
2019_Apr_18,108,001,3,source,13,SOCIAL,HF,target,right,aqua,pleasantness,liberal,no,9,1,0.773600531434,-,-
2019_Apr_18,108,001,3,source,14,SOPHISTS,LF,target,right,aqua,pleasantness,liberal,yes,9,1,0.465325910267,-,-
2019_Apr_18,108,001,3,source,15,VOICE,HF,target,right,aqua,pleasantness,liberal,no,8,1,0.85337502392,-,-
2019_Apr_18,108,001,3,source,16,MONEY,HF,target,right,aqua,pleasantness,conservative,no,9,1,0.680135820691,-,-
2019_Apr_18,108,001,3,source,17,REOPEN,LF,target,right,aqua,pleasantness,liberal,no,8,1,1.13302237698,-,-
2019_Apr_18,108,001,3,source,18,SHALL,HF,target,left,yellow,imageability,liberal,no,1,1,1.23962996121,-,-
2019_Apr_18,108,001,3,source,19,DYNAMISM,LF,target,right,aqua,pleasantness,conservative,no,2,0,1.62610046361,-,-
2019_Apr_18,108,001,3,source,20,BAUXITE,LF,target,right,aqua,pleasantness,conservative,no,2,0,0.693213071459,-,-
2019_Apr_18,108,001,3,source,21,DIDACTIC,LF,target,left,yellow,imageability,conservative,no,2,1,0.82646751089,-,-
2019_Apr_18,108,001,3,source,22,HUMAN,HF,target,left,yellow,imageability,liberal,no,1,1,1.57312753463,-,-
2019_Apr_18,108,001,3,source,23,OTHERS,HF,target,right,aqua,pleasantness,conservative,no,1,0,1.0133232443,-,-
2019_Apr_18,108,001,3,source,24,JUTTED,LF,target,right,aqua,pleasantness,conservative,no,8,1,1.0933279662,-,-
2019_Apr_18,108,001,3,source,25,DEVELOPED,HF,target,right,aqua,pleasantness,conservative,no,8,1,1.3998634021,-,-
2019_Apr_18,108,001,3,source,26,ONCOMING,LF,target,right,aqua,pleasantness,liberal,no,8,1,0.52015900494,-,-
2019_Apr_18,108,001,3,source,27,DONATE,LF,target,right,aqua,pleasantness,liberal,no,3,0,1.91970015918,-,-
2019_Apr_18,108,001,3,source,28,ECONOMIC,HF,target,right,aqua,pleasantness,liberal,no,1,0,1.09330853601,-,-
2019_Apr_18,108,001,3,source,29,EXPECT,HF,target,left,yellow,imageability,liberal,no,2,1,1.71983316433,-,-
2019_Apr_18,108,001,3,source,30,NECESSARY,HF,target,left,yellow,imageability,liberal,no,8,0,1.19966426099,-,-
2019_Apr_18,108,001,3,source,31,PHYSICAL,HF,target,left,yellow,imageability,liberal,no,8,0,0.839851612009,-,-
2019_Apr_18,108,001,3,source,32,EFFECT,HF,target,left,yellow,imageability,conservative,no,8,0,0.613451776836,-,-
2019_Apr_18,108,001,3,source,33,CRUCIALLY,LF,target,right,aqua,pleasantness,liberal,no,2,0,0.826758230518,-,-
2019_Apr_18,108,001,3,source,34,CICADAS,LF,target,left,yellow,imageability,conservative,no,2,1,1.19992308578,-,-
2019_Apr_18,108,001,3,source,35,PLYWOOD,LF,target,left,yellow,imageability,conservative,no,2,1,0.97334141336,-,-
2019_Apr_18,108,001,3,source,36,REQUIRED,HF,target,right,aqua,pleasantness,conservative,no,2,0,0.906665434866,-,-
2019_Apr_18,108,001,3,source,37,UPHEAVALS,LF,target,right,aqua,pleasantness,conservative,no,2,0,0.520208496932,-,-
2019_Apr_18,108,001,3,source,38,REVERE,LF,target,right,aqua,pleasantness,liberal,no,2,0,0.853395920541,-,-
2019_Apr_18,108,001,3,source,39,WAYSIDE,LF,target,left,yellow,imageability,liberal,no,2,1,1.03972923848,-,-
2019_Apr_18,108,001,3,source,40,TATTERS,LF,target,left,yellow,imageability,liberal,no,3,1,0.919800242988,-,-
2019_Apr_18,108,001,3,source,41,BUMBLING,LF,target,right,aqua,pleasantness,conservative,no,8,1,0.546822357475,-,-
2019_Apr_18,108,001,3,source,42,AVAILABLE,HF,target,right,aqua,pleasantness,liberal,no,8,1,0.653310427706,-,-
2019_Apr_18,108,001,3,source,43,GIVEN,HF,target,right,aqua,pleasantness,liberal,no,8,1,0.60022495027,-,-
2019_Apr_18,108,001,3,source,44,WRITE,HF,target,right,aqua,pleasantness,liberal,no,9,1,1.06637242761,-,-
2019_Apr_18,108,001,3,source,45,WITHIN,HF,target,left,yellow,imageability,liberal,yes,9,0,0.533510844612,-,-
2019_Apr_18,108,001,3,source,46,DWELT,LF,target,left,yellow,imageability,liberal,yes,9,0,0.360398854133,-,-
2019_Apr_18,108,001,3,source,47,ADDED,HF,target,left,yellow,imageability,conservative,no,9,0,0.706749681235,-,-
2019_Apr_18,108,001,3,recog,0,TATTERS,LF,target,left,yellow,imageability,liberal,no,z,1,1.97293631224,3,409
2019_Apr_18,108,001,3,recog,1,AVENGE,LF,target,left,yellow,imageability,liberal,no,m,0,0.933099657809,-3,406
2019_Apr_18,108,001,3,recog,2,ODOURS,LF,lure,-,-,-,conservative,no,z,0,1.01330564715,-3,403
2019_Apr_18,108,001,3,recog,3,GADGET,LF,lure,-,-,-,conservative,no,m,1,1.01325725498,3,406
2019_Apr_18,108,001,3,recog,4,CODING,LF,lure,-,-,-,liberal,no,m,1,0.786740472058,1,407
2019_Apr_18,108,001,3,recog,5,HUMAN,HF,target,left,yellow,imageability,liberal,no,z,1,0.733425131813,3,410
2019_Apr_18,108,001,3,recog,6,SLEEP,HF,lure,-,-,-,conservative,no,m,1,0.853301335844,3,413
2019_Apr_18,108,001,3,recog,7,SHRED,LF,target,left,yellow,imageability,liberal,no,z,1,1.91971262383,3,416
2019_Apr_18,108,001,3,recog,8,WAYSIDE,LF,target,left,yellow,imageability,liberal,no,m,0,1.90645903493,-3,413
2019_Apr_18,108,001,3,recog,9,BIRCHES,LF,lure,-,-,-,liberal,no,m,1,0.893415512037,1,414
2019_Apr_18,108,001,3,recog,10,MONEY,HF,target,right,aqua,pleasantness,conservative,no,z,1,0.786651753079,1,415
2019_Apr_18,108,001,3,recog,11,REVERE,LF,target,right,aqua,pleasantness,liberal,no,z,1,0.760120745796,3,418
2019_Apr_18,108,001,3,recog,12,WRITE,HF,target,right,aqua,pleasantness,liberal,no,z,1,1.47979663557,3,421
2019_Apr_18,108,001,3,recog,13,DIVAN,LF,lure,-,-,-,conservative,no,m,1,1.2119503731,3,424
2019_Apr_18,108,001,3,recog,14,PLYWOOD,LF,target,left,yellow,imageability,conservative,no,z,1,0.746768539517,1,425
2019_Apr_18,108,001,3,recog,15,BEAUTIFUL,HF,lure,-,-,-,conservative,no,m,1,0.920011775428,3,428
2019_Apr_18,108,001,3,recog,16,JUTTED,LF,target,right,aqua,pleasantness,conservative,no,z,1,0.920060167598,1,429
2019_Apr_18,108,001,3,recog,17,ECONOMIC,HF,target,right,aqua,pleasantness,liberal,yes,z,1,0.653217309439,3,432
2019_Apr_18,108,001,3,recog,18,FUNNILY,LF,lure,-,-,-,liberal,no,m,1,0.880029944488,1,433
2019_Apr_18,108,001,3,recog,19,RIVER,HF,lure,-,-,-,liberal,no,m,1,0.746754975045,1,434
2019_Apr_18,108,001,3,recog,20,PICTURE,HF,target,left,yellow,imageability,conservative,no,z,1,0.79985584999,1,435
2019_Apr_18,108,001,3,recog,21,TWENTY,HF,lure,-,-,-,conservative,no,m,1,0.999730910205,3,438
2019_Apr_18,108,001,3,recog,22,FUMING,LF,lure,-,-,-,conservative,no,m,1,1.35984417721,3,441
2019_Apr_18,108,001,3,recog,23,NURTURING,LF,lure,-,-,-,conservative,no,m,1,0.680158916954,3,444
2019_Apr_18,108,001,3,recog,24,ADDED,HF,target,left,yellow,imageability,conservative,no,z,1,1.11969363357,1,445
2019_Apr_18,108,001,3,recog,25,PHYSICAL,HF,target,left,yellow,imageability,liberal,no,z,1,0.759868886547,3,448
2019_Apr_18,108,001,3,recog,26,SUNBURN,LF,lure,-,-,-,conservative,no,m,1,1.6930953905,3,451
2019_Apr_18,108,001,3,recog,27,EFFECT,HF,target,left,yellow,imageability,conservative,no,z,1,0.800079113866,1,452
2019_Apr_18,108,001,3,recog,28,BUMBLING,LF,target,right,aqua,pleasantness,conservative,no,m,0,1.66637484722,-1,451
2019_Apr_18,108,001,3,recog,29,SILENCER,LF,lure,-,-,-,liberal,no,m,1,1.35990576725,1,452
2019_Apr_18,108,001,3,recog,30,VOICE,HF,target,right,aqua,pleasantness,liberal,no,z,1,0.680099159956,3,455
2019_Apr_18,108,001,3,recog,31,SHORT,HF,lure,-,-,-,conservative,no,m,1,1.17327989665,3,458
2019_Apr_18,108,001,3,recog,32,DYNAMISM,LF,target,right,aqua,pleasantness,conservative,yes,m,0,0.65344130653,-1,457
2019_Apr_18,108,001,3,recog,33,SHALL,HF,target,left,yellow,imageability,liberal,no,m,0,1.55970603956,-3,454
2019_Apr_18,108,001,3,recog,34,OTHERS,HF,target,right,aqua,pleasantness,conservative,no,z,1,0.786739372236,1,455
2019_Apr_18,108,001,3,recog,35,BUILDING,HF,target,right,aqua,pleasantness,conservative,no,z,1,0.733383705183,1,456
2019_Apr_18,108,001,3,recog,36,FEVERS,LF,lure,-,-,-,conservative,no,m,1,1.10661381655,3,459
2019_Apr_18,108,001,3,recog,37,SPUDS,LF,lure,-,-,-,liberal,no,m,1,1.18638317654,1,460
2019_Apr_18,108,001,3,recog,38,GEYSER,LF,lure,-,-,-,conservative,no,m,1,1.41305796722,3,463
2019_Apr_18,108,001,3,recog,39,NEARLY,HF,lure,-,-,-,liberal,no,m,1,1.79996693202,1,464
2019_Apr_18,108,001,3,recog,40,ORDER,HF,lure,-,-,-,liberal,no,z,0,1.49314737542,-1,463
2019_Apr_18,108,001,3,recog,41,KEENER,LF,target,left,yellow,imageability,conservative,no,z,1,1.11970426518,1,464
2019_Apr_18,108,001,3,recog,42,ALTHOUGH,HF,lure,-,-,-,liberal,no,m,1,0.839792588226,1,465
2019_Apr_18,108,001,3,recog,43,TOTAL,HF,lure,-,-,-,conservative,yes,m,1,0.839809085556,3,468
2019_Apr_18,108,001,3,recog,44,BLIGHTED,LF,lure,-,-,-,conservative,no,z,0,1.45322310184,-3,465
2019_Apr_18,108,001,3,recog,45,ONCOMING,LF,target,right,aqua,pleasantness,liberal,no,z,1,0.773163535474,3,468
2019_Apr_18,108,001,3,recog,46,WITHIN,HF,target,left,yellow,imageability,liberal,no,z,1,1.01334194127,3,471
2019_Apr_18,108,001,3,recog,47,CORNER,HF,target,left,yellow,imageability,conservative,no,z,1,1.57307547639,1,472
2019_Apr_18,108,001,3,recog,48,LEARN,HF,target,right,aqua,pleasantness,conservative,no,z,1,1.2265607758,1,473
2019_Apr_18,108,001,3,recog,49,JEOPARDY,LF,target,left,yellow,imageability,liberal,no,z,1,0.586816653066,3,476
2019_Apr_18,108,001,3,recog,50,CALLED,HF,lure,-,-,-,conservative,no,m,1,0.626911765677,3,479
2019_Apr_18,108,001,3,recog,51,ACTION,HF,lure,-,-,-,liberal,no,m,1,0.840045547297,1,480
2019_Apr_18,108,001,3,recog,52,UNLESS,HF,lure,-,-,-,liberal,no,m,1,1.39990849481,1,481
2019_Apr_18,108,001,3,recog,53,UPHEAVALS,LF,target,right,aqua,pleasantness,conservative,no,z,1,0.693469696603,1,482
2019_Apr_18,108,001,3,recog,54,POWER,HF,lure,-,-,-,conservative,yes,m,1,0.733474990413,3,485
2019_Apr_18,108,001,3,recog,55,QUESTION,HF,target,left,yellow,imageability,conservative,no,z,1,1.54645904959,1,486
2019_Apr_18,108,001,3,recog,56,CHURCH,HF,lure,-,-,-,liberal,no,m,1,0.813160030707,1,487
2019_Apr_18,108,001,3,recog,57,ZIGZAG,LF,lure,-,-,-,liberal,no,m,1,0.799957033618,1,488
2019_Apr_18,108,001,3,recog,58,GIVEN,HF,target,right,aqua,pleasantness,liberal,no,z,1,0.733410100913,3,491
2019_Apr_18,108,001,3,recog,59,RESEARCH,HF,lure,-,-,-,conservative,no,m,1,1.4265249216,3,494
2019_Apr_18,108,001,3,recog,60,SEVEN,HF,lure,-,-,-,conservative,no,m,1,0.973352778187,3,497
2019_Apr_18,108,001,3,recog,61,GREATER,HF,lure,-,-,-,conservative,no,m,1,0.613479272388,3,500
2019_Apr_18,108,001,3,recog,62,NICETIES,LF,lure,-,-,-,liberal,no,m,1,1.05328087915,1,501
2019_Apr_18,108,001,3,recog,63,DONATE,LF,target,right,aqua,pleasantness,liberal,no,z,1,0.693442201052,3,504
2019_Apr_18,108,001,3,recog,64,CAPITAL,HF,lure,-,-,-,conservative,no,m,1,0.813419222103,3,507
2019_Apr_18,108,001,3,recog,65,DIDACTIC,LF,target,left,yellow,imageability,conservative,no,z,1,2.98560296277,1,508
2019_Apr_18,108,001,3,recog,66,LOVELIEST,LF,lure,-,-,-,conservative,no,m,1,0.680219407166,3,511
2019_Apr_18,108,001,3,recog,67,BEQUEST,LF,target,right,aqua,pleasantness,conservative,no,m,0,0.760115246686,-1,510
2019_Apr_18,108,001,3,recog,68,JAILS,LF,lure,-,-,-,liberal,no,m,1,0.786884548746,1,511
2019_Apr_18,108,001,3,recog,69,CRUCIALLY,LF,target,right,aqua,pleasantness,liberal,no,z,1,0.733404235195,3,514
2019_Apr_18,108,001,3,recog,70,BELIEVE,HF,lure,-,-,-,liberal,no,m,1,0.760092883638,1,515
2019_Apr_18,108,001,3,recog,71,DEVELOPED,HF,target,right,aqua,pleasantness,conservative,no,z,1,0.986450192359,1,516
2019_Apr_18,108,001,3,recog,72,OFFER,HF,lure,-,-,-,liberal,no,m,1,0.920048436164,1,517
2019_Apr_18,108,001,3,recog,73,CICADAS,LF,target,left,yellow,imageability,conservative,no,z,1,0.906460501357,1,518
2019_Apr_18,108,001,3,recog,74,AVAILABLE,HF,target,right,aqua,pleasantness,liberal,no,z,1,1.15972898918,3,521
2019_Apr_18,108,001,3,recog,75,ADOPTIVE,LF,lure,-,-,-,liberal,no,m,1,0.733444562003,1,522
2019_Apr_18,108,001,3,recog,76,NECESSARY,HF,target,left,yellow,imageability,liberal,no,z,1,0.826677210293,3,525
2019_Apr_18,108,001,3,recog,77,OBTAINS,LF,lure,-,-,-,liberal,no,m,1,0.813377428865,1,526
2019_Apr_18,108,001,3,recog,78,OLDER,HF,lure,-,-,-,liberal,no,m,1,0.773526476749,1,527
2019_Apr_18,108,001,3,recog,79,REQUIRED,HF,target,right,aqua,pleasantness,conservative,no,z,1,0.666794979239,1,528
2019_Apr_18,108,001,3,recog,80,PAVILIONS,LF,target,left,yellow,imageability,conservative,no,m,0,1.02663439056,-1,527
2019_Apr_18,108,001,3,recog,81,MAYBE,HF,lure,-,-,-,liberal,no,z,0,0.826705805667,-1,526
2019_Apr_18,108,001,3,recog,82,SOPHISTS,LF,target,right,aqua,pleasantness,liberal,no,z,1,0.946412637102,3,529
2019_Apr_18,108,001,3,recog,83,SOCIAL,HF,target,right,aqua,pleasantness,liberal,no,z,1,0.720158711654,3,532
2019_Apr_18,108,001,3,recog,84,MOMENT,HF,lure,-,-,-,liberal,no,m,1,0.600208452939,1,533
2019_Apr_18,108,001,3,recog,85,REOPEN,LF,target,right,aqua,pleasantness,liberal,no,z,1,0.719888522038,3,536
2019_Apr_18,108,001,3,recog,86,HILLSIDES,LF,lure,-,-,-,conservative,no,m,1,0.546826756764,3,539
2019_Apr_18,108,001,3,recog,87,DWELT,LF,target,left,yellow,imageability,liberal,no,z,1,1.38649946439,3,542
2019_Apr_18,108,001,3,recog,88,LIQUEUR,LF,target,left,yellow,imageability,conservative,no,m,0,0.626845043139,-1,541
2019_Apr_18,108,001,3,recog,89,SODDING,LF,lure,-,-,-,conservative,no,m,1,0.866489668639,3,544
2019_Apr_18,108,001,3,recog,90,TERMS,HF,lure,-,-,-,conservative,no,m,1,0.706792940902,3,547
2019_Apr_18,108,001,3,recog,91,DIGESTING,LF,lure,-,-,-,liberal,no,m,1,2.45277950694,1,548
2019_Apr_18,108,001,3,recog,92,BAUXITE,LF,target,right,aqua,pleasantness,conservative,no,z,1,0.826727802108,1,549
2019_Apr_18,108,001,3,recog,93,GIMMICKS,LF,lure,-,-,-,liberal,no,m,1,0.653422976163,1,550
2019_Apr_18,108,001,3,recog,94,EXPECT,HF,target,left,yellow,imageability,liberal,no,z,1,0.879947091227,3,553
2019_Apr_18,108,001,3,recog,95,TOWARDS,HF,target,left,yellow,imageability,conservative,no,z,1,1.18636081349,1,554
2019_Apr_18,108,001,4,source,0,BLUECOATS,LF,target,right,aqua,pleasantness,liberal,no,9,1,2.22622533008,-,-
2019_Apr_18,108,001,4,source,1,SMALL,HF,target,right,aqua,pleasantness,conservative,no,2,0,0.959773641958,-,-
2019_Apr_18,108,001,4,source,2,TWAIN,LF,target,left,yellow,imageability,conservative,yes,2,1,0.533265950902,-,-
2019_Apr_18,108,001,4,source,3,NATIONAL,HF,target,left,yellow,imageability,liberal,no,2,1,1.01340389792,-,-
2019_Apr_18,108,001,4,source,4,MODERN,HF,target,left,yellow,imageability,conservative,no,1,1,1.69285196322,-,-
2019_Apr_18,108,001,4,source,5,CASES,HF,target,left,yellow,imageability,liberal,no,1,1,0.693424970506,-,-
2019_Apr_18,108,001,4,source,6,HOTEL,HF,target,right,aqua,pleasantness,liberal,no,9,1,1.21307622427,-,-
2019_Apr_18,108,001,4,source,7,FATHER,HF,target,right,aqua,pleasantness,conservative,no,9,1,1.1732227059,-,-
2019_Apr_18,108,001,4,source,8,TINGLING,LF,target,right,aqua,pleasantness,conservative,no,8,1,0.826461645172,-,-
2019_Apr_18,108,001,4,source,9,GENERAL,HF,target,right,aqua,pleasantness,conservative,no,8,1,1.15966666593,-,-
2019_Apr_18,108,001,4,source,10,MUGGING,LF,target,right,aqua,pleasantness,conservative,no,9,1,1.013298315,-,-
2019_Apr_18,108,001,4,source,11,LEVEL,HF,target,left,yellow,imageability,conservative,no,3,1,1.02674253972,-,-
2019_Apr_18,108,001,4,source,12,SICKENED,LF,target,right,aqua,pleasantness,liberal,no,1,0,1.10636928945,-,-
2019_Apr_18,108,001,4,source,13,DWINDLE,LF,target,left,yellow,imageability,liberal,no,2,1,1.31961525292,-,-
2019_Apr_18,108,001,4,source,14,MOVED,HF,target,right,aqua,pleasantness,liberal,yes,2,0,0.533498013355,-,-
2019_Apr_18,108,001,4,source,15,TOYED,LF,target,right,aqua,pleasantness,conservative,no,8,1,1.07999995601,-,-
2019_Apr_18,108,001,4,source,16,POINT,HF,target,left,yellow,imageability,liberal,no,9,0,1.22654427847,-,-
2019_Apr_18,108,001,4,source,17,VAULTED,LF,target,left,yellow,imageability,conservative,no,8,0,2.10598031905,-,-
2019_Apr_18,108,001,4,source,18,FIGURE,HF,target,left,yellow,imageability,conservative,no,9,0,1.74633814249,-,-
2019_Apr_18,108,001,4,source,19,JUMBO,LF,target,left,yellow,imageability,conservative,no,1,1,1.93330312489,-,-
2019_Apr_18,108,001,4,source,20,REJOICED,LF,target,right,aqua,pleasantness,conservative,no,1,0,1.31982568554,-,-
2019_Apr_18,108,001,4,source,21,CLEAR,HF,target,left,yellow,imageability,conservative,no,1,1,0.759982901433,-,-
2019_Apr_18,108,001,4,source,22,GORGED,LF,target,right,aqua,pleasantness,liberal,no,9,1,0.773402563465,-,-
2019_Apr_18,108,001,4,source,23,NUANCE,LF,target,left,yellow,imageability,conservative,no,9,0,1.066691376,-,-
2019_Apr_18,108,001,4,source,24,WHETHER,HF,target,right,aqua,pleasantness,liberal,no,9,1,0.973089554111,-,-
2019_Apr_18,108,001,4,source,25,GASEOUS,LF,target,right,aqua,pleasantness,conservative,no,2,0,2.26590067727,-,-
2019_Apr_18,108,001,4,source,26,TABLE,HF,target,left,yellow,imageability,liberal,no,1,1,0.866744827354,-,-
2019_Apr_18,108,001,4,source,27,FORCE,HF,target,left,yellow,imageability,liberal,no,2,1,0.773437757771,-,-
2019_Apr_18,108,001,4,source,28,HAVING,HF,target,right,aqua,pleasantness,conservative,no,2,0,1.3865500562,-,-
2019_Apr_18,108,001,4,source,29,FAILINGS,LF,target,left,yellow,imageability,conservative,yes,2,1,0.506877187271,-,-
2019_Apr_18,108,001,4,source,30,VINEYARDS,LF,target,left,yellow,imageability,liberal,no,1,1,0.946648365628,-,-
2019_Apr_18,108,001,4,source,31,BABBLED,LF,target,right,aqua,pleasantness,liberal,yes,2,0,0.480209068839,-,-
2019_Apr_18,108,001,4,source,32,LEPROSY,LF,target,right,aqua,pleasantness,liberal,no,2,0,1.67970579027,-,-
2019_Apr_18,108,001,4,source,33,INEDIBLE,LF,target,left,yellow,imageability,liberal,no,2,1,1.43981113856,-,-
2019_Apr_18,108,001,4,source,34,VILLAGE,HF,target,right,aqua,pleasantness,liberal,no,8,1,0.746503482403,-,-
2019_Apr_18,108,001,4,source,35,ALABASTER,LF,target,right,aqua,pleasantness,conservative,no,8,1,1.89301187735,-,-
2019_Apr_18,108,001,4,source,36,MATERIAL,HF,target,left,yellow,imageability,conservative,no,8,0,0.773379833809,-,-
2019_Apr_18,108,001,4,source,37,RECENT,HF,target,right,aqua,pleasantness,conservative,no,8,1,0.57349157573,-,-
2019_Apr_18,108,001,4,source,38,TETHER,LF,target,left,yellow,imageability,liberal,no,8,0,0.746500916152,-,-
2019_Apr_18,108,001,4,source,39,SORRY,HF,target,left,yellow,imageability,liberal,no,8,0,0.786833590326,-,-
2019_Apr_18,108,001,4,source,40,DIFFERENT,HF,target,right,aqua,pleasantness,liberal,no,2,0,0.653473567976,-,-
2019_Apr_18,108,001,4,source,41,DELEGATED,LF,target,right,aqua,pleasantness,liberal,no,1,0,1.33318559057,-,-
2019_Apr_18,108,001,4,source,42,RADIAL,LF,target,left,yellow,imageability,conservative,no,1,1,0.866807883817,-,-
2019_Apr_18,108,001,4,source,43,UNION,HF,target,right,aqua,pleasantness,liberal,no,9,1,1.06662282043,-,-
2019_Apr_18,108,001,4,source,44,INTEREST,HF,target,right,aqua,pleasantness,conservative,no,9,1,0.720106286803,-,-
2019_Apr_18,108,001,4,source,45,WARDROBES,LF,target,left,yellow,imageability,liberal,no,1,1,1.02666775182,-,-
2019_Apr_18,108,001,4,source,46,LODGERS,LF,target,left,yellow,imageability,liberal,no,1,1,0.813399425307,-,-
2019_Apr_18,108,001,4,source,47,PERHAPS,HF,target,left,yellow,imageability,conservative,no,8,0,1.47981093326,-,-
2019_Apr_18,108,001,4,recog,0,UNION,HF,target,right,aqua,pleasantness,liberal,no,z,1,1.13333435983,3,557
2019_Apr_18,108,001,4,recog,1,INDEED,HF,lure,-,-,-,conservative,no,m,1,0.880022978949,3,560
2019_Apr_18,108,001,4,recog,2,VINEYARDS,LF,target,left,yellow,imageability,liberal,no,z,1,0.773401463643,3,563
2019_Apr_18,108,001,4,recog,3,TETHER,LF,target,left,yellow,imageability,liberal,no,z,1,0.693487660364,3,566
2019_Apr_18,108,001,4,recog,4,LETTER,HF,lure,-,-,-,liberal,no,m,1,0.840016951924,1,567
2019_Apr_18,108,001,4,recog,5,PERHAPS,HF,target,left,yellow,imageability,conservative,no,z,1,0.920029005973,1,568
2019_Apr_18,108,001,4,recog,6,BLUECOATS,LF,target,right,aqua,pleasantness,liberal,no,z,1,0.666757218683,3,571
2019_Apr_18,108,001,4,recog,7,KINDEST,LF,lure,-,-,-,conservative,no,m,1,0.880028844666,3,574
2019_Apr_18,108,001,4,recog,8,REJOICED,LF,target,right,aqua,pleasantness,conservative,no,z,1,0.69348399429,1,575
2019_Apr_18,108,001,4,recog,9,IDIOCY,LF,lure,-,-,-,conservative,no,m,1,1.1066064844,3,578
2019_Apr_18,108,001,4,recog,10,GETTING,HF,lure,-,-,-,liberal,no,m,1,0.826759330341,1,579
2019_Apr_18,108,001,4,recog,11,FOCUSES,LF,lure,-,-,-,conservative,no,m,1,0.719851861302,3,582
2019_Apr_18,108,001,4,recog,12,ROBBERIES,LF,lure,-,-,-,conservative,no,m,1,0.773425659729,3,585
2019_Apr_18,108,001,4,recog,13,WARDROBES,LF,target,left,yellow,imageability,liberal,no,z,1,1.05308034493,3,588
2019_Apr_18,108,001,4,recog,14,FITFUL,LF,lure,-,-,-,liberal,no,m,1,0.693455765523,1,589
2019_Apr_18,108,001,4,recog,15,SMALL,HF,target,right,aqua,pleasantness,conservative,no,z,1,0.720124250563,1,590
2019_Apr_18,108,001,4,recog,16,SAYING,HF,lure,-,-,-,conservative,no,m,1,0.626794817932,3,593
2019_Apr_18,108,001,4,recog,17,UGLIEST,LF,lure,-,-,-,liberal,no,m,1,0.76009398346,1,594
2019_Apr_18,108,001,4,recog,18,TOYED,LF,target,right,aqua,pleasantness,conservative,yes,m,0,0.933364714922,-1,593
2019_Apr_18,108,001,4,recog,19,DELEGATED,LF,target,right,aqua,pleasantness,liberal,no,z,1,1.0397655326,3,596
2019_Apr_18,108,001,4,recog,20,MICROCOSM,LF,lure,-,-,-,conservative,no,m,1,0.866705966974,3,599
2019_Apr_18,108,001,4,recog,21,SEQUEL,LF,lure,-,-,-,conservative,no,m,1,1.41321414195,3,602
2019_Apr_18,108,001,4,recog,22,HASSLE,LF,lure,-,-,-,liberal,no,m,1,0.880100699707,1,603
2019_Apr_18,108,001,4,recog,23,VICEREGAL,LF,lure,-,-,-,liberal,no,z,0,1.43978071015,-1,602
2019_Apr_18,108,001,4,recog,24,TWAIN,LF,target,left,yellow,imageability,conservative,no,z,1,0.666903861622,1,603
2019_Apr_18,108,001,4,recog,25,UNJUSTLY,LF,lure,-,-,-,liberal,no,m,1,0.826735134255,1,604
2019_Apr_18,108,001,4,recog,26,WEEKS,HF,lure,-,-,-,conservative,no,m,1,0.666768950117,3,607
2019_Apr_18,108,001,4,recog,27,TABLE,HF,target,left,yellow,imageability,liberal,no,z,1,0.560244952367,3,610
2019_Apr_18,108,001,4,recog,28,POINT,HF,target,left,yellow,imageability,liberal,yes,z,1,0.653462936363,3,613
2019_Apr_18,108,001,4,recog,29,SYSTEM,HF,lure,-,-,-,liberal,no,m,1,0.680134354261,1,614
2019_Apr_18,108,001,4,recog,30,INTEREST,HF,target,right,aqua,pleasantness,conservative,no,z,1,0.760121112404,1,615
2019_Apr_18,108,001,4,recog,31,HOTEL,HF,target,right,aqua,pleasantness,liberal,no,z,1,0.799797192814,3,618
2019_Apr_18,108,001,4,recog,32,MATERIAL,HF,target,left,yellow,imageability,conservative,no,z,1,0.693541551644,1,619
2019_Apr_18,108,001,4,recog,33,ANIMAL,HF,lure,-,-,-,liberal,no,m,1,0.520451557605,1,620
2019_Apr_18,108,001,4,recog,34,JUMBO,LF,target,left,yellow,imageability,conservative,no,z,1,0.680419574779,1,621
2019_Apr_18,108,001,4,recog,35,ALABASTER,LF,target,right,aqua,pleasantness,conservative,no,z,1,1.34652753184,1,622
2019_Apr_18,108,001,4,recog,36,RAFTERS,LF,lure,-,-,-,liberal,no,z,0,1.39986523514,-1,621
2019_Apr_18,108,001,4,recog,37,LONGER,HF,lure,-,-,-,conservative,no,m,1,0.586850014334,3,624
2019_Apr_18,108,001,4,recog,38,ALREADY,HF,lure,-,-,-,liberal,no,z,0,1.29320449285,-1,623
2019_Apr_18,108,001,4,recog,39,LEPROSY,LF,target,right,aqua,pleasantness,liberal,no,z,1,0.853425249128,3,626
2019_Apr_18,108,001,4,recog,40,CRONE,LF,lure,-,-,-,liberal,no,m,1,0.653493364774,1,627
2019_Apr_18,108,001,4,recog,41,PIECE,HF,lure,-,-,-,conservative,no,z,0,1.15978508011,-3,624
2019_Apr_18,108,001,4,recog,42,DURING,HF,lure,-,-,-,liberal,no,m,1,2.10623034526,1,625
2019_Apr_18,108,001,4,recog,43,HEALTH,HF,lure,-,-,-,liberal,no,m,1,0.773423826692,1,626
2019_Apr_18,108,001,4,recog,44,MOVED,HF,target,right,aqua,pleasantness,liberal,no,m,0,1.17321794,-3,623
2019_Apr_18,108,001,4,recog,45,CASES,HF,target,left,yellow,imageability,liberal,no,z,1,0.719895854184,3,626
2019_Apr_18,108,001,4,recog,46,BABBLED,LF,target,right,aqua,pleasantness,liberal,no,z,1,0.733421099132,3,629
2019_Apr_18,108,001,4,recog,47,GENERAL,HF,target,right,aqua,pleasantness,conservative,no,z,1,0.773165735118,1,630
2019_Apr_18,108,001,4,recog,48,PIGLETS,LF,lure,-,-,-,liberal,no,m,1,1.82630693687,1,631
2019_Apr_18,108,001,4,recog,49,HAVING,HF,target,right,aqua,pleasantness,conservative,no,z,1,0.786796196375,1,632
2019_Apr_18,108,001,4,recog,50,MUGGING,LF,target,right,aqua,pleasantness,conservative,no,m,0,1.47982779719,-1,631
2019_Apr_18,108,001,4,recog,51,NUANCE,LF,target,left,yellow,imageability,conservative,no,z,1,0.866487102387,1,632
2019_Apr_18,108,001,4,recog,52,RECENT,HF,target,right,aqua,pleasantness,conservative,no,z,1,1.16011575994,1,633
2019_Apr_18,108,001,4,recog,53,LOOKED,HF,lure,-,-,-,liberal,no,m,1,1.91964993397,1,634
2019_Apr_18,108,001,4,recog,54,FAMILY,HF,lure,-,-,-,conservative,no,m,1,1.26653454138,3,637
2019_Apr_18,108,001,4,recog,55,GORGED,LF,target,right,aqua,pleasantness,liberal,no,m,0,1.06648130999,-3,634
2019_Apr_18,108,001,4,recog,56,VILLAGE,HF,target,right,aqua,pleasantness,liberal,no,z,1,0.853402519472,3,637
2019_Apr_18,108,001,4,recog,57,LODGERS,LF,target,left,yellow,imageability,liberal,yes,z,1,0.760070153982,3,640
2019_Apr_18,108,001,4,recog,58,FORCE,HF,target,left,yellow,imageability,liberal,no,z,1,1.07995339687,3,643
2019_Apr_18,108,001,4,recog,59,OBSCURELY,LF,lure,-,-,-,conservative,no,m,1,0.826707272096,3,646
2019_Apr_18,108,001,4,recog,60,VERBALLY,LF,lure,-,-,-,liberal,no,m,1,0.919990878809,1,647
2019_Apr_18,108,001,4,recog,61,BAFFLING,LF,lure,-,-,-,conservative,no,m,1,1.71975287732,3,650
2019_Apr_18,108,001,4,recog,62,TINGLING,LF,target,right,aqua,pleasantness,conservative,no,z,1,0.800033287947,1,651
2019_Apr_18,108,001,4,recog,63,WHOLE,HF,lure,-,-,-,conservative,no,m,1,0.986529379546,3,654
2019_Apr_18,108,001,4,recog,64,GASEOUS,LF,target,right,aqua,pleasantness,conservative,no,z,1,0.733457759868,1,655
2019_Apr_18,108,001,4,recog,65,SAPLINGS,LF,lure,-,-,-,conservative,no,m,1,1.38667653574,3,658
2019_Apr_18,108,001,4,recog,66,FREEDOM,HF,lure,-,-,-,liberal,no,m,1,0.720100421086,1,659
2019_Apr_18,108,001,4,recog,67,FAILINGS,LF,target,left,yellow,imageability,conservative,no,z,1,0.653440206708,1,660
2019_Apr_18,108,001,4,recog,68,DWINDLE,LF,target,left,yellow,imageability,liberal,no,z,1,1.3466650096,3,663
2019_Apr_18,108,001,4,recog,69,VISCOUS,LF,lure,-,-,-,conservative,no,m,1,0.800165999807,3,666
2019_Apr_18,108,001,4,recog,70,DOCTOR,HF,lure,-,-,-,conservative,no,m,1,0.760111580613,3,669
2019_Apr_18,108,001,4,recog,71,ALLOWED,HF,lure,-,-,-,conservative,no,z,0,2.0529890597,-3,666
2019_Apr_18,108,001,4,recog,72,NATIONAL,HF,target,left,yellow,imageability,liberal,no,z,1,1.23993497852,3,669
2019_Apr_18,108,001,4,recog,73,HAPPEN,HF,lure,-,-,-,liberal,no,m,1,0.720123883955,1,670
2019_Apr_18,108,001,4,recog,74,DIFFERENT,HF,target,right,aqua,pleasantness,liberal,no,z,1,1.41316721621,3,673
2019_Apr_18,108,001,4,recog,75,FIGURE,HF,target,left,yellow,imageability,conservative,no,z,1,0.760123678656,1,674
2019_Apr_18,108,001,4,recog,76,MODERN,HF,target,left,yellow,imageability,conservative,no,z,1,0.786774566543,1,675
2019_Apr_18,108,001,4,recog,77,POLICE,HF,lure,-,-,-,liberal,no,m,1,0.626939261228,1,676
2019_Apr_18,108,001,4,recog,78,INEDIBLE,LF,target,left,yellow,imageability,liberal,no,z,1,0.94670885584,3,679
2019_Apr_18,108,001,4,recog,79,ADMIRALS,LF,lure,-,-,-,conservative,no,z,0,1.03972887187,-3,676
2019_Apr_18,108,001,4,recog,80,VULTURE,LF,lure,-,-,-,liberal,no,z,0,0.626771355061,-1,675
2019_Apr_18,108,001,4,recog,81,FATHER,HF,target,right,aqua,pleasantness,conservative,yes,m,0,0.680110891391,-1,674
2019_Apr_18,108,001,4,recog,82,VAULTED,LF,target,left,yellow,imageability,conservative,no,m,0,0.852651341012,-1,673
2019_Apr_18,108,001,4,recog,83,SORRY,HF,target,left,yellow,imageability,liberal,no,z,1,0.786525640151,3,676
2019_Apr_18,108,001,4,recog,84,CLEAR,HF,target,left,yellow,imageability,conservative,no,m,0,1.26656350336,-1,675
2019_Apr_18,108,001,4,recog,85,SICKENED,LF,target,right,aqua,pleasantness,liberal,no,z,1,0.813112005144,3,678
2019_Apr_18,108,001,4,recog,86,WHETHER,HF,target,right,aqua,pleasantness,liberal,no,z,1,0.640115129372,3,681
2019_Apr_18,108,001,4,recog,87,LARGE,HF,lure,-,-,-,liberal,no,m,1,0.840181925231,1,682
2019_Apr_18,108,001,4,recog,88,SPRATS,LF,lure,-,-,-,liberal,no,m,1,0.866502499895,1,683
2019_Apr_18,108,001,4,recog,89,LULLED,LF,lure,-,-,-,liberal,no,m,1,0.839841347004,1,684
2019_Apr_18,108,001,4,recog,90,EVIDENCE,HF,lure,-,-,-,conservative,no,m,1,0.973282389577,3,687
2019_Apr_18,108,001,4,recog,91,LEVEL,HF,target,left,yellow,imageability,conservative,no,z,1,0.826798557327,1,688
2019_Apr_18,108,001,4,recog,92,BEHIND,HF,lure,-,-,-,conservative,no,m,1,1.66639281098,3,691
2019_Apr_18,108,001,4,recog,93,RADIAL,LF,target,left,yellow,imageability,conservative,no,z,1,1.01331481233,1,692
2019_Apr_18,108,001,4,recog,94,AUDACIOUS,LF,lure,-,-,-,conservative,no,m,1,1.56000335812,3,695
2019_Apr_18,108,001,4,recog,95,DEGREE,HF,lure,-,-,-,conservative,no,m,1,0.693464564099,3,698
