subj,session,cycle,task,trial,item,wf,type,source,colour,encoding,bias,null,response,corr,rt,points,total
109,001,0,source,0,TOWARDS,HF,target,right,yellow,imageability,liberal,yes,1,0,1.98614004254,-,-
109,001,0,source,1,TAKEN,HF,target,left,aqua,pleasantness,liberal,no,1,1,2.10613576061,-,-
109,001,0,source,2,ADDED,HF,target,left,aqua,pleasantness,liberal,no,7,0,3.15906249703,-,-
109,001,0,source,3,HAUNCHES,LF,target,left,aqua,pleasantness,conservative,no,1,1,1.70630058728,-,-
109,001,0,source,4,CYNIC,LF,target,left,aqua,pleasantness,conservative,no,1,1,1.73295587441,-,-
109,001,0,source,5,DOODLE,LF,target,right,yellow,imageability,liberal,no,8,1,2.34611766483,-,-
109,001,0,source,6,NUMBER,HF,target,left,aqua,pleasantness,liberal,no,1,1,1.61305767391,-,-
109,001,0,source,7,CLEAR,HF,target,left,aqua,pleasantness,conservative,no,1,1,2.46599716833,-,-
109,001,0,source,8,PEEKED,LF,target,right,yellow,imageability,conservative,no,7,1,2.10617352114,-,-
109,001,0,source,9,POLICE,HF,target,left,aqua,pleasantness,conservative,yes,7,0,0.813329769881,-,-
109,001,0,source,10,RESEARCH,HF,target,right,yellow,imageability,liberal,no,1,0,1.86595625494,-,-
109,001,0,source,11,NEITHER,HF,target,right,yellow,imageability,liberal,no,9,1,1.95927615574,-,-
109,001,0,source,12,MADDENED,LF,target,right,yellow,imageability,conservative,no,8,1,1.9994559547,-,-
109,001,0,source,13,HOARD,LF,target,right,yellow,imageability,liberal,no,2,0,1.93287932681,-,-
109,001,0,source,14,BIRCHES,LF,target,right,yellow,imageability,conservative,no,8,1,1.4663399462,-,-
109,001,0,source,15,EIGHT,HF,target,left,aqua,pleasantness,conservative,no,1,1,1.30643645191,-,-
109,001,0,source,16,TROUBLE,HF,target,left,aqua,pleasantness,liberal,no,1,1,1.22625979118,-,-
109,001,0,source,17,HUMAN,HF,target,left,aqua,pleasantness,conservative,no,1,1,0.933350050589,-,-
109,001,0,source,18,ALREADY,HF,target,right,yellow,imageability,liberal,no,8,1,1.29286501446,-,-
109,001,0,source,19,DESERTER,LF,target,right,yellow,imageability,liberal,no,9,1,2.0661491637,-,-
109,001,0,source,20,DARKEN,LF,target,right,yellow,imageability,liberal,no,1,0,2.05283068534,-,-
109,001,0,source,21,REACHED,HF,target,right,yellow,imageability,conservative,no,7,1,1.77297509933,-,-
109,001,0,source,22,DEVELOPED,HF,target,right,yellow,imageability,conservative,no,8,1,1.98608945071,-,-
109,001,0,source,23,SMOCK,LF,target,left,aqua,pleasantness,liberal,no,1,1,1.23980043363,-,-
109,001,0,source,24,MOTHER,HF,target,left,aqua,pleasantness,liberal,no,1,1,1.21315394505,-,-
109,001,0,source,25,APOSTLE,LF,target,right,yellow,imageability,liberal,no,9,1,2.21276094194,-,-
109,001,0,source,26,MAILBOX,LF,target,left,aqua,pleasantness,conservative,no,1,1,0.973248661729,-,-
109,001,0,source,27,AUDACIOUS,LF,target,left,aqua,pleasantness,conservative,no,1,1,1.38653942459,-,-
109,001,0,source,28,SHEARING,LF,target,left,aqua,pleasantness,liberal,no,1,1,0.853332497471,-,-
109,001,0,source,29,EARLIER,HF,target,right,yellow,imageability,liberal,no,8,1,1.62630026462,-,-
109,001,0,source,30,NOSTRIL,LF,target,left,aqua,pleasantness,liberal,no,1,1,0.839962327387,-,-
109,001,0,source,31,OUGHT,HF,target,left,aqua,pleasantness,liberal,no,8,0,2.03954006906,-,-
109,001,0,source,32,INTEREST,HF,target,left,aqua,pleasantness,conservative,no,7,0,2.21272318141,-,-
109,001,0,source,33,ORPHANAGE,LF,target,left,aqua,pleasantness,conservative,no,8,0,1.91953408608,-,-
109,001,0,source,34,FEELING,HF,target,right,yellow,imageability,liberal,no,8,1,0.919897027314,-,-
109,001,0,source,35,PUMPKIN,LF,target,left,aqua,pleasantness,conservative,no,1,1,1.65298194753,-,-
109,001,0,source,36,BAFFLING,LF,target,left,aqua,pleasantness,liberal,no,2,1,2.3326771062,-,-
109,001,0,source,37,SYSTEM,HF,target,right,yellow,imageability,conservative,no,2,0,1.26649824722,-,-
109,001,0,source,38,POSITION,HF,target,right,yellow,imageability,conservative,no,2,0,2.27940319257,-,-
109,001,0,source,39,VILLAGE,HF,target,right,yellow,imageability,conservative,no,9,1,1.83961001778,-,-
109,001,0,source,40,TERMS,HF,target,left,aqua,pleasantness,conservative,no,1,1,1.42639440938,-,-
109,001,0,source,41,RUDIMENTS,LF,target,right,yellow,imageability,conservative,yes,8,1,1.22645226005,-,-
109,001,0,source,42,VEILING,LF,target,left,aqua,pleasantness,liberal,no,2,1,2.63920740958,-,-
109,001,0,source,43,LOANED,LF,target,right,yellow,imageability,liberal,no,3,0,1.71937343874,-,-
109,001,0,source,44,DEITIES,LF,target,left,aqua,pleasantness,liberal,no,1,1,1.62615252187,-,-
109,001,0,source,45,GUESSWORK,LF,target,right,yellow,imageability,conservative,yes,2,0,1.13318625046,-,-
109,001,0,source,46,TAMING,LF,target,right,yellow,imageability,conservative,no,3,0,2.51920912525,-,-
109,001,0,source,47,LEVEL,HF,target,right,yellow,imageability,conservative,no,3,0,1.54629994201,-,-
109,001,0,recog,0,PEEKED,LF,target,right,yellow,imageability,conservative,no,z,1,1.54631533951,1,1
109,001,0,recog,1,HAUNCHES,LF,target,left,aqua,pleasantness,conservative,no,z,1,1.27962792286,1,2
109,001,0,recog,2,LEVEL,HF,target,right,yellow,imageability,conservative,yes,m,0,2.35935512302,-1,1
109,001,0,recog,3,INTEREST,HF,target,left,aqua,pleasantness,conservative,no,z,1,1.23980409972,1,2
109,001,0,recog,4,SUDDENLY,HF,lure,-,-,-,liberal,no,m,1,1.35975179216,1,3
109,001,0,recog,5,DIFFERENT,HF,lure,-,-,-,conservative,no,m,1,1.43968685862,3,6
109,001,0,recog,6,WISPY,LF,lure,-,-,-,conservative,no,m,1,0.893056970031,3,9
109,001,0,recog,7,ALDER,LF,lure,-,-,-,liberal,no,m,1,0.719964776363,1,10
109,001,0,recog,8,HUMAN,HF,target,left,aqua,pleasantness,conservative,no,z,1,2.53262952052,1,11
109,001,0,recog,9,GANGWAY,LF,lure,-,-,-,conservative,no,m,1,1.1998281345,3,14
109,001,0,recog,10,DAUGHTER,HF,lure,-,-,-,conservative,no,m,1,2.0925584574,3,17
109,001,0,recog,11,RUDIMENTS,LF,target,right,yellow,imageability,conservative,no,m,0,1.93286136299,-1,16
109,001,0,recog,12,ANAEMIC,LF,lure,-,-,-,liberal,no,m,1,1.39975488628,1,17
109,001,0,recog,13,CLEAR,HF,target,left,aqua,pleasantness,conservative,no,z,1,3.42566376092,1,18
109,001,0,recog,14,CYNIC,LF,target,left,aqua,pleasantness,conservative,no,z,1,0.680055167119,1,19
109,001,0,recog,15,POWER,HF,lure,-,-,-,liberal,no,m,1,1.86622241186,1,20
109,001,0,recog,16,OLDER,HF,lure,-,-,-,conservative,no,m,1,1.26647075173,3,23
109,001,0,recog,17,REACHED,HF,target,right,yellow,imageability,conservative,no,z,1,0.799782895134,1,24
109,001,0,recog,18,NOSTRIL,LF,target,left,aqua,pleasantness,liberal,no,z,1,0.773263252631,3,27
109,001,0,recog,19,REUNITED,LF,lure,-,-,-,liberal,no,m,1,1.98615397362,1,28
109,001,0,recog,20,FATHER,HF,lure,-,-,-,liberal,no,m,1,0.666685730277,1,29
109,001,0,recog,21,DEVELOPED,HF,target,right,yellow,imageability,conservative,no,z,1,0.733288020652,1,30
109,001,0,recog,22,BOOKS,HF,lure,-,-,-,conservative,yes,z,0,0.746436026646,-3,27
109,001,0,recog,23,ORPHANAGE,LF,target,left,aqua,pleasantness,conservative,no,z,1,0.640037408622,1,28
109,001,0,recog,24,DEITIES,LF,target,left,aqua,pleasantness,liberal,no,z,1,0.760041558591,3,31
109,001,0,recog,25,POLICE,HF,target,left,aqua,pleasantness,conservative,no,z,1,0.880038376432,1,32
109,001,0,recog,26,AUSPICES,LF,lure,-,-,-,liberal,no,z,0,0.906331455568,-1,31
109,001,0,recog,27,DESERTER,LF,target,right,yellow,imageability,liberal,no,z,1,1.11988426937,3,34
109,001,0,recog,28,SLOWLY,HF,lure,-,-,-,liberal,no,m,1,1.06641971995,1,35
109,001,0,recog,29,DARKEN,LF,target,right,yellow,imageability,liberal,no,z,1,0.693350549205,3,38
109,001,0,recog,30,PSEUDONYM,LF,lure,-,-,-,conservative,no,m,1,1.06650550605,3,41
109,001,0,recog,31,CLOSE,HF,lure,-,-,-,liberal,no,m,1,1.31983815023,1,42
109,001,0,recog,32,VEILING,LF,target,left,aqua,pleasantness,liberal,yes,m,0,0.613272505871,-3,39
109,001,0,recog,33,HOARD,LF,target,right,yellow,imageability,liberal,no,z,1,1.43973745051,3,42
109,001,0,recog,34,LOANED,LF,target,right,yellow,imageability,liberal,no,z,1,0.60005081183,3,45
109,001,0,recog,35,MAILBOX,LF,target,left,aqua,pleasantness,conservative,no,z,1,0.653147287434,1,46
109,001,0,recog,36,RETURN,HF,lure,-,-,-,liberal,no,m,1,0.999756206118,1,47
109,001,0,recog,37,UNEARTHED,LF,lure,-,-,-,conservative,no,m,1,1.11984504241,3,50
109,001,0,recog,38,BYPASS,LF,lure,-,-,-,liberal,no,m,1,1.70629948744,1,51
109,001,0,recog,39,OVENS,LF,lure,-,-,-,conservative,no,m,1,0.666733755788,3,54
109,001,0,recog,40,MANDARIN,LF,lure,-,-,-,liberal,no,m,1,0.586694572819,1,55
109,001,0,recog,41,TIMES,HF,lure,-,-,-,conservative,no,z,0,0.853280805808,-3,52
109,001,0,recog,42,BIRCHES,LF,target,right,yellow,imageability,conservative,no,z,1,1.09322568274,1,53
109,001,0,recog,43,MUTATIONS,LF,lure,-,-,-,liberal,no,m,1,0.813301174552,1,54
109,001,0,recog,44,ADDED,HF,target,left,aqua,pleasantness,liberal,no,z,1,2.17260937177,3,57
109,001,0,recog,45,TOMBSTONE,LF,lure,-,-,-,conservative,no,m,1,0.719960743678,3,60
109,001,0,recog,46,DANDELION,LF,lure,-,-,-,liberal,no,m,1,1.33305434516,1,61
109,001,0,recog,47,TAMING,LF,target,right,yellow,imageability,conservative,no,z,1,0.800108809082,1,62
109,001,0,recog,48,AUDACIOUS,LF,target,left,aqua,pleasantness,conservative,no,z,1,0.813080476946,1,63
109,001,0,recog,49,TWENTY,HF,lure,-,-,-,conservative,no,m,1,1.79936899542,3,66
109,001,0,recog,50,SHEARING,LF,target,left,aqua,pleasantness,liberal,no,z,1,0.866731996066,3,69
109,001,0,recog,51,ALREADY,HF,target,right,yellow,imageability,liberal,no,z,1,1.39975305327,3,72
109,001,0,recog,52,GUESSWORK,LF,target,right,yellow,imageability,conservative,no,z,1,1.29312713869,1,73
109,001,0,recog,53,HARDLY,HF,lure,-,-,-,liberal,no,m,1,0.9199256227,1,74
109,001,0,recog,54,GNOMES,LF,lure,-,-,-,liberal,no,m,1,0.879981552309,1,75
109,001,0,recog,55,VILLAGE,HF,target,right,yellow,imageability,conservative,no,z,1,0.653362119338,1,76
109,001,0,recog,56,PREPARED,HF,lure,-,-,-,liberal,no,m,1,1.22648305504,1,77
109,001,0,recog,57,SIMILAR,HF,lure,-,-,-,liberal,no,m,1,1.21288632165,1,78
109,001,0,recog,58,EARLIER,HF,target,right,yellow,imageability,liberal,no,m,0,2.03946784744,-3,75
109,001,0,recog,59,AREAS,HF,lure,-,-,-,liberal,no,m,1,0.919905459275,1,76
109,001,0,recog,60,SMOCK,LF,target,left,aqua,pleasantness,liberal,no,z,1,0.626786752604,3,79
109,001,0,recog,61,NUMBER,HF,target,left,aqua,pleasantness,liberal,no,z,1,0.813305940421,3,82
109,001,0,recog,62,TERMS,HF,target,left,aqua,pleasantness,conservative,no,z,1,0.533423958695,1,83
109,001,0,recog,63,APOSTLE,LF,target,right,yellow,imageability,liberal,no,z,1,0.613396785746,3,86
109,001,0,recog,64,PUMPKIN,LF,target,left,aqua,pleasantness,conservative,no,z,1,0.533409294381,1,87
109,001,0,recog,65,TALKING,HF,lure,-,-,-,conservative,no,m,1,1.26643445756,3,90
109,001,0,recog,66,OTHERS,HF,lure,-,-,-,conservative,no,m,1,1.10652106488,3,93
109,001,0,recog,67,MEMBERS,HF,lure,-,-,-,conservative,no,m,1,0.719793204102,3,96
109,001,0,recog,68,TROUBLE,HF,target,left,aqua,pleasantness,liberal,no,z,1,0.640037775214,3,99
109,001,0,recog,69,OUGHT,HF,target,left,aqua,pleasantness,liberal,no,z,1,0.799980129872,3,102
109,001,0,recog,70,TOWARDS,HF,target,right,yellow,imageability,liberal,no,z,1,0.693473362655,3,105
109,001,0,recog,71,TATTERS,LF,lure,-,-,-,conservative,no,m,1,0.706682592048,3,108
109,001,0,recog,72,HANDS,HF,lure,-,-,-,conservative,no,m,1,1.71964802762,3,111
109,001,0,recog,73,TRUTH,HF,lure,-,-,-,liberal,no,m,1,1.69295681297,1,112
109,001,0,recog,74,UMBILICAL,LF,lure,-,-,-,liberal,yes,z,0,1.39974242169,-1,111
109,001,0,recog,75,CRYPT,LF,lure,-,-,-,conservative,no,m,1,2.05278925871,3,114
109,001,0,recog,76,SYSTEM,HF,target,right,yellow,imageability,conservative,no,z,1,0.653366518614,1,115
109,001,0,recog,77,SURER,LF,lure,-,-,-,conservative,no,m,1,0.613379555172,3,118
109,001,0,recog,78,JADED,LF,lure,-,-,-,conservative,no,z,0,0.586727567483,-3,115
109,001,0,recog,79,DOODLE,LF,target,right,yellow,imageability,liberal,no,z,1,2.15919960814,3,118
109,001,0,recog,80,PUTTS,LF,lure,-,-,-,liberal,no,m,1,0.720003270137,1,119
109,001,0,recog,81,RESEARCH,HF,target,right,yellow,imageability,liberal,no,z,1,0.773322643072,3,122
109,001,0,recog,82,EIGHT,HF,target,left,aqua,pleasantness,conservative,no,z,1,0.813375229191,1,123
109,001,0,recog,83,MADDENED,LF,target,right,yellow,imageability,conservative,no,z,1,1.06653740094,1,124
109,001,0,recog,84,NEITHER,HF,target,right,yellow,imageability,liberal,no,z,1,0.973028697306,3,127
109,001,0,recog,85,BAFFLING,LF,target,left,aqua,pleasantness,liberal,no,z,1,2.03927537857,3,130
109,001,0,recog,86,MOTHER,HF,target,left,aqua,pleasantness,liberal,no,m,0,1.18649572501,-3,127
109,001,0,recog,87,VALUE,HF,lure,-,-,-,conservative,no,m,1,1.01322682656,3,130
109,001,0,recog,88,FEELING,HF,target,right,yellow,imageability,liberal,no,z,1,0.893263736623,3,133
109,001,0,recog,89,WAITING,HF,lure,-,-,-,liberal,no,m,1,0.666676565073,1,134
109,001,0,recog,90,TAKEN,HF,target,left,aqua,pleasantness,liberal,no,z,1,0.799970964727,3,137
109,001,0,recog,91,UNDER,HF,lure,-,-,-,conservative,no,m,1,0.999890017789,3,140
109,001,0,recog,92,MAGGOT,LF,lure,-,-,-,conservative,no,m,1,0.986566040257,3,143
109,001,0,recog,93,DRYER,LF,lure,-,-,-,conservative,no,m,1,0.786426289531,3,146
109,001,0,recog,94,POSITION,HF,target,right,yellow,imageability,conservative,no,z,1,0.626674570725,1,147
109,001,0,recog,95,HOBBLE,LF,lure,-,-,-,liberal,no,m,1,0.746785403462,1,148
109,001,1,source,0,MONEY,HF,target,right,yellow,imageability,liberal,no,9,1,1.37312452844,-,-
109,001,1,source,1,TUBERS,LF,target,right,yellow,imageability,conservative,no,9,1,1.02654310537,-,-
109,001,1,source,2,SEVEN,HF,target,left,aqua,pleasantness,conservative,no,1,1,1.06654729933,-,-
109,001,1,source,3,DREADING,LF,target,right,yellow,imageability,conservative,no,3,0,1.62629146606,-,-
109,001,1,source,4,POPES,LF,target,left,aqua,pleasantness,conservative,no,1,1,1.59950126737,-,-
109,001,1,source,5,ASKED,HF,target,right,yellow,imageability,conservative,no,2,0,1.38620397885,-,-
109,001,1,source,6,HOSPITAL,HF,target,right,yellow,imageability,conservative,no,9,1,1.04000822664,-,-
109,001,1,source,7,INCLUDING,HF,target,left,aqua,pleasantness,conservative,no,1,1,1.14656081976,-,-
109,001,1,source,8,ANIMAL,HF,target,right,yellow,imageability,conservative,no,8,1,1.73291298136,-,-
109,001,1,source,9,LIGHT,HF,target,left,aqua,pleasantness,liberal,no,2,1,1.306421421,-,-
109,001,1,source,10,STRAIGHT,HF,target,left,aqua,pleasantness,liberal,no,1,1,1.13317415246,-,-
109,001,1,source,11,BEYOND,HF,target,left,aqua,pleasantness,liberal,no,8,0,1.38616988441,-,-
109,001,1,source,12,REOPEN,LF,target,right,yellow,imageability,liberal,no,9,1,1.25326152227,-,-
109,001,1,source,13,USUAL,HF,target,right,yellow,imageability,liberal,no,2,0,1.42643253657,-,-
109,001,1,source,14,MATERIAL,HF,target,left,aqua,pleasantness,conservative,no,1,1,1.02633633878,-,-
109,001,1,source,15,MORNING,HF,target,right,yellow,imageability,conservative,no,3,0,1.79934040009,-,-
109,001,1,source,16,LESSENED,LF,target,left,aqua,pleasantness,liberal,no,3,1,0.879991817346,-,-
109,001,1,source,17,BLIGHTED,LF,target,right,yellow,imageability,conservative,no,8,1,1.30632536992,-,-
109,001,1,source,18,SITTING,HF,target,right,yellow,imageability,liberal,no,1,0,1.37312232878,-,-
109,001,1,source,19,UPKEEP,LF,target,right,yellow,imageability,conservative,no,9,1,1.82629300578,-,-
109,001,1,source,20,JINGLE,LF,target,right,yellow,imageability,liberal,yes,8,1,1.27961802448,-,-
109,001,1,source,21,PLACE,HF,target,left,aqua,pleasantness,conservative,no,1,1,1.62611622777,-,-
109,001,1,source,22,AGATE,LF,target,right,yellow,imageability,liberal,no,9,1,1.17318127927,-,-
109,001,1,source,23,VAINLY,LF,target,left,aqua,pleasantness,conservative,no,9,0,1.22630635026,-,-
109,001,1,source,24,TRADE,HF,target,right,yellow,imageability,conservative,no,3,0,1.4398481659,-,-
109,001,1,source,25,SIPHON,LF,target,right,yellow,imageability,conservative,no,8,1,1.2131722754,-,-
109,001,1,source,26,WINDOW,HF,target,left,aqua,pleasantness,conservative,yes,8,0,0.546690378804,-,-
109,001,1,source,27,FUTURE,HF,target,right,yellow,imageability,conservative,no,8,1,2.11952572741,-,-
109,001,1,source,28,GREATER,HF,target,left,aqua,pleasantness,liberal,no,2,1,1.14653772354,-,-
109,001,1,source,29,YANKED,LF,target,right,yellow,imageability,liberal,no,9,1,1.26624382177,-,-
109,001,1,source,30,ADMIRALS,LF,target,left,aqua,pleasantness,liberal,yes,8,0,0.640071503061,-,-
109,001,1,source,31,MERELY,HF,target,left,aqua,pleasantness,liberal,no,2,1,0.906720425992,-,-
109,001,1,source,32,PUCKERED,LF,target,left,aqua,pleasantness,conservative,no,1,1,1.35953219439,-,-
109,001,1,source,33,ABBOT,LF,target,left,aqua,pleasantness,liberal,no,2,1,1.74625308957,-,-
109,001,1,source,34,OCCUPANCY,LF,target,left,aqua,pleasantness,liberal,no,2,1,1.05300115776,-,-
109,001,1,source,35,BAWLED,LF,target,right,yellow,imageability,conservative,yes,2,0,0.519869018521,-,-
109,001,1,source,36,TURNED,HF,target,left,aqua,pleasantness,liberal,no,8,0,0.813408957096,-,-
109,001,1,source,37,HIVES,LF,target,left,aqua,pleasantness,conservative,no,1,1,1.06656196358,-,-
109,001,1,source,38,NIGHT,HF,target,left,aqua,pleasantness,conservative,no,8,0,1.05321562308,-,-
109,001,1,source,39,CHURCH,HF,target,right,yellow,imageability,liberal,no,2,0,1.10648880346,-,-
109,001,1,source,40,OEDIPAL,LF,target,left,aqua,pleasantness,conservative,no,1,1,1.18624606536,-,-
109,001,1,source,41,RALLIED,LF,target,left,aqua,pleasantness,conservative,no,1,1,1.30623225158,-,-
109,001,1,source,42,HALLMARK,LF,target,left,aqua,pleasantness,liberal,no,1,1,0.706714486936,-,-
109,001,1,source,43,BUBBLED,LF,target,left,aqua,pleasantness,liberal,no,1,1,1.02655410359,-,-
109,001,1,source,44,BLOOD,HF,target,right,yellow,imageability,liberal,no,8,1,1.07986724412,-,-
109,001,1,source,45,VAGABOND,LF,target,right,yellow,imageability,liberal,no,9,1,1.06655866414,-,-
109,001,1,source,46,FREEDOM,HF,target,right,yellow,imageability,liberal,no,9,1,0.91993405472,-,-
109,001,1,source,47,TIRADE,LF,target,right,yellow,imageability,liberal,no,9,1,1.27984385454,-,-
109,001,1,recog,0,SEVEN,HF,target,left,aqua,pleasantness,conservative,no,z,1,1.70641350228,1,149
109,001,1,recog,1,ABBOT,LF,target,left,aqua,pleasantness,liberal,no,z,1,1.06653373485,3,152
109,001,1,recog,2,UNLESS,HF,lure,-,-,-,conservative,no,z,0,1.02656143572,-3,149
109,001,1,recog,3,GREATER,HF,target,left,aqua,pleasantness,liberal,no,z,1,0.680064698856,3,152
109,001,1,recog,4,RALLIED,LF,target,left,aqua,pleasantness,conservative,no,z,1,0.586743331631,1,153
109,001,1,recog,5,APTLY,LF,lure,-,-,-,conservative,no,m,1,0.626710131648,3,156
109,001,1,recog,6,FUTURE,HF,target,right,yellow,imageability,conservative,yes,m,0,1.10652583075,-1,155
109,001,1,recog,7,SOPHISTS,LF,lure,-,-,-,liberal,no,m,1,0.919975847937,1,156
109,001,1,recog,8,LIGHT,HF,target,left,aqua,pleasantness,liberal,no,z,1,0.560053216759,3,159
109,001,1,recog,9,MONEY,HF,target,right,yellow,imageability,liberal,no,z,1,0.546520273027,3,162
109,001,1,recog,10,PUCKERED,LF,target,left,aqua,pleasantness,conservative,no,z,1,0.640042541141,1,163
109,001,1,recog,11,MOUTH,HF,lure,-,-,-,conservative,no,m,1,0.959870426275,3,166
109,001,1,recog,12,WINDOW,HF,target,left,aqua,pleasantness,conservative,no,z,1,0.640083967708,1,167
109,001,1,recog,13,ROUND,HF,lure,-,-,-,liberal,no,m,1,0.82663761673,1,168
109,001,1,recog,14,WEAKENS,LF,lure,-,-,-,liberal,no,z,0,0.746696317859,-1,167
109,001,1,recog,15,GLASS,HF,lure,-,-,-,liberal,no,z,0,1.34639995248,-1,166
109,001,1,recog,16,FISHY,LF,lure,-,-,-,conservative,no,m,1,0.640037775214,3,169
109,001,1,recog,17,WALKED,HF,lure,-,-,-,conservative,no,m,1,1.07985771238,3,172
109,001,1,recog,18,KENNEL,LF,lure,-,-,-,conservative,no,m,1,0.520156438695,3,175
109,001,1,recog,19,FREEDOM,HF,target,right,yellow,imageability,liberal,yes,m,0,0.533518543351,-3,172
109,001,1,recog,20,UPKEEP,LF,target,right,yellow,imageability,conservative,no,z,1,2.57257432415,1,173
109,001,1,recog,21,UNNAMED,LF,lure,-,-,-,conservative,no,m,1,0.693350915797,3,176
109,001,1,recog,22,BLIGHTED,LF,target,right,yellow,imageability,conservative,no,z,1,0.919983913249,1,177
109,001,1,recog,23,FLICKS,LF,lure,-,-,-,liberal,no,m,1,0.853267607978,1,178
109,001,1,recog,24,TUBERS,LF,target,right,yellow,imageability,conservative,no,z,1,0.879920695443,1,179
109,001,1,recog,25,DREADING,LF,target,right,yellow,imageability,conservative,no,z,1,0.919986846158,1,180
109,001,1,recog,26,UNTIL,HF,lure,-,-,-,liberal,no,m,1,0.866575088177,1,181
109,001,1,recog,27,REOPEN,LF,target,right,yellow,imageability,liberal,no,z,1,0.90660457802,3,184
109,001,1,recog,28,HURDLES,LF,lure,-,-,-,conservative,no,z,0,1.71970631817,-3,181
109,001,1,recog,29,PLACE,HF,target,left,aqua,pleasantness,conservative,no,z,1,0.653325092047,1,182
109,001,1,recog,30,WREATH,LF,lure,-,-,-,liberal,no,m,1,0.626672737708,1,183
109,001,1,recog,31,HOSPITAL,HF,target,right,yellow,imageability,conservative,no,z,1,0.68014865194,1,184
109,001,1,recog,32,TRADE,HF,target,right,yellow,imageability,conservative,no,z,1,2.25269291428,1,185
109,001,1,recog,33,RATHER,HF,lure,-,-,-,liberal,no,m,1,0.693305456545,1,186
109,001,1,recog,34,NUCLEAR,HF,lure,-,-,-,conservative,no,z,0,0.573359230475,-3,183
109,001,1,recog,35,HALLMARK,LF,target,left,aqua,pleasantness,liberal,no,z,1,0.773389365582,3,186
109,001,1,recog,36,WHITE,HF,lure,-,-,-,liberal,no,m,1,0.680014473677,1,187
109,001,1,recog,37,COWARDS,LF,lure,-,-,-,liberal,no,m,1,1.11966173869,1,188
109,001,1,recog,38,MORNING,HF,target,right,yellow,imageability,conservative,no,z,1,0.919709324371,1,189
109,001,1,recog,39,EFFECT,HF,lure,-,-,-,liberal,no,m,1,0.719964043121,1,190
109,001,1,recog,40,HEMMED,LF,lure,-,-,-,liberal,no,z,0,0.839967826556,-1,189
109,001,1,recog,41,OEDIPAL,LF,target,left,aqua,pleasantness,conservative,no,z,1,0.800093044934,1,190
109,001,1,recog,42,SIPHON,LF,target,right,yellow,imageability,conservative,no,z,1,0.879898332467,1,191
109,001,1,recog,43,USUAL,HF,target,right,yellow,imageability,liberal,no,z,1,0.653321059362,3,194
109,001,1,recog,44,MERELY,HF,target,left,aqua,pleasantness,liberal,no,z,1,0.546738037781,3,197
109,001,1,recog,45,FURTHER,HF,lure,-,-,-,conservative,no,m,1,0.826703239407,3,200
109,001,1,recog,46,DICHOTOMY,LF,lure,-,-,-,conservative,no,m,1,0.546526871913,3,203
109,001,1,recog,47,INVOLVED,HF,lure,-,-,-,conservative,no,m,1,0.893232574977,3,206
109,001,1,recog,48,TIRADE,LF,target,right,yellow,imageability,liberal,no,z,1,0.746730045706,3,209
109,001,1,recog,49,HIVES,LF,target,left,aqua,pleasantness,conservative,no,z,1,0.666753186029,1,210
109,001,1,recog,50,LONGER,HF,lure,-,-,-,liberal,no,m,1,1.55962538597,1,211
109,001,1,recog,51,AGATE,LF,target,right,yellow,imageability,liberal,no,z,1,1.85296662332,3,214
109,001,1,recog,52,BROUGHT,HF,lure,-,-,-,conservative,no,m,1,0.786712976522,3,217
109,001,1,recog,53,BAWLED,LF,target,right,yellow,imageability,conservative,no,z,1,0.639821476885,1,218
109,001,1,recog,54,BLOOD,HF,target,right,yellow,imageability,liberal,no,z,1,0.600043112994,3,221
109,001,1,recog,55,ARRIVED,HF,lure,-,-,-,conservative,no,m,1,0.853370624594,3,224
109,001,1,recog,56,SECOND,HF,lure,-,-,-,conservative,no,m,1,0.893104995659,3,227
109,001,1,recog,57,ASKED,HF,target,right,yellow,imageability,conservative,no,m,0,0.679806973902,-1,226
109,001,1,recog,58,SIZZLING,LF,lure,-,-,-,liberal,no,m,1,0.653371284541,1,227
109,001,1,recog,59,VAGABOND,LF,target,right,yellow,imageability,liberal,no,z,1,0.719994471525,3,230
109,001,1,recog,60,SHORT,HF,lure,-,-,-,liberal,no,m,1,0.666802677966,1,231
109,001,1,recog,61,FRONT,HF,lure,-,-,-,conservative,no,z,0,0.600046779087,-3,228
109,001,1,recog,62,ANIMAL,HF,target,right,yellow,imageability,conservative,no,z,1,0.680084862281,1,229
109,001,1,recog,63,GABLE,LF,lure,-,-,-,conservative,no,z,0,1.33316542715,-3,226
109,001,1,recog,64,PLEASE,HF,lure,-,-,-,liberal,no,m,1,0.933252899675,1,227
109,001,1,recog,65,MAKES,HF,lure,-,-,-,conservative,no,m,1,0.586799789162,3,230
109,001,1,recog,66,ADMIRALS,LF,target,left,aqua,pleasantness,liberal,no,z,1,0.959697754239,3,233
109,001,1,recog,67,BEYOND,HF,target,left,aqua,pleasantness,liberal,no,z,1,0.973403370008,3,236
109,001,1,recog,68,DETACH,LF,lure,-,-,-,conservative,no,m,1,0.826698106888,3,239
109,001,1,recog,69,DRUDGERY,LF,lure,-,-,-,liberal,no,m,1,0.560119206028,1,240
109,001,1,recog,70,STRAIGHT,HF,target,left,aqua,pleasantness,liberal,no,z,1,0.639997081831,3,243
109,001,1,recog,71,NIGHT,HF,target,left,aqua,pleasantness,conservative,no,z,1,0.82660792151,1,244
109,001,1,recog,72,INCLUDING,HF,target,left,aqua,pleasantness,conservative,no,z,1,0.879776618793,1,245
109,001,1,recog,73,BUBBLED,LF,target,left,aqua,pleasantness,liberal,yes,z,1,0.679829336936,3,248
109,001,1,recog,74,VAINLY,LF,target,left,aqua,pleasantness,conservative,no,z,1,0.719997771026,1,249
109,001,1,recog,75,CEASELESS,LF,lure,-,-,-,liberal,no,m,1,0.640112563153,1,250
109,001,1,recog,76,MATERIAL,HF,target,left,aqua,pleasantness,conservative,no,z,1,0.813353599398,1,251
109,001,1,recog,77,AVAILABLE,HF,lure,-,-,-,liberal,no,m,1,0.786672649672,1,252
109,001,1,recog,78,SITTING,HF,target,right,yellow,imageability,liberal,no,z,1,0.76005988894,3,255
109,001,1,recog,79,JINGLE,LF,target,right,yellow,imageability,liberal,no,z,1,0.800007625425,3,258
109,001,1,recog,80,YACHTING,LF,lure,-,-,-,liberal,no,m,1,0.826700306556,1,259
109,001,1,recog,81,YANKED,LF,target,right,yellow,imageability,liberal,no,z,1,0.933261331695,3,262
109,001,1,recog,82,STOOD,HF,lure,-,-,-,liberal,no,m,1,1.33288643893,1,263
109,001,1,recog,83,LULLED,LF,lure,-,-,-,conservative,no,m,1,0.706746748416,3,266
109,001,1,recog,84,OCCUPANCY,LF,target,left,aqua,pleasantness,liberal,yes,z,1,0.866660507687,3,269
109,001,1,recog,85,POPES,LF,target,left,aqua,pleasantness,conservative,no,z,1,0.866656475002,1,270
109,001,1,recog,86,NAUGHT,LF,lure,-,-,-,conservative,no,m,1,0.640123194724,3,273
109,001,1,recog,87,TOKENS,LF,lure,-,-,-,conservative,no,z,0,1.43978474283,-3,270
109,001,1,recog,88,JEOPARDY,LF,lure,-,-,-,conservative,no,m,1,0.666475297592,3,273
109,001,1,recog,89,GASEOUS,LF,lure,-,-,-,liberal,no,m,1,0.640069303452,1,274
109,001,1,recog,90,ITSELF,HF,lure,-,-,-,liberal,no,m,1,0.453498057381,1,275
109,001,1,recog,91,HAWKED,LF,lure,-,-,-,liberal,no,m,1,0.600006085646,1,276
109,001,1,recog,92,ORDER,HF,lure,-,-,-,conservative,no,m,1,0.82663175097,3,279
109,001,1,recog,93,TURNED,HF,target,left,aqua,pleasantness,liberal,no,m,0,0.733293519763,-3,276
109,001,1,recog,94,CHURCH,HF,target,right,yellow,imageability,liberal,no,z,1,0.90667166718,3,279
109,001,1,recog,95,LESSENED,LF,target,left,aqua,pleasantness,liberal,no,m,0,1.17311345687,-3,276
109,001,2,source,0,CORNER,HF,target,right,yellow,imageability,liberal,yes,3,0,1.2133896735,-,-
109,001,2,source,1,FOLLOWED,HF,target,left,aqua,pleasantness,liberal,no,1,1,2.26613200654,-,-
109,001,2,source,2,CINDER,LF,target,left,aqua,pleasantness,liberal,no,1,1,0.906608977297,-,-
109,001,2,source,3,CENTRAL,HF,target,left,aqua,pleasantness,liberal,no,1,1,1.3730871345,-,-
109,001,2,source,4,TWAIN,LF,target,right,yellow,imageability,conservative,no,9,1,1.10662298172,-,-
109,001,2,source,5,GRACES,LF,target,left,aqua,pleasantness,liberal,no,8,0,1.18631865364,-,-
109,001,2,source,6,ALABASTER,LF,target,right,yellow,imageability,conservative,no,9,1,0.866583520081,-,-
109,001,2,source,7,MUGGING,LF,target,left,aqua,pleasantness,liberal,no,1,1,1.01324295724,-,-
109,001,2,source,8,JOURNEYED,LF,target,right,yellow,imageability,liberal,yes,8,1,0.799768597411,-,-
109,001,2,source,9,JELLIES,LF,target,right,yellow,imageability,liberal,no,9,1,0.893368219724,-,-
109,001,2,source,10,SULKED,LF,target,left,aqua,pleasantness,conservative,no,2,1,1.22643832891,-,-
109,001,2,source,11,LIKELY,HF,target,left,aqua,pleasantness,conservative,no,1,1,1.07992590131,-,-
109,001,2,source,12,FAMILY,HF,target,left,aqua,pleasantness,conservative,no,1,1,0.800083513139,-,-
109,001,2,source,13,WAKED,LF,target,right,yellow,imageability,liberal,no,8,1,1.09327187529,-,-
109,001,2,source,14,GOVERNS,LF,target,right,yellow,imageability,conservative,no,7,1,1.51952367445,-,-
109,001,2,source,15,BEGAN,HF,target,right,yellow,imageability,liberal,no,3,0,0.946545348968,-,-
109,001,2,source,16,FIELD,HF,target,right,yellow,imageability,liberal,no,3,0,0.893058436457,-,-
109,001,2,source,17,PAUNCH,LF,target,right,yellow,imageability,liberal,no,3,0,0.69334688317,-,-
109,001,2,source,18,HUSBAND,HF,target,left,aqua,pleasantness,liberal,no,2,1,1.21293214761,-,-
109,001,2,source,19,ABLAZE,LF,target,left,aqua,pleasantness,liberal,no,1,1,0.95986639359,-,-
109,001,2,source,20,OPTIC,LF,target,left,aqua,pleasantness,conservative,no,1,1,0.813269279723,-,-
109,001,2,source,21,PACIFISM,LF,target,left,aqua,pleasantness,conservative,no,1,1,1.02662155929,-,-
109,001,2,source,22,MOCCASINS,LF,target,left,aqua,pleasantness,conservative,no,1,1,0.719788438233,-,-
109,001,2,source,23,MILES,HF,target,left,aqua,pleasantness,liberal,no,8,0,0.919673030265,-,-
109,001,2,source,24,POINT,HF,target,right,yellow,imageability,liberal,no,9,1,1.33316872659,-,-
109,001,2,source,25,SPOKE,HF,target,left,aqua,pleasantness,conservative,no,1,1,0.786699045449,-,-
109,001,2,source,26,GIRLS,HF,target,right,yellow,imageability,conservative,no,8,1,1.05316723092,-,-
109,001,2,source,27,CAPITAL,HF,target,right,yellow,imageability,conservative,no,9,1,0.759955405898,-,-
109,001,2,source,28,OFTEN,HF,target,right,yellow,imageability,liberal,no,2,0,1.1196184791,-,-
109,001,2,source,29,SCHOOL,HF,target,right,yellow,imageability,conservative,yes,8,1,0.573357397458,-,-
109,001,2,source,30,ANTELOPES,LF,target,left,aqua,pleasantness,conservative,no,1,1,0.719944246346,-,-
109,001,2,source,31,SLIGHTLY,HF,target,right,yellow,imageability,conservative,no,2,0,1.81285867945,-,-
109,001,2,source,32,EXCEPT,HF,target,right,yellow,imageability,liberal,no,3,0,0.66669672844,-,-
109,001,2,source,33,BUSINESS,HF,target,left,aqua,pleasantness,conservative,no,7,0,0.906565717654,-,-
109,001,2,source,34,CASES,HF,target,left,aqua,pleasantness,liberal,no,1,1,1.30622968538,-,-
109,001,2,source,35,DELEGATED,LF,target,left,aqua,pleasantness,conservative,no,8,0,1.49316093989,-,-
109,001,2,source,36,SKATES,LF,target,right,yellow,imageability,conservative,yes,8,1,0.506543207972,-,-
109,001,2,source,37,COVER,HF,target,right,yellow,imageability,conservative,no,2,0,1.06631926954,-,-
109,001,2,source,38,MYSELF,HF,target,right,yellow,imageability,conservative,no,2,0,2.1461282231,-,-
109,001,2,source,39,SEDAN,LF,target,right,yellow,imageability,conservative,no,9,1,0.946632601554,-,-
109,001,2,source,40,AFTERNOON,HF,target,left,aqua,pleasantness,conservative,no,8,0,1.38647636812,-,-
109,001,2,source,41,SUGARY,LF,target,left,aqua,pleasantness,liberal,no,1,1,0.959931283141,-,-
109,001,2,source,42,BRING,HF,target,left,aqua,pleasantness,conservative,no,2,1,1.15992622398,-,-
109,001,2,source,43,LYNCH,LF,target,right,yellow,imageability,liberal,no,8,1,0.95994411438,-,-
109,001,2,source,44,LIZARD,LF,target,left,aqua,pleasantness,liberal,no,1,1,0.7864743151,-,-
109,001,2,source,45,SKETCHY,LF,target,right,yellow,imageability,conservative,no,8,1,1.09326600953,-,-
109,001,2,source,46,SAWDUST,LF,target,right,yellow,imageability,liberal,no,9,1,0.973023198196,-,-
109,001,2,source,47,SOUND,HF,target,left,aqua,pleasantness,liberal,no,2,1,0.813276978442,-,-
109,001,2,recog,0,HELICAL,LF,lure,-,-,-,liberal,no,m,1,0.733465825266,1,277
109,001,2,recog,1,EXCEPT,HF,target,right,yellow,imageability,liberal,no,z,1,0.573397357657,3,280
109,001,2,recog,2,WAKED,LF,target,right,yellow,imageability,liberal,no,z,1,0.573229451489,3,283
109,001,2,recog,3,ENVIRONS,LF,lure,-,-,-,conservative,no,m,1,0.653327658307,3,286
109,001,2,recog,4,MUMBLES,LF,lure,-,-,-,liberal,no,m,1,0.81341555604,1,287
109,001,2,recog,5,COVER,HF,target,right,yellow,imageability,conservative,no,z,1,0.626827445987,1,288
109,001,2,recog,6,ECHELONS,LF,lure,-,-,-,conservative,no,z,0,0.573509172886,-3,285
109,001,2,recog,7,AFRAID,HF,lure,-,-,-,liberal,no,m,1,0.839961227612,1,286
109,001,2,recog,8,SOUND,HF,target,left,aqua,pleasantness,liberal,no,z,1,0.666764550784,3,289
109,001,2,recog,9,GOVERNS,LF,target,right,yellow,imageability,conservative,no,z,1,0.666677298257,1,290
109,001,2,recog,10,CAPITAL,HF,target,right,yellow,imageability,conservative,yes,m,0,0.520151306177,-1,289
109,001,2,recog,11,LARGE,HF,lure,-,-,-,conservative,no,m,1,0.773380200437,3,292
109,001,2,recog,12,BRING,HF,target,left,aqua,pleasantness,conservative,no,z,1,0.693352382223,1,293
109,001,2,recog,13,SOCIAL,HF,lure,-,-,-,conservative,no,m,1,1.27979106311,3,296
109,001,2,recog,14,UNWARY,LF,lure,-,-,-,conservative,no,m,1,0.600053744623,3,299
109,001,2,recog,15,LIZARD,LF,target,left,aqua,pleasantness,liberal,no,z,1,0.693472629413,3,302
109,001,2,recog,16,GORGED,LF,lure,-,-,-,conservative,no,m,1,0.733416699863,3,305
109,001,2,recog,17,SLIGHTLY,HF,target,right,yellow,imageability,conservative,no,z,1,0.706642998499,1,306
109,001,2,recog,18,LYNCH,LF,target,right,yellow,imageability,liberal,no,z,1,0.746732245374,3,309
109,001,2,recog,19,REQUIRED,HF,lure,-,-,-,liberal,no,m,1,0.733171439555,1,310
109,001,2,recog,20,OFTEN,HF,target,right,yellow,imageability,liberal,no,z,1,0.733329447336,3,313
109,001,2,recog,21,EVENING,HF,lure,-,-,-,liberal,no,m,1,1.62632189447,1,314
109,001,2,recog,22,GROUND,HF,lure,-,-,-,conservative,no,m,1,0.973221899359,3,317
109,001,2,recog,23,FIELD,HF,target,right,yellow,imageability,liberal,no,m,0,0.453497324139,-3,314
109,001,2,recog,24,ANTELOPES,LF,target,left,aqua,pleasantness,conservative,no,z,1,0.506778936484,1,315
109,001,2,recog,25,POOLED,LF,lure,-,-,-,liberal,no,m,1,0.626704999129,1,316
109,001,2,recog,26,TWAIN,LF,target,right,yellow,imageability,conservative,no,z,1,0.826634317229,1,317
109,001,2,recog,27,ALONE,HF,lure,-,-,-,liberal,no,m,1,0.773494581925,1,318
109,001,2,recog,28,SEDAN,LF,target,right,yellow,imageability,conservative,no,z,1,0.573487176443,1,319
109,001,2,recog,29,SKATES,LF,target,right,yellow,imageability,conservative,no,z,1,0.746677254327,1,320
109,001,2,recog,30,BEGAN,HF,target,right,yellow,imageability,liberal,no,m,0,1.7063449467,-3,317
109,001,2,recog,31,ALABASTER,LF,target,right,yellow,imageability,conservative,no,z,1,0.95991991827,1,318
109,001,2,recog,32,BILATERAL,LF,lure,-,-,-,liberal,no,m,1,0.653378250077,1,319
109,001,2,recog,33,SAWDUST,LF,target,right,yellow,imageability,liberal,no,m,0,0.613419515372,-3,316
109,001,2,recog,34,FOLLOWED,HF,target,left,aqua,pleasantness,liberal,no,z,1,0.733334946446,3,319
109,001,2,recog,35,OPTIC,LF,target,left,aqua,pleasantness,conservative,no,z,1,0.520089349535,1,320
109,001,2,recog,36,CORNER,HF,target,right,yellow,imageability,liberal,no,z,1,0.653117592272,3,323
109,001,2,recog,37,PRUDENTLY,LF,lure,-,-,-,liberal,no,m,1,0.733330913703,1,324
109,001,2,recog,38,ACCORDING,HF,lure,-,-,-,conservative,no,z,0,0.639997815015,-3,321
109,001,2,recog,39,NEURAL,LF,lure,-,-,-,conservative,no,m,1,0.626716363942,3,324
109,001,2,recog,40,JOURNEYED,LF,target,right,yellow,imageability,liberal,no,z,1,0.786471748899,3,327
109,001,2,recog,41,PRIVATE,HF,lure,-,-,-,liberal,no,m,1,0.653355520451,1,328
109,001,2,recog,42,HISTORY,HF,lure,-,-,-,conservative,no,m,1,0.986563474056,3,331
109,001,2,recog,43,GUARDSMEN,LF,lure,-,-,-,conservative,no,m,1,0.586850380932,3,334
109,001,2,recog,44,UNCANNILY,LF,lure,-,-,-,conservative,yes,m,1,0.426836171246,3,337
109,001,2,recog,45,MUGGING,LF,target,left,aqua,pleasantness,liberal,no,z,1,0.893130291486,3,340
109,001,2,recog,46,CINDER,LF,target,left,aqua,pleasantness,liberal,no,z,1,0.546838488197,3,343
109,001,2,recog,47,LAYERED,LF,lure,-,-,-,liberal,no,m,1,0.693379511242,1,344
109,001,2,recog,48,DRINK,HF,lure,-,-,-,liberal,no,m,1,0.839965626888,1,345
109,001,2,recog,49,JELLIES,LF,target,right,yellow,imageability,liberal,no,z,1,0.720030399098,3,348
109,001,2,recog,50,CASES,HF,target,left,aqua,pleasantness,liberal,no,z,1,0.520143607398,3,351
109,001,2,recog,51,BULBOUS,LF,lure,-,-,-,conservative,no,m,1,0.546761867241,3,354
109,001,2,recog,52,PAUNCH,LF,target,right,yellow,imageability,liberal,no,m,0,0.586736732686,-3,351
109,001,2,recog,53,FESTERING,LF,lure,-,-,-,liberal,no,m,1,0.680030237767,1,352
109,001,2,recog,54,HOWEVER,HF,lure,-,-,-,liberal,no,m,1,0.773272051243,1,353
109,001,2,recog,55,SKETCHY,LF,target,right,yellow,imageability,conservative,no,z,1,1.06651540444,1,354
109,001,2,recog,56,PACIFISM,LF,target,left,aqua,pleasantness,conservative,no,z,1,0.74661896372,1,355
109,001,2,recog,57,SCHOOL,HF,target,right,yellow,imageability,conservative,no,z,1,1.2397626731,1,356
109,001,2,recog,58,FAMILY,HF,target,left,aqua,pleasantness,conservative,no,z,1,0.506765005412,1,357
109,001,2,recog,59,HAVING,HF,lure,-,-,-,conservative,no,m,1,0.640035209013,3,360
109,001,2,recog,60,DIABETIC,LF,lure,-,-,-,liberal,no,m,1,2.02619006246,1,361
109,001,2,recog,61,HUSBAND,HF,target,left,aqua,pleasantness,liberal,no,z,1,0.573369128862,3,364
109,001,2,recog,62,EVIDENCE,HF,lure,-,-,-,liberal,no,m,1,0.972989470349,1,365
109,001,2,recog,63,SINCE,HF,lure,-,-,-,conservative,no,z,0,1.10655442614,-3,362
109,001,2,recog,64,GIRLS,HF,target,right,yellow,imageability,conservative,no,z,1,0.866718065052,1,363
109,001,2,recog,65,PIECE,HF,lure,-,-,-,liberal,no,m,1,0.693180443428,1,364
109,001,2,recog,66,BUSINESS,HF,target,left,aqua,pleasantness,conservative,no,z,1,1.02650681121,1,365
109,001,2,recog,67,POINT,HF,target,right,yellow,imageability,liberal,no,z,1,0.813106506015,3,368
109,001,2,recog,68,ABLAZE,LF,target,left,aqua,pleasantness,liberal,no,z,1,0.533378865977,3,371
109,001,2,recog,69,MOMENT,HF,lure,-,-,-,conservative,no,m,1,1.09319232148,3,374
109,001,2,recog,70,SPOKE,HF,target,left,aqua,pleasantness,conservative,no,z,1,0.65332289238,1,375
109,001,2,recog,71,ACQUIRES,LF,lure,-,-,-,conservative,no,m,1,1.10652729718,3,378
109,001,2,recog,72,CENTRAL,HF,target,left,aqua,pleasantness,liberal,no,z,1,0.79968281131,3,381
109,001,2,recog,73,FEUDALISM,LF,lure,-,-,-,conservative,no,m,1,0.693351282447,3,384
109,001,2,recog,74,LUGGED,LF,lure,-,-,-,liberal,no,m,1,0.466897922568,1,385
109,001,2,recog,75,GRACES,LF,target,left,aqua,pleasantness,liberal,no,z,1,0.666649436112,3,388
109,001,2,recog,76,CODING,LF,lure,-,-,-,conservative,no,m,1,0.813396125857,3,391
109,001,2,recog,77,SULKED,LF,target,left,aqua,pleasantness,conservative,no,z,1,0.866623480339,1,392
109,001,2,recog,78,WAFER,LF,lure,-,-,-,conservative,no,m,1,1.29311687371,3,395
109,001,2,recog,79,CLASS,HF,lure,-,-,-,conservative,yes,m,1,0.533408927789,3,398
109,001,2,recog,80,AFTERNOON,HF,target,left,aqua,pleasantness,conservative,yes,m,0,0.453450764995,-1,397
109,001,2,recog,81,HEEDED,LF,lure,-,-,-,liberal,no,m,1,0.866400949657,1,398
109,001,2,recog,82,LIKELY,HF,target,left,aqua,pleasantness,conservative,no,z,1,0.639935125131,1,399
109,001,2,recog,83,EXPECT,HF,lure,-,-,-,liberal,no,z,0,0.680025471898,-1,398
109,001,2,recog,84,SUBJECT,HF,lure,-,-,-,liberal,no,m,1,0.680089628207,1,399
109,001,2,recog,85,SERIOUS,HF,lure,-,-,-,conservative,no,m,1,0.560062381905,3,402
109,001,2,recog,86,TRIED,HF,lure,-,-,-,conservative,no,z,0,1.27979509585,-3,399
109,001,2,recog,87,MILES,HF,target,left,aqua,pleasantness,liberal,no,m,0,1.11987070489,-3,396
109,001,2,recog,88,TUCKER,LF,lure,-,-,-,liberal,no,z,0,1.03996276733,-1,395
109,001,2,recog,89,MYSELF,HF,target,right,yellow,imageability,conservative,no,z,1,0.839905503322,1,396
109,001,2,recog,90,MOCCASINS,LF,target,left,aqua,pleasantness,conservative,no,z,1,0.666719458124,1,397
109,001,2,recog,91,DELEGATED,LF,target,left,aqua,pleasantness,conservative,no,z,1,0.893287199491,1,398
109,001,2,recog,92,UNPACK,LF,lure,-,-,-,liberal,no,m,1,0.626690701465,1,399
109,001,2,recog,93,SUGARY,LF,target,left,aqua,pleasantness,liberal,no,z,1,1.39973692253,3,402
109,001,2,recog,94,BEHIND,HF,lure,-,-,-,conservative,no,m,1,0.826667311892,3,405
109,001,2,recog,95,COUNCIL,HF,lure,-,-,-,liberal,no,m,1,1.0532196557,1,406
109,001,3,source,0,HASSLE,LF,target,right,yellow,imageability,conservative,no,8,1,1.29289947555,-,-
109,001,3,source,1,ZOOLOGY,LF,target,left,aqua,pleasantness,liberal,no,1,1,1.05316283158,-,-
109,001,3,source,2,HICKORY,LF,target,left,aqua,pleasantness,liberal,no,1,1,0.800108809024,-,-
109,001,3,source,3,LEOPARDS,LF,target,right,yellow,imageability,liberal,no,8,1,0.959891322884,-,-
109,001,3,source,4,UTILIZE,LF,target,right,yellow,imageability,conservative,no,7,1,1.15977738134,-,-
109,001,3,source,5,WRONG,HF,target,left,aqua,pleasantness,liberal,no,3,1,0.586734166427,-,-
109,001,3,source,6,BELIEVE,HF,target,left,aqua,pleasantness,conservative,no,8,0,0.733378206089,-,-
109,001,3,source,7,UNKEMPT,LF,target,left,aqua,pleasantness,conservative,no,8,0,1.13298498304,-,-
109,001,3,source,8,LEFTISTS,LF,target,left,aqua,pleasantness,conservative,no,1,1,1.11991176492,-,-
109,001,3,source,9,VOICE,HF,target,right,yellow,imageability,conservative,no,9,1,1.59950016753,-,-
109,001,3,source,10,MESSED,LF,target,left,aqua,pleasantness,liberal,no,8,0,1.10648110468,-,-
109,001,3,source,11,WOMAN,HF,target,left,aqua,pleasantness,liberal,no,1,1,0.853250377404,-,-
109,001,3,source,12,OPPOSES,LF,target,right,yellow,imageability,liberal,yes,2,0,0.733349610702,-,-
109,001,3,source,13,CRICKETER,LF,target,left,aqua,pleasantness,liberal,yes,2,1,0.613368556951,-,-
109,001,3,source,14,SUNBURN,LF,target,right,yellow,imageability,conservative,no,8,1,1.13318258437,-,-
109,001,3,source,15,SKYLIGHT,LF,target,left,aqua,pleasantness,conservative,no,1,1,0.746699983953,-,-
109,001,3,source,16,FOUND,HF,target,left,aqua,pleasantness,liberal,no,2,1,1.1462363723,-,-
109,001,3,source,17,HOURS,HF,target,right,yellow,imageability,liberal,yes,2,0,0.706633833295,-,-
109,001,3,source,18,PICTURE,HF,target,right,yellow,imageability,conservative,no,1,0,1.22652228206,-,-
109,001,3,source,19,DOUBT,HF,target,right,yellow,imageability,conservative,no,8,1,1.09317509097,-,-
109,001,3,source,20,PASSED,HF,target,left,aqua,pleasantness,conservative,no,2,1,0.680038303137,-,-
109,001,3,source,21,SLEEP,HF,target,left,aqua,pleasantness,liberal,no,1,1,1.07984928036,-,-
109,001,3,source,22,HUDDLE,LF,target,left,aqua,pleasantness,liberal,no,8,0,0.919894461113,-,-
109,001,3,source,23,SWOOPING,LF,target,right,yellow,imageability,liberal,no,2,0,1.39972152509,-,-
109,001,3,source,24,DUSTER,LF,target,left,aqua,pleasantness,conservative,no,1,1,1.06655316503,-,-
109,001,3,source,25,GUSHED,LF,target,right,yellow,imageability,conservative,no,9,1,0.826589224511,-,-
109,001,3,source,26,TREES,HF,target,right,yellow,imageability,liberal,no,2,0,0.946642866533,-,-
109,001,3,source,27,THANK,HF,target,left,aqua,pleasantness,liberal,no,1,1,0.97322703182,-,-
109,001,3,source,28,LOOKED,HF,target,left,aqua,pleasantness,conservative,no,8,0,0.760059522407,-,-
109,001,3,source,29,LETTER,HF,target,right,yellow,imageability,liberal,no,2,0,0.893354655185,-,-
109,001,3,source,30,EMACIATED,LF,target,right,yellow,imageability,conservative,no,9,1,0.986361839983,-,-
109,001,3,source,31,ABHORRENT,LF,target,right,yellow,imageability,liberal,no,9,1,0.959878491645,-,-
109,001,3,source,32,NEOLITHIC,LF,target,left,aqua,pleasantness,conservative,no,1,1,0.693341750652,-,-
109,001,3,source,33,BIDDER,LF,target,right,yellow,imageability,liberal,no,2,0,1.57278585661,-,-
109,001,3,source,34,WESTERN,HF,target,right,yellow,imageability,conservative,no,2,0,1.82622335042,-,-
109,001,3,source,35,TABLE,HF,target,right,yellow,imageability,liberal,yes,8,1,0.533392430458,-,-
109,001,3,source,36,REPORT,HF,target,left,aqua,pleasantness,conservative,no,2,1,0.813301541144,-,-
109,001,3,source,37,PROBABLY,HF,target,left,aqua,pleasantness,conservative,no,2,1,0.800139237428,-,-
109,001,3,source,38,SOVIET,HF,target,right,yellow,imageability,liberal,no,9,1,0.959956579027,-,-
109,001,3,source,39,NUTSHELL,LF,target,right,yellow,imageability,liberal,no,1,0,1.07982288464,-,-
109,001,3,source,40,PRACTICE,HF,target,right,yellow,imageability,liberal,no,8,1,0.906722992193,-,-
109,001,3,source,41,RECENT,HF,target,left,aqua,pleasantness,conservative,no,2,1,0.400139090838,-,-
109,001,3,source,42,DEDICATE,LF,target,left,aqua,pleasantness,conservative,no,1,1,1.11997298838,-,-
109,001,3,source,43,ABOVE,HF,target,right,yellow,imageability,conservative,no,2,0,0.813063613023,-,-
109,001,3,source,44,VEGAN,LF,target,left,aqua,pleasantness,liberal,no,1,1,1.33313536539,-,-
109,001,3,source,45,BAOBAB,LF,target,right,yellow,imageability,conservative,no,9,1,0.99987938616,-,-
109,001,3,source,46,PUBLIC,HF,target,right,yellow,imageability,conservative,no,1,0,1.14628916373,-,-
109,001,3,source,47,WHETHER,HF,target,left,aqua,pleasantness,liberal,no,1,1,0.919930388569,-,-
109,001,3,recog,0,UTILIZE,LF,target,right,yellow,imageability,conservative,no,z,1,1.10649320274,1,407
109,001,3,recog,1,GERANIUMS,LF,lure,-,-,-,liberal,no,m,1,0.893284999824,1,408
109,001,3,recog,2,THANK,HF,target,left,aqua,pleasantness,liberal,no,z,1,0.573174460384,3,411
109,001,3,recog,3,INJECT,LF,lure,-,-,-,conservative,no,m,1,0.573447216186,3,414
109,001,3,recog,4,WESTERN,HF,target,right,yellow,imageability,conservative,no,z,1,0.826647515059,1,415
109,001,3,recog,5,BUILDING,HF,lure,-,-,-,liberal,no,m,1,0.666690496146,1,416
109,001,3,recog,6,CALLED,HF,lure,-,-,-,conservative,no,m,1,0.600051544956,3,419
109,001,3,recog,7,QUALITY,HF,lure,-,-,-,liberal,no,m,1,0.506795433816,1,420
109,001,3,recog,8,SALAMI,LF,lure,-,-,-,liberal,yes,m,1,0.506755107024,1,421
109,001,3,recog,9,CRICKETER,LF,target,left,aqua,pleasantness,liberal,no,z,1,0.640068203618,3,424
109,001,3,recog,10,ABOVE,HF,target,right,yellow,imageability,conservative,no,z,1,0.680032804026,1,425
109,001,3,recog,11,AVOCADO,LF,lure,-,-,-,conservative,no,m,1,0.679987711308,3,428
109,001,3,recog,12,CARRIED,HF,lure,-,-,-,conservative,no,z,0,1.03988577978,-3,425
109,001,3,recog,13,TRYING,HF,lure,-,-,-,conservative,no,z,0,1.0799207688,-3,422
109,001,3,recog,14,DOUBT,HF,target,right,yellow,imageability,conservative,no,z,1,0.75996383786,1,423
109,001,3,recog,15,VOICE,HF,target,right,yellow,imageability,conservative,yes,z,1,0.546699544007,1,424
109,001,3,recog,16,FOUND,HF,target,left,aqua,pleasantness,liberal,no,z,1,1.05332927132,3,427
109,001,3,recog,17,HUDDLE,LF,target,left,aqua,pleasantness,liberal,no,z,1,0.733376739605,3,430
109,001,3,recog,18,AEGIS,LF,lure,-,-,-,conservative,no,m,1,0.546786430001,3,433
109,001,3,recog,19,DEDICATE,LF,target,left,aqua,pleasantness,conservative,no,z,1,0.653366885264,1,434
109,001,3,recog,20,MUSIC,HF,lure,-,-,-,liberal,no,m,1,0.999870221014,1,435
109,001,3,recog,21,TABLE,HF,target,right,yellow,imageability,liberal,no,z,1,0.919969248993,3,438
109,001,3,recog,22,HOURS,HF,target,right,yellow,imageability,liberal,no,z,1,0.746658190677,3,441
109,001,3,recog,23,AGONIZED,LF,lure,-,-,-,conservative,no,z,0,0.680130688183,-3,438
109,001,3,recog,24,ABHORRENT,LF,target,right,yellow,imageability,liberal,no,m,0,0.586505403393,-3,435
109,001,3,recog,25,BELIEVE,HF,target,left,aqua,pleasantness,conservative,no,z,1,1.13323464262,1,436
109,001,3,recog,26,HASSLE,LF,target,right,yellow,imageability,conservative,no,z,1,1.3064929095,1,437
109,001,3,recog,27,GUSHED,LF,target,right,yellow,imageability,conservative,no,z,1,0.600174358406,1,438
109,001,3,recog,28,RECENT,HF,target,left,aqua,pleasantness,conservative,no,m,0,0.720099687867,-1,437
109,001,3,recog,29,TREES,HF,target,right,yellow,imageability,liberal,no,z,1,0.693353115465,3,440
109,001,3,recog,30,ZENITH,LF,lure,-,-,-,conservative,no,m,1,0.600077574083,3,443
109,001,3,recog,31,UNABATED,LF,lure,-,-,-,liberal,no,m,1,0.706636766146,1,444
109,001,3,recog,32,STAFF,HF,lure,-,-,-,liberal,no,m,1,0.600048978755,1,445
109,001,3,recog,33,GLUTINOUS,LF,lure,-,-,-,conservative,no,m,1,0.560030120483,3,448
109,001,3,recog,34,BIDDER,LF,target,right,yellow,imageability,liberal,no,z,1,0.62675302464,3,451
109,001,3,recog,35,WHETHER,HF,target,left,aqua,pleasantness,liberal,no,z,1,0.573393691564,3,454
109,001,3,recog,36,EXACTLY,HF,lure,-,-,-,liberal,no,m,1,0.999844925071,1,455
109,001,3,recog,37,REPORT,HF,target,left,aqua,pleasantness,conservative,no,z,1,0.973220066284,1,456
109,001,3,recog,38,CATALYST,LF,lure,-,-,-,liberal,no,m,1,0.786687313986,1,457
109,001,3,recog,39,NAGGED,LF,lure,-,-,-,conservative,no,m,1,1.11959025025,3,460
109,001,3,recog,40,SUMMER,HF,lure,-,-,-,conservative,yes,m,1,0.519904946035,3,463
109,001,3,recog,41,BESOTTED,LF,lure,-,-,-,conservative,no,z,0,0.599829747516,-3,460
109,001,3,recog,42,CAIRN,LF,lure,-,-,-,liberal,no,m,1,0.773292947852,1,461
109,001,3,recog,43,PROBABLY,HF,target,left,aqua,pleasantness,conservative,no,m,0,1.74641366355,-1,460
109,001,3,recog,44,VEGAN,LF,target,left,aqua,pleasantness,liberal,no,z,1,0.560139736044,3,463
109,001,3,recog,45,TANGIER,LF,lure,-,-,-,liberal,yes,z,0,0.586488539469,-1,462
109,001,3,recog,46,YELLOWED,LF,lure,-,-,-,conservative,no,m,1,0.839788555575,3,465
109,001,3,recog,47,UNKEMPT,LF,target,left,aqua,pleasantness,conservative,no,z,1,1.58634409617,1,466
109,001,3,recog,48,BAOBAB,LF,target,right,yellow,imageability,conservative,no,z,1,0.826641649415,1,467
109,001,3,recog,49,HIMSELF,HF,lure,-,-,-,conservative,no,m,1,0.813136201235,3,470
109,001,3,recog,50,MEANS,HF,lure,-,-,-,liberal,no,m,1,1.49306855485,1,471
109,001,3,recog,51,ENOUGH,HF,lure,-,-,-,liberal,no,m,1,0.759991333412,1,472
109,001,3,recog,52,PASSED,HF,target,left,aqua,pleasantness,conservative,no,z,1,1.58637159178,1,473
109,001,3,recog,53,LEFTISTS,LF,target,left,aqua,pleasantness,conservative,no,z,1,0.546519539785,1,474
109,001,3,recog,54,MITIGATE,LF,lure,-,-,-,liberal,no,m,1,0.679936752887,1,475
109,001,3,recog,55,ENTIRELY,HF,lure,-,-,-,conservative,no,m,1,1.73288768542,3,478
109,001,3,recog,56,PUBLIC,HF,target,right,yellow,imageability,conservative,no,z,1,1.01317403512,1,479
109,001,3,recog,57,LIVED,HF,lure,-,-,-,conservative,no,m,1,1.37320774829,3,482
109,001,3,recog,58,TIGHTNESS,LF,lure,-,-,-,liberal,no,m,1,0.693360081001,1,483
109,001,3,recog,59,LEOPARDS,LF,target,right,yellow,imageability,liberal,no,z,1,0.773315310886,3,486
109,001,3,recog,60,PRACTICE,HF,target,right,yellow,imageability,liberal,no,m,0,0.826719736739,-3,483
109,001,3,recog,61,ZOOLOGY,LF,target,left,aqua,pleasantness,liberal,no,z,1,0.533462819061,3,486
109,001,3,recog,62,NUTSHELL,LF,target,right,yellow,imageability,liberal,no,z,1,0.533425058471,3,489
109,001,3,recog,63,LOOKED,HF,target,left,aqua,pleasantness,conservative,no,z,1,0.826651181153,1,490
109,001,3,recog,64,ACTION,HF,lure,-,-,-,conservative,no,m,1,0.666843004816,3,493
109,001,3,recog,65,MESSED,LF,target,left,aqua,pleasantness,liberal,no,z,1,0.719782572531,3,496
109,001,3,recog,66,SPACE,HF,lure,-,-,-,liberal,no,m,1,0.946616104164,1,497
109,001,3,recog,67,BOTANIST,LF,lure,-,-,-,liberal,no,m,1,0.600100670359,1,498
109,001,3,recog,68,SWOOPING,LF,target,right,yellow,imageability,liberal,no,z,1,0.666743287642,3,501
109,001,3,recog,69,LETTER,HF,target,right,yellow,imageability,liberal,no,z,1,1.01317220205,3,504
109,001,3,recog,70,NECESSARY,HF,lure,-,-,-,conservative,no,m,1,0.879726027022,3,507
109,001,3,recog,71,DUSTER,LF,target,left,aqua,pleasantness,conservative,no,z,1,0.759984734468,1,508
109,001,3,recog,72,FRIEND,HF,lure,-,-,-,conservative,no,m,1,0.600024782645,3,511
109,001,3,recog,73,HICKORY,LF,target,left,aqua,pleasantness,liberal,no,z,1,0.626801050268,3,514
109,001,3,recog,74,EMACIATED,LF,target,right,yellow,imageability,conservative,no,z,1,0.826666212059,1,515
109,001,3,recog,75,LOYALIST,LF,lure,-,-,-,liberal,no,m,1,1.34644467855,1,516
109,001,3,recog,76,SLEEP,HF,target,left,aqua,pleasantness,liberal,no,z,1,0.720056061633,3,519
109,001,3,recog,77,WRONG,HF,target,left,aqua,pleasantness,liberal,no,z,1,1.07987420965,3,522
109,001,3,recog,78,APART,HF,lure,-,-,-,liberal,no,m,1,0.680065432098,1,523
109,001,3,recog,79,BOXCAR,LF,lure,-,-,-,liberal,no,z,0,0.533464285487,-1,522
109,001,3,recog,80,SPEAK,HF,lure,-,-,-,conservative,no,m,1,0.693389043037,3,525
109,001,3,recog,81,PICTURE,HF,target,right,yellow,imageability,conservative,no,m,0,1.34620968328,-1,524
109,001,3,recog,82,OBVIOUSLY,HF,lure,-,-,-,liberal,no,m,1,1.53301922418,1,525
109,001,3,recog,83,BASIC,HF,lure,-,-,-,liberal,no,m,1,0.586723534798,1,526
109,001,3,recog,84,FINAL,HF,lure,-,-,-,liberal,no,m,1,0.586718768871,1,527
109,001,3,recog,85,OPPOSES,LF,target,right,yellow,imageability,liberal,no,m,0,0.973356810922,-3,524
109,001,3,recog,86,MIDDLE,HF,lure,-,-,-,conservative,no,m,1,0.866622013913,3,527
109,001,3,recog,87,LAUNCHER,LF,lure,-,-,-,conservative,no,m,1,1.05325521663,3,530
109,001,3,recog,88,DORMS,LF,lure,-,-,-,liberal,no,m,1,0.626744592737,1,531
109,001,3,recog,89,SOVIET,HF,target,right,yellow,imageability,liberal,no,z,1,0.666694895423,3,534
109,001,3,recog,90,SKYLIGHT,LF,target,left,aqua,pleasantness,conservative,no,z,1,0.6000581439,1,535
109,001,3,recog,91,SOYBEAN,LF,lure,-,-,-,conservative,no,m,1,0.586782191938,3,538
109,001,3,recog,92,VETOED,LF,lure,-,-,-,conservative,no,m,1,0.733344478183,3,541
109,001,3,recog,93,WOMAN,HF,target,left,aqua,pleasantness,liberal,no,z,1,0.560156233376,3,544
109,001,3,recog,94,SUNBURN,LF,target,right,yellow,imageability,conservative,no,z,1,0.626465971116,1,545
109,001,3,recog,95,NEOLITHIC,LF,target,left,aqua,pleasantness,conservative,no,z,1,0.77335930377,1,546
109,001,4,source,0,MINISTER,HF,target,left,aqua,pleasantness,liberal,no,1,1,1.0265903977,-,-
109,001,4,source,1,ANSWER,HF,target,left,aqua,pleasantness,liberal,no,1,1,0.866667106631,-,-
109,001,4,source,2,GAPED,LF,target,left,aqua,pleasantness,liberal,no,1,1,0.840008153347,-,-
109,001,4,source,3,OUTSIDE,HF,target,left,aqua,pleasantness,liberal,no,1,1,0.879738491669,-,-
109,001,4,source,4,EMIGRATED,LF,target,right,yellow,imageability,conservative,no,8,1,1.19983290037,-,-
109,001,4,source,5,SORRY,HF,target,left,aqua,pleasantness,conservative,no,1,1,0.959923950955,-,-
109,001,4,source,6,BODICE,LF,target,left,aqua,pleasantness,liberal,no,1,1,1.26649531443,-,-
109,001,4,source,7,BICEPS,LF,target,right,yellow,imageability,conservative,no,9,1,1.37306293839,-,-
109,001,4,source,8,WEEKS,HF,target,right,yellow,imageability,liberal,no,1,0,0.746463155607,-,-
109,001,4,source,9,TELEPHONE,HF,target,right,yellow,imageability,liberal,no,1,0,0.853291804029,-,-
109,001,4,source,10,POTASH,LF,target,right,yellow,imageability,liberal,no,8,1,0.546745369968,-,-
109,001,4,source,11,SODDING,LF,target,right,yellow,imageability,conservative,no,7,1,0.986607466941,-,-
109,001,4,source,12,BINDINGS,LF,target,left,aqua,pleasantness,liberal,no,3,1,0.680067631707,-,-
109,001,4,source,13,UNOPENED,LF,target,left,aqua,pleasantness,conservative,no,8,0,0.853448712034,-,-
109,001,4,source,14,GARDEN,HF,target,right,yellow,imageability,conservative,no,3,0,1.14653662371,-,-
109,001,4,source,15,NATIONAL,HF,target,right,yellow,imageability,conservative,no,2,0,1.07986687752,-,-
109,001,4,source,16,QUICKLY,HF,target,right,yellow,imageability,liberal,no,7,1,1.6262771684,-,-
109,001,4,source,17,HIGHER,HF,target,left,aqua,pleasantness,conservative,no,3,1,0.573391858547,-,-
109,001,4,source,18,FITFUL,LF,target,left,aqua,pleasantness,liberal,no,7,0,0.586559661257,-,-
109,001,4,source,19,SUPPORT,HF,target,right,yellow,imageability,liberal,no,3,0,0.586473141972,-,-
109,001,4,source,20,IGNOBLE,LF,target,right,yellow,imageability,liberal,yes,8,1,0.613433813094,-,-
109,001,4,source,21,INDEED,HF,target,left,aqua,pleasantness,conservative,no,2,1,1.09332100069,-,-
109,001,4,source,22,EMOTIVE,LF,target,right,yellow,imageability,conservative,no,8,1,1.73294524278,-,-
109,001,4,source,23,WHOLE,HF,target,left,aqua,pleasantness,liberal,no,2,1,1.02636970003,-,-
109,001,4,source,24,IMPORTANT,HF,target,right,yellow,imageability,liberal,no,1,0,1.07978072483,-,-
109,001,4,source,25,MAJOR,HF,target,left,aqua,pleasantness,liberal,no,1,1,0.626758890401,-,-
109,001,4,source,26,WHATEVER,HF,target,right,yellow,imageability,conservative,no,8,1,1.57301461959,-,-
109,001,4,source,27,CADDIE,LF,target,left,aqua,pleasantness,liberal,no,1,1,0.759996832523,-,-
109,001,4,source,28,ODOURS,LF,target,left,aqua,pleasantness,liberal,no,8,0,0.880061106116,-,-
109,001,4,source,29,BOGEY,LF,target,left,aqua,pleasantness,conservative,no,1,1,0.999902849027,-,-
109,001,4,source,30,MODERN,HF,target,right,yellow,imageability,conservative,yes,8,1,0.640034475771,-,-
109,001,4,source,31,WITHIN,HF,target,right,yellow,imageability,conservative,yes,8,1,0.506764272228,-,-
109,001,4,source,32,WEIRDLY,LF,target,right,yellow,imageability,liberal,no,7,1,2.71923082846,-,-
109,001,4,source,33,BLACK,HF,target,left,aqua,pleasantness,liberal,no,1,1,1.17311712302,-,-
109,001,4,source,34,FONDLE,LF,target,left,aqua,pleasantness,conservative,no,7,0,1.1329255926,-,-
109,001,4,source,35,EDUCATION,HF,target,left,aqua,pleasantness,conservative,no,2,1,1.59961564885,-,-
109,001,4,source,36,MOGUL,LF,target,right,yellow,imageability,conservative,no,7,1,1.42630752345,-,-
109,001,4,source,37,TACITLY,LF,target,left,aqua,pleasantness,conservative,no,1,1,1.11989710067,-,-
109,001,4,source,38,BUZZARD,LF,target,right,yellow,imageability,liberal,no,8,1,0.733305617818,-,-
109,001,4,source,39,ROCKER,LF,target,left,aqua,pleasantness,conservative,no,2,1,0.826461278542,-,-
109,001,4,source,40,CHAIR,HF,target,right,yellow,imageability,liberal,no,7,1,0.933216238976,-,-
109,001,4,source,41,MAYBE,HF,target,right,yellow,imageability,conservative,no,2,0,0.653172583319,-,-
109,001,4,source,42,HAPPEN,HF,target,left,aqua,pleasantness,conservative,no,7,0,1.45300240419,-,-
109,001,4,source,43,NARRATOR,LF,target,right,yellow,imageability,liberal,no,2,0,2.55928884045,-,-
109,001,4,source,44,ICEBOX,LF,target,right,yellow,imageability,conservative,yes,7,1,0.600062176585,-,-
109,001,4,source,45,PIGLETS,LF,target,right,yellow,imageability,liberal,no,3,0,1.186576012,-,-
109,001,4,source,46,DEGREE,HF,target,left,aqua,pleasantness,conservative,no,8,0,0.706557212339,-,-
109,001,4,source,47,SAGES,LF,target,left,aqua,pleasantness,conservative,no,2,1,0.77319359727,-,-
109,001,4,recog,0,FARAWAY,LF,lure,-,-,-,conservative,no,m,1,0.919698692742,3,549
109,001,4,recog,1,UNOPENED,LF,target,left,aqua,pleasantness,conservative,no,z,1,0.800015690795,1,550
109,001,4,recog,2,TUMBLER,LF,lure,-,-,-,liberal,no,m,1,0.66674218775,1,551
109,001,4,recog,3,SORRY,HF,target,left,aqua,pleasantness,conservative,no,z,1,0.680122989463,1,552
109,001,4,recog,4,WEDGES,LF,lure,-,-,-,conservative,no,m,1,0.693309489172,3,555
109,001,4,recog,5,WAYSIDE,LF,lure,-,-,-,liberal,yes,m,1,0.546525772137,1,556
109,001,4,recog,6,IGNOBLE,LF,target,right,yellow,imageability,liberal,no,z,1,2.0128554533,3,559
109,001,4,recog,7,INSIDE,HF,lure,-,-,-,conservative,no,z,0,0.813301907736,-3,556
109,001,4,recog,8,NARRATOR,LF,target,right,yellow,imageability,liberal,no,z,1,0.719785871974,3,559
109,001,4,recog,9,SAGES,LF,target,left,aqua,pleasantness,conservative,no,z,1,1.17318017944,1,560
109,001,4,recog,10,EMIGRATED,LF,target,right,yellow,imageability,conservative,no,z,1,0.82640152151,1,561
109,001,4,recog,11,TACITLY,LF,target,left,aqua,pleasantness,conservative,no,z,1,0.720014268358,1,562
109,001,4,recog,12,AIRBED,LF,lure,-,-,-,conservative,no,m,1,0.813323537586,3,565
109,001,4,recog,13,WATCH,HF,lure,-,-,-,conservative,no,m,1,0.813086342649,3,568
109,001,4,recog,14,RUNNING,HF,lure,-,-,-,liberal,no,z,0,0.69335714815,-1,567
109,001,4,recog,15,CADDIE,LF,target,left,aqua,pleasantness,liberal,no,z,1,0.666548985755,3,570
109,001,4,recog,16,HAGGLING,LF,lure,-,-,-,liberal,yes,m,1,0.959927617048,1,571
109,001,4,recog,17,MAYBE,HF,target,right,yellow,imageability,conservative,no,m,0,1.37307760271,-1,570
109,001,4,recog,18,HAPPEN,HF,target,left,aqua,pleasantness,conservative,no,m,0,1.01331187948,-1,569
109,001,4,recog,19,ROCKER,LF,target,left,aqua,pleasantness,conservative,no,z,1,0.813278078276,1,570
109,001,4,recog,20,BETTER,HF,lure,-,-,-,liberal,no,m,1,1.02660909464,1,571
109,001,4,recog,21,MOGUL,LF,target,right,yellow,imageability,conservative,no,z,1,0.693341384002,1,572
109,001,4,recog,22,FITFUL,LF,target,left,aqua,pleasantness,liberal,no,z,1,0.746686419472,3,575
109,001,4,recog,23,WELCOMES,LF,lure,-,-,-,liberal,no,m,1,0.973225565453,1,576
109,001,4,recog,24,EDUCATION,HF,target,left,aqua,pleasantness,conservative,no,z,1,0.906562418211,1,577
109,001,4,recog,25,ALTHOUGH,HF,lure,-,-,-,liberal,no,m,1,0.746441525756,1,578
109,001,4,recog,26,INHABITS,LF,lure,-,-,-,liberal,no,m,1,0.720005836396,1,579
109,001,4,recog,27,BUZZARD,LF,target,right,yellow,imageability,liberal,no,z,1,0.600049711938,3,582
109,001,4,recog,28,NATIONAL,HF,target,right,yellow,imageability,conservative,no,z,1,0.533598097158,1,583
109,001,4,recog,29,SEABED,LF,lure,-,-,-,conservative,no,m,1,0.626808382454,3,586
109,001,4,recog,30,BEAUTIFUL,HF,lure,-,-,-,conservative,no,m,1,0.906413575634,3,589
109,001,4,recog,31,OUTSIDE,HF,target,left,aqua,pleasantness,liberal,no,z,1,0.626744592679,3,592
109,001,4,recog,32,TAPER,LF,lure,-,-,-,conservative,no,m,1,0.653424809221,3,595
109,001,4,recog,33,KEENER,LF,lure,-,-,-,conservative,no,z,0,0.520016394672,-3,592
109,001,4,recog,34,MARKET,HF,lure,-,-,-,conservative,no,z,0,2.11940438038,-3,589
109,001,4,recog,35,EQUALLED,LF,lure,-,-,-,conservative,no,m,1,0.679993210419,3,592
109,001,4,recog,36,QUESTION,HF,lure,-,-,-,conservative,no,m,1,1.17312958761,3,595
109,001,4,recog,37,GEYSER,LF,lure,-,-,-,liberal,no,m,1,0.653460003552,1,596
109,001,4,recog,38,WEIRDLY,LF,target,right,yellow,imageability,liberal,no,z,1,0.879995483439,3,599
109,001,4,recog,39,PERHAPS,HF,lure,-,-,-,liberal,no,m,1,0.640097165597,1,600
109,001,4,recog,40,OFFER,HF,lure,-,-,-,liberal,no,z,0,0.986350108578,-1,599
109,001,4,recog,41,GAPED,LF,target,left,aqua,pleasantness,liberal,no,z,1,0.813300807902,3,602
109,001,4,recog,42,TOTAL,HF,lure,-,-,-,liberal,no,z,0,0.879942325293,-1,601
109,001,4,recog,43,WRITE,HF,lure,-,-,-,liberal,no,m,1,0.759988400561,1,602
109,001,4,recog,44,WHATEVER,HF,target,right,yellow,imageability,conservative,no,z,1,0.999866188329,1,603
109,001,4,recog,45,BLACK,HF,target,left,aqua,pleasantness,liberal,no,z,1,0.61338725395,3,606
109,001,4,recog,46,BINDINGS,LF,target,left,aqua,pleasantness,liberal,no,z,1,1.11958658427,3,609
109,001,4,recog,47,POTASH,LF,target,right,yellow,imageability,liberal,no,z,1,0.786701245059,3,612
109,001,4,recog,48,ATTACK,HF,lure,-,-,-,liberal,no,z,0,1.03960495855,-1,611
109,001,4,recog,49,PLODDED,LF,lure,-,-,-,liberal,no,z,0,0.799945302191,-1,610
109,001,4,recog,50,BOGEY,LF,target,left,aqua,pleasantness,conservative,no,z,1,0.639848972438,1,611
109,001,4,recog,51,PIGLETS,LF,target,right,yellow,imageability,liberal,no,z,1,0.653345988656,3,614
109,001,4,recog,52,WHOLE,HF,target,left,aqua,pleasantness,liberal,no,z,1,1.10652436438,3,617
109,001,4,recog,53,STUDENT,HF,lure,-,-,-,conservative,no,m,1,0.919888228702,3,620
109,001,4,recog,54,IDEAS,HF,lure,-,-,-,conservative,no,m,1,0.586463610176,3,623
109,001,4,recog,55,ICEBOX,LF,target,right,yellow,imageability,conservative,no,m,0,0.49347878847,-1,622
109,001,4,recog,56,QUICKLY,HF,target,right,yellow,imageability,liberal,no,z,1,0.6265499242,3,625
109,001,4,recog,57,GARDEN,HF,target,right,yellow,imageability,conservative,no,z,1,0.600048612163,1,626
109,001,4,recog,58,ANVIL,LF,lure,-,-,-,conservative,no,m,1,0.640043640975,3,629
109,001,4,recog,59,LOCAL,HF,lure,-,-,-,liberal,no,z,0,1.75964488945,-1,628
109,001,4,recog,60,MODERN,HF,target,right,yellow,imageability,conservative,yes,m,0,0.719965509546,-1,627
109,001,4,recog,61,CAUGHT,HF,lure,-,-,-,conservative,no,m,1,1.29312603892,3,630
109,001,4,recog,62,RAFTERS,LF,lure,-,-,-,conservative,no,m,1,0.493417198421,3,633
109,001,4,recog,63,ANYONE,HF,lure,-,-,-,liberal,no,m,1,0.733300851949,1,634
109,001,4,recog,64,SUCCESS,HF,lure,-,-,-,conservative,no,m,1,0.786642954452,3,637
109,001,4,recog,65,ANSWER,HF,target,left,aqua,pleasantness,liberal,no,z,1,1.10650236794,3,640
109,001,4,recog,66,BICEPS,LF,target,right,yellow,imageability,conservative,no,z,1,0.653386315447,1,641
109,001,4,recog,67,MAJOR,HF,target,left,aqua,pleasantness,liberal,no,z,1,0.560106374789,3,644
109,001,4,recog,68,BUOYANCY,LF,lure,-,-,-,liberal,no,m,1,0.879986684828,1,645
109,001,4,recog,69,CHAIR,HF,target,right,yellow,imageability,liberal,no,z,1,0.680060666171,3,648
109,001,4,recog,70,SODDING,LF,target,right,yellow,imageability,conservative,no,z,1,0.86661834782,1,649
109,001,4,recog,71,DEGREE,HF,target,left,aqua,pleasantness,conservative,no,z,1,0.746651591791,1,650
109,001,4,recog,72,MINISTER,HF,target,left,aqua,pleasantness,liberal,no,z,1,0.5333524702,3,653
109,001,4,recog,73,PAPER,HF,lure,-,-,-,conservative,no,z,0,1.61304484267,-3,650
109,001,4,recog,74,UNHEEDED,LF,lure,-,-,-,conservative,no,m,1,0.559863680683,3,653
109,001,4,recog,75,IMPORTANT,HF,target,right,yellow,imageability,liberal,no,z,1,1.03987771447,3,656
109,001,4,recog,76,MOLARS,LF,lure,-,-,-,liberal,no,m,1,0.719802735897,1,657
109,001,4,recog,77,SUPPORT,HF,target,right,yellow,imageability,liberal,no,z,1,0.760116713122,3,660
109,001,4,recog,78,EMOTIVE,LF,target,right,yellow,imageability,conservative,no,z,1,0.893312495376,1,661
109,001,4,recog,79,WITHIN,HF,target,right,yellow,imageability,conservative,no,z,1,2.09283084661,1,662
109,001,4,recog,80,HEALTH,HF,lure,-,-,-,conservative,no,m,1,0.639826609404,3,665
109,001,4,recog,81,TELEPHONE,HF,target,right,yellow,imageability,liberal,no,z,1,0.706695056753,3,668
109,001,4,recog,82,FONDLE,LF,target,left,aqua,pleasantness,conservative,no,z,1,1.09335876122,1,669
109,001,4,recog,83,SOMEONE,HF,lure,-,-,-,liberal,no,m,1,0.919910591794,1,670
109,001,4,recog,84,MOVED,HF,lure,-,-,-,liberal,no,m,1,0.720042130502,1,671
109,001,4,recog,85,DUPLICITY,LF,lure,-,-,-,liberal,no,m,1,0.693388309737,1,672
109,001,4,recog,86,BOVINE,LF,lure,-,-,-,liberal,no,m,1,0.706719252805,1,673
109,001,4,recog,87,WEEKS,HF,target,right,yellow,imageability,liberal,no,m,0,0.666679131275,-3,670
109,001,4,recog,88,HIGHER,HF,target,left,aqua,pleasantness,conservative,no,z,1,1.39970062842,1,671
109,001,4,recog,89,UNGAINLY,LF,lure,-,-,-,conservative,no,m,1,0.586788057699,3,674
109,001,4,recog,90,BODICE,LF,target,left,aqua,pleasantness,liberal,yes,m,0,0.50670854788,-3,671
109,001,4,recog,91,INDEED,HF,target,left,aqua,pleasantness,conservative,no,z,1,0.653148387268,1,672
109,001,4,recog,92,ODOURS,LF,target,left,aqua,pleasantness,liberal,no,z,1,1.09315456095,3,675
109,001,4,recog,93,WOODCOCK,LF,lure,-,-,-,conservative,no,m,1,0.759974836081,3,678
109,001,4,recog,94,EITHER,HF,lure,-,-,-,conservative,no,z,0,1.4265256548,-3,675
109,001,4,recog,95,MIGHTILY,LF,lure,-,-,-,liberal,no,m,1,0.653438373702,1,676
