date,subj,session,cycle,task,trial,item,wf,type,source,colour,encoding,bias,null,response,corr,rt,points,total
2019_Sep_30,11,001,0,source,0,TODAY,HF,target,left,yellow,imageability,conservative,yes,3,1,3.1062373108,-,-
2019_Sep_30,11,001,0,source,1,DEJECTED,LF,target,right,aqua,pleasantness,liberal,yes,3,0,2.00027568873,-,-
2019_Sep_30,11,001,0,source,2,ANSWER,HF,target,right,aqua,pleasantness,conservative,no,9,1,2.37673781049,-,-
2019_Sep_30,11,001,0,source,3,POOLED,LF,target,right,aqua,pleasantness,liberal,no,7,1,2.35327640654,-,-
2019_Sep_30,11,001,0,source,4,CUFFED,LF,target,right,aqua,pleasantness,liberal,no,8,1,1.81231023487,-,-
2019_Sep_30,11,001,0,source,5,OUTSIDE,HF,target,right,aqua,pleasantness,conservative,no,8,1,2.4710090574,-,-
2019_Sep_30,11,001,0,source,6,RUNNING,HF,target,left,yellow,imageability,liberal,no,2,1,2.09452200634,-,-
2019_Sep_30,11,001,0,source,7,CYNIC,LF,target,left,yellow,imageability,conservative,no,2,1,1.270925031,-,-
2019_Sep_30,11,001,0,source,8,ALONE,HF,target,left,yellow,imageability,conservative,no,8,0,2.09452053991,-,-
2019_Sep_30,11,001,0,source,9,CIRCUSES,LF,target,left,yellow,imageability,conservative,no,2,1,1.48264810754,-,-
2019_Sep_30,11,001,0,source,10,WAITING,HF,target,right,aqua,pleasantness,liberal,no,9,1,1.90617711388,-,-
2019_Sep_30,11,001,0,source,11,AMICABLY,LF,target,right,aqua,pleasantness,conservative,no,2,0,2.49448915832,-,-
2019_Sep_30,11,001,0,source,12,LAWFUL,LF,target,left,yellow,imageability,conservative,yes,2,1,1.03562873527,-,-
2019_Sep_30,11,001,0,source,13,LETTER,HF,target,left,yellow,imageability,liberal,no,8,0,1.83562279623,-,-
2019_Sep_30,11,001,0,source,14,BAFFLING,LF,target,left,yellow,imageability,liberal,no,8,0,1.36500087619,-,-
2019_Sep_30,11,001,0,source,15,COUNCIL,HF,target,left,yellow,imageability,liberal,no,8,0,1.76502521892,-,-
2019_Sep_30,11,001,0,source,16,TULIPS,LF,target,right,aqua,pleasantness,conservative,no,8,1,0.847165428634,-,-
2019_Sep_30,11,001,0,source,17,ANNALS,LF,target,left,yellow,imageability,conservative,no,2,1,1.27088433758,-,-
2019_Sep_30,11,001,0,source,18,SYSTEM,HF,target,left,yellow,imageability,conservative,no,9,0,1.60027774173,-,-
2019_Sep_30,11,001,0,source,19,STOOD,HF,target,right,aqua,pleasantness,liberal,no,9,1,1.03564816546,-,-
2019_Sep_30,11,001,0,source,20,CAIRN,LF,target,right,aqua,pleasantness,liberal,no,9,1,1.41200360448,-,-
2019_Sep_30,11,001,0,source,21,MATERIAL,HF,target,right,aqua,pleasantness,liberal,no,8,1,1.60027994137,-,-
2019_Sep_30,11,001,0,source,22,SWOOPING,LF,target,left,yellow,imageability,liberal,no,8,0,1.38846081371,-,-
2019_Sep_30,11,001,0,source,23,ASKED,HF,target,right,aqua,pleasantness,liberal,no,8,1,1.34147494935,-,-
2019_Sep_30,11,001,0,source,24,RUMBLED,LF,target,left,yellow,imageability,liberal,no,2,1,1.7651238363,-,-
2019_Sep_30,11,001,0,source,25,WICKEDLY,LF,target,left,yellow,imageability,liberal,no,2,1,1.83569465127,-,-
2019_Sep_30,11,001,0,source,26,MISFITS,LF,target,right,aqua,pleasantness,liberal,no,2,0,2.02384524184,-,-
2019_Sep_30,11,001,0,source,27,FREEDOM,HF,target,left,yellow,imageability,conservative,no,2,1,1.08257280639,-,-
2019_Sep_30,11,001,0,source,28,TOGETHER,HF,target,right,aqua,pleasantness,liberal,no,8,1,1.10624610938,-,-
2019_Sep_30,11,001,0,source,29,MORNING,HF,target,left,yellow,imageability,liberal,no,8,0,1.60012816593,-,-
2019_Sep_30,11,001,0,source,30,FEIGNED,LF,target,left,yellow,imageability,conservative,no,2,1,1.0825035176,-,-
2019_Sep_30,11,001,0,source,31,FURTHER,HF,target,right,aqua,pleasantness,conservative,no,8,1,1.15322720784,-,-
2019_Sep_30,11,001,0,source,32,FAILINGS,LF,target,right,aqua,pleasantness,conservative,no,8,1,1.01213763613,-,-
2019_Sep_30,11,001,0,source,33,GASEOUS,LF,target,left,yellow,imageability,liberal,no,2,1,1.52972305748,-,-
2019_Sep_30,11,001,0,source,34,GAPED,LF,target,right,aqua,pleasantness,conservative,no,2,0,1.90622550605,-,-
2019_Sep_30,11,001,0,source,35,NEWMARKET,LF,target,right,aqua,pleasantness,liberal,yes,2,0,0.941397815167,-,-
2019_Sep_30,11,001,0,source,36,RAYON,LF,target,left,yellow,imageability,conservative,no,8,0,2.11806663015,-,-
2019_Sep_30,11,001,0,source,37,BOOKS,HF,target,left,yellow,imageability,conservative,no,8,0,1.20030765689,-,-
2019_Sep_30,11,001,0,source,38,SLEEP,HF,target,right,aqua,pleasantness,conservative,no,2,0,2.37690425023,-,-
2019_Sep_30,11,001,0,source,39,MEDDLE,LF,target,right,aqua,pleasantness,conservative,no,8,1,2.07090222802,-,-
2019_Sep_30,11,001,0,source,40,EARLIER,HF,target,right,aqua,pleasantness,liberal,no,8,1,1.6238652586,-,-
2019_Sep_30,11,001,0,source,41,JOLLITY,LF,target,left,yellow,imageability,liberal,no,8,0,1.92972393733,-,-
2019_Sep_30,11,001,0,source,42,HIGHER,HF,target,right,aqua,pleasantness,conservative,no,2,0,2.09454143653,-,-
2019_Sep_30,11,001,0,source,43,SEINE,LF,target,right,aqua,pleasantness,conservative,no,2,0,2.63545188389,-,-
2019_Sep_30,11,001,0,source,44,BROUGHT,HF,target,right,aqua,pleasantness,conservative,no,8,1,1.57674924864,-,-
2019_Sep_30,11,001,0,source,45,TRADE,HF,target,left,yellow,imageability,conservative,no,8,0,1.97675269475,-,-
2019_Sep_30,11,001,0,source,46,CORNER,HF,target,left,yellow,imageability,liberal,no,8,0,2.00016094063,-,-
2019_Sep_30,11,001,0,source,47,DEVELOPED,HF,target,left,yellow,imageability,liberal,no,2,1,1.92967041266,-,-
2019_Sep_30,11,001,0,recog,0,GAPED,LF,target,right,aqua,pleasantness,conservative,yes,m,0,2.01215193382,-1,-1
2019_Sep_30,11,001,0,recog,1,TRYING,HF,lure,-,-,-,conservative,no,z,0,2.3179482893,-3,-4
2019_Sep_30,11,001,0,recog,2,FURTHER,HF,target,right,aqua,pleasantness,conservative,no,z,1,3.12982226142,1,-3
2019_Sep_30,11,001,0,recog,3,TIRADE,LF,lure,-,-,-,liberal,no,m,1,1.52979307948,1,-2
2019_Sep_30,11,001,0,recog,4,HAVING,HF,lure,-,-,-,conservative,no,m,1,1.30596132879,3,1
2019_Sep_30,11,001,0,recog,5,PEEKED,LF,lure,-,-,-,liberal,no,z,0,2.57698277752,-1,0
2019_Sep_30,11,001,0,recog,6,TOGETHER,HF,target,right,aqua,pleasantness,liberal,no,z,1,1.90617931352,3,3
2019_Sep_30,11,001,0,recog,7,JOLLITY,LF,target,left,yellow,imageability,liberal,no,z,1,1.54177087481,3,6
2019_Sep_30,11,001,0,recog,8,SWEARS,LF,lure,-,-,-,conservative,no,m,1,1.31806890312,3,9
2019_Sep_30,11,001,0,recog,9,CLOSE,HF,lure,-,-,-,liberal,no,m,1,1.60019012257,1,10
2019_Sep_30,11,001,0,recog,10,UNJUSTLY,LF,lure,-,-,-,liberal,no,m,1,1.56507317116,1,11
2019_Sep_30,11,001,0,recog,11,MISFITS,LF,target,right,aqua,pleasantness,liberal,no,z,1,1.05912643334,3,14
2019_Sep_30,11,001,0,recog,12,UNLESS,HF,lure,-,-,-,liberal,no,m,1,1.08269488663,1,15
2019_Sep_30,11,001,0,recog,13,ASKED,HF,target,right,aqua,pleasantness,liberal,no,m,0,1.71794660291,-3,12
2019_Sep_30,11,001,0,recog,14,ALONE,HF,target,left,yellow,imageability,conservative,no,m,0,2.88283082464,-1,11
2019_Sep_30,11,001,0,recog,15,EARLIER,HF,target,right,aqua,pleasantness,liberal,no,z,1,1.62390961809,3,14
2019_Sep_30,11,001,0,recog,16,MODERN,HF,lure,-,-,-,conservative,no,m,1,2.00043809578,3,17
2019_Sep_30,11,001,0,recog,17,RUMBLED,LF,target,left,yellow,imageability,liberal,no,z,1,2.28273895284,3,20
2019_Sep_30,11,001,0,recog,18,GIRLS,HF,lure,-,-,-,conservative,no,m,1,1.81214636139,3,23
2019_Sep_30,11,001,0,recog,19,SYSTEM,HF,target,left,yellow,imageability,conservative,no,z,1,1.89450983498,1,24
2019_Sep_30,11,001,0,recog,20,WICKEDLY,LF,target,left,yellow,imageability,liberal,no,z,1,1.58860276407,3,27
2019_Sep_30,11,001,0,recog,21,CICADAS,LF,lure,-,-,-,liberal,no,z,0,0.765168562393,-1,26
2019_Sep_30,11,001,0,recog,22,LUXURIANT,LF,lure,-,-,-,liberal,yes,z,0,1.17688694636,-1,25
2019_Sep_30,11,001,0,recog,23,LAGER,LF,lure,-,-,-,liberal,no,m,1,1.21213294356,1,26
2019_Sep_30,11,001,0,recog,24,THING,HF,lure,-,-,-,conservative,no,m,1,0.906232838193,3,29
2019_Sep_30,11,001,0,recog,25,VANDALS,LF,lure,-,-,-,conservative,yes,m,1,0.941277934564,3,32
2019_Sep_30,11,001,0,recog,26,CONCERNED,HF,lure,-,-,-,conservative,no,m,1,1.55332230578,3,35
2019_Sep_30,11,001,0,recog,27,POOLED,LF,target,right,aqua,pleasantness,liberal,no,z,1,1.00028668695,3,38
2019_Sep_30,11,001,0,recog,28,MYSELF,HF,lure,-,-,-,liberal,no,m,1,0.859082733747,1,39
2019_Sep_30,11,001,0,recog,29,BIRCHES,LF,lure,-,-,-,liberal,no,m,1,0.811903300713,1,40
2019_Sep_30,11,001,0,recog,30,ARMAMENT,LF,lure,-,-,-,conservative,no,z,0,1.80033647223,-3,37
2019_Sep_30,11,001,0,recog,31,SUPPORT,HF,lure,-,-,-,liberal,no,m,1,2.68275779646,1,38
2019_Sep_30,11,001,0,recog,32,HOSPITAL,HF,lure,-,-,-,conservative,no,m,1,0.89463778094,3,41
2019_Sep_30,11,001,0,recog,33,BAFFLING,LF,target,left,yellow,imageability,liberal,no,z,1,0.976778357262,3,44
2019_Sep_30,11,001,0,recog,34,SOJOURN,LF,lure,-,-,-,conservative,no,m,1,1.54146072499,3,47
2019_Sep_30,11,001,0,recog,35,ENOUGH,HF,lure,-,-,-,conservative,no,m,1,1.78848442322,3,50
2019_Sep_30,11,001,0,recog,36,BUZZARD,LF,lure,-,-,-,liberal,no,m,1,1.02396988834,1,51
2019_Sep_30,11,001,0,recog,37,LAXATIVE,LF,lure,-,-,-,liberal,no,m,1,1.01211527308,1,52
2019_Sep_30,11,001,0,recog,38,WINDOW,HF,lure,-,-,-,conservative,no,m,1,0.776612944026,3,55
2019_Sep_30,11,001,0,recog,39,BROUGHT,HF,target,right,aqua,pleasantness,conservative,no,z,1,0.835526378499,1,56
2019_Sep_30,11,001,0,recog,40,CYNIC,LF,target,left,yellow,imageability,conservative,no,z,1,0.812053243119,1,57
2019_Sep_30,11,001,0,recog,41,SOUND,HF,lure,-,-,-,liberal,no,m,1,0.71793230522,1,58
2019_Sep_30,11,001,0,recog,42,SILENCER,LF,lure,-,-,-,liberal,no,m,1,0.965004029015,1,59
2019_Sep_30,11,001,0,recog,43,FLOOR,HF,lure,-,-,-,liberal,no,m,1,1.43566590926,1,60
2019_Sep_30,11,001,0,recog,44,LETTER,HF,target,left,yellow,imageability,liberal,no,z,1,0.823735919528,3,63
2019_Sep_30,11,001,0,recog,45,ADDED,HF,lure,-,-,-,liberal,no,m,1,1.17670767536,1,64
2019_Sep_30,11,001,0,recog,46,RAYON,LF,target,left,yellow,imageability,conservative,no,m,0,1.18836945516,-1,63
2019_Sep_30,11,001,0,recog,47,GLUTINOUS,LF,lure,-,-,-,conservative,no,m,1,1.22379618978,3,66
2019_Sep_30,11,001,0,recog,48,GASEOUS,LF,target,left,yellow,imageability,liberal,no,z,1,0.764814053086,3,69
2019_Sep_30,11,001,0,recog,49,ANNALS,LF,target,left,yellow,imageability,conservative,no,z,1,0.753261155678,1,70
2019_Sep_30,11,001,0,recog,50,FAILINGS,LF,target,right,aqua,pleasantness,conservative,no,z,1,1.48238488346,1,71
2019_Sep_30,11,001,0,recog,51,CUFFED,LF,target,right,aqua,pleasantness,liberal,no,z,1,0.800255818609,3,74
2019_Sep_30,11,001,0,recog,52,HIGHER,HF,target,right,aqua,pleasantness,conservative,no,z,1,0.694389147836,1,75
2019_Sep_30,11,001,0,recog,53,FREEDOM,HF,target,left,yellow,imageability,conservative,no,z,1,0.882733307084,1,76
2019_Sep_30,11,001,0,recog,54,NEWMARKET,LF,target,right,aqua,pleasantness,liberal,no,m,0,0.729771522968,-3,73
2019_Sep_30,11,001,0,recog,55,MEDDLE,LF,target,right,aqua,pleasantness,conservative,no,z,1,1.22376576137,1,74
2019_Sep_30,11,001,0,recog,56,OUTSIDE,HF,target,right,aqua,pleasantness,conservative,no,z,1,0.835372403412,1,75
2019_Sep_30,11,001,0,recog,57,DUNGEON,LF,lure,-,-,-,conservative,no,m,1,0.753283885334,3,78
2019_Sep_30,11,001,0,recog,58,BETTER,HF,lure,-,-,-,conservative,no,m,1,1.21206952048,3,81
2019_Sep_30,11,001,0,recog,59,DEVELOPED,HF,target,left,yellow,imageability,liberal,no,z,1,1.23550746156,3,84
2019_Sep_30,11,001,0,recog,60,AMICABLY,LF,target,right,aqua,pleasantness,conservative,no,z,1,1.49445653027,1,85
2019_Sep_30,11,001,0,recog,61,SEINE,LF,target,right,aqua,pleasantness,conservative,no,z,1,0.67090024834,1,86
2019_Sep_30,11,001,0,recog,62,BEAUTIFUL,HF,lure,-,-,-,liberal,no,m,1,0.835644426065,1,87
2019_Sep_30,11,001,0,recog,63,TULIPS,LF,target,right,aqua,pleasantness,conservative,no,z,1,0.69459334813,1,88
2019_Sep_30,11,001,0,recog,64,FIVER,LF,lure,-,-,-,liberal,no,m,1,0.753309181241,1,89
2019_Sep_30,11,001,0,recog,65,SADDER,LF,lure,-,-,-,conservative,no,m,1,0.788467192675,3,92
2019_Sep_30,11,001,0,recog,66,WRONG,HF,lure,-,-,-,liberal,no,m,1,1.18845450806,1,93
2019_Sep_30,11,001,0,recog,67,LIQUEUR,LF,lure,-,-,-,liberal,no,m,1,0.706388939603,1,94
2019_Sep_30,11,001,0,recog,68,YOUNG,HF,lure,-,-,-,conservative,no,m,1,0.70610848498,3,97
2019_Sep_30,11,001,0,recog,69,SLEEP,HF,target,right,aqua,pleasantness,conservative,no,z,1,0.611941721163,1,98
2019_Sep_30,11,001,0,recog,70,HIMSELF,HF,lure,-,-,-,liberal,no,m,1,0.659226370507,1,99
2019_Sep_30,11,001,0,recog,71,STOOD,HF,target,right,aqua,pleasantness,liberal,no,z,1,1.27105737625,3,102
2019_Sep_30,11,001,0,recog,72,TRADE,HF,target,left,yellow,imageability,conservative,no,z,1,1.10639531857,1,103
2019_Sep_30,11,001,0,recog,73,PERHAPS,HF,lure,-,-,-,conservative,no,m,1,0.706237530767,3,106
2019_Sep_30,11,001,0,recog,74,CIRCUSES,LF,target,left,yellow,imageability,conservative,no,z,1,1.00028851998,1,107
2019_Sep_30,11,001,0,recog,75,FIANCE,LF,lure,-,-,-,conservative,no,m,1,0.718052919038,3,110
2019_Sep_30,11,001,0,recog,76,TODAY,HF,target,left,yellow,imageability,conservative,no,m,0,1.35321115044,-1,109
2019_Sep_30,11,001,0,recog,77,MORNING,HF,target,left,yellow,imageability,liberal,no,z,1,0.682655146397,3,112
2019_Sep_30,11,001,0,recog,78,CORNER,HF,target,left,yellow,imageability,liberal,no,z,1,0.647280836627,3,115
2019_Sep_30,11,001,0,recog,79,CAIRN,LF,target,right,aqua,pleasantness,liberal,no,z,1,0.647398884194,3,118
2019_Sep_30,11,001,0,recog,80,SWOOPING,LF,target,left,yellow,imageability,liberal,no,z,1,0.694128123403,3,121
2019_Sep_30,11,001,0,recog,81,ANSWER,HF,target,right,aqua,pleasantness,conservative,no,z,1,0.988475697965,1,122
2019_Sep_30,11,001,0,recog,82,MATERIAL,HF,target,right,aqua,pleasantness,liberal,no,z,1,1.36506393266,3,125
2019_Sep_30,11,001,0,recog,83,HOWEVER,HF,lure,-,-,-,liberal,no,m,1,0.694504995758,1,126
2019_Sep_30,11,001,0,recog,84,WAITING,HF,target,right,aqua,pleasantness,liberal,no,z,1,0.859159354683,3,129
2019_Sep_30,11,001,0,recog,85,MUMBLES,LF,lure,-,-,-,conservative,no,m,1,0.635614290941,3,132
2019_Sep_30,11,001,0,recog,86,DEJECTED,LF,target,right,aqua,pleasantness,liberal,no,m,0,1.44712862126,-3,129
2019_Sep_30,11,001,0,recog,87,PUCKERED,LF,lure,-,-,-,conservative,no,m,1,0.812194753556,3,132
2019_Sep_30,11,001,0,recog,88,TAMING,LF,lure,-,-,-,conservative,no,m,1,1.64731346468,3,135
2019_Sep_30,11,001,0,recog,89,COUNCIL,HF,target,left,yellow,imageability,liberal,no,z,1,0.741555016398,3,138
2019_Sep_30,11,001,0,recog,90,LAWFUL,LF,target,left,yellow,imageability,conservative,no,z,1,0.929473544514,1,139
2019_Sep_30,11,001,0,recog,91,TRIED,HF,lure,-,-,-,liberal,no,z,0,0.564896833026,-1,138
2019_Sep_30,11,001,0,recog,92,RUNNING,HF,target,left,yellow,imageability,liberal,no,z,1,0.788545646648,3,141
2019_Sep_30,11,001,0,recog,93,FEIGNED,LF,target,left,yellow,imageability,conservative,yes,m,0,0.87087832522,-1,140
2019_Sep_30,11,001,0,recog,94,BOOKS,HF,target,left,yellow,imageability,conservative,no,z,1,1.40012186028,1,141
2019_Sep_30,11,001,0,recog,95,ABLAZE,LF,lure,-,-,-,conservative,no,m,1,0.870671192068,3,144
2019_Sep_30,11,001,1,source,0,RETURN,HF,target,left,yellow,imageability,liberal,no,2,1,1.52948659574,-,-
2019_Sep_30,11,001,1,source,1,ACROSS,HF,target,right,aqua,pleasantness,conservative,no,8,1,1.32968192413,-,-
2019_Sep_30,11,001,1,source,2,ICILY,LF,target,right,aqua,pleasantness,liberal,no,8,1,1.09454180314,-,-
2019_Sep_30,11,001,1,source,3,SHUNNED,LF,target,right,aqua,pleasantness,liberal,no,8,1,0.835652858034,-,-
2019_Sep_30,11,001,1,source,4,SEEMED,HF,target,right,aqua,pleasantness,liberal,no,2,0,0.800341971336,-,-
2019_Sep_30,11,001,1,source,5,ADJOURNED,LF,target,left,yellow,imageability,liberal,no,2,1,0.988528122816,-,-
2019_Sep_30,11,001,1,source,6,WHATEVER,HF,target,left,yellow,imageability,conservative,no,8,0,0.870585039341,-,-
2019_Sep_30,11,001,1,source,7,SMUDGE,LF,target,left,yellow,imageability,liberal,yes,8,0,0.576866929597,-,-
2019_Sep_30,11,001,1,source,8,INCLUDING,HF,target,left,yellow,imageability,liberal,no,8,0,0.882345436508,-,-
2019_Sep_30,11,001,1,source,9,APART,HF,target,right,aqua,pleasantness,conservative,no,8,1,1.77684500648,-,-
2019_Sep_30,11,001,1,source,10,LANGUAGE,HF,target,right,aqua,pleasantness,conservative,no,8,1,0.658874794058,-,-
2019_Sep_30,11,001,1,source,11,ELUDE,LF,target,right,aqua,pleasantness,conservative,no,8,1,1.09428114531,-,-
2019_Sep_30,11,001,1,source,12,FOUND,HF,target,right,aqua,pleasantness,conservative,no,2,0,0.976515499792,-,-
2019_Sep_30,11,001,1,source,13,APOSTLE,LF,target,left,yellow,imageability,conservative,no,2,1,1.6356619499,-,-
2019_Sep_30,11,001,1,source,14,MAKES,HF,target,left,yellow,imageability,liberal,no,2,1,1.34150941044,-,-
2019_Sep_30,11,001,1,source,15,SAYING,HF,target,right,aqua,pleasantness,liberal,no,2,0,1.60014502987,-,-
2019_Sep_30,11,001,1,source,16,DUCHY,LF,target,right,aqua,pleasantness,liberal,no,8,1,0.682772094142,-,-
2019_Sep_30,11,001,1,source,17,THOUSAND,HF,target,right,aqua,pleasantness,liberal,no,8,1,0.976836281223,-,-
2019_Sep_30,11,001,1,source,18,HITCHING,LF,target,left,yellow,imageability,conservative,no,2,1,1.37653800948,-,-
2019_Sep_30,11,001,1,source,19,MONEY,HF,target,left,yellow,imageability,liberal,no,2,1,1.03551728664,-,-
2019_Sep_30,11,001,1,source,20,EPIDEMICS,LF,target,right,aqua,pleasantness,conservative,no,8,1,1.04735173849,-,-
2019_Sep_30,11,001,1,source,21,HOVELS,LF,target,left,yellow,imageability,conservative,no,2,1,1.0590446799,-,-
2019_Sep_30,11,001,1,source,22,HORDE,LF,target,left,yellow,imageability,conservative,no,2,1,0.717938537545,-,-
2019_Sep_30,11,001,1,source,23,LODGERS,LF,target,right,aqua,pleasantness,liberal,no,8,1,0.694448538226,-,-
2019_Sep_30,11,001,1,source,24,HYDRAULIC,LF,target,left,yellow,imageability,liberal,yes,8,0,0.458840259646,-,-
2019_Sep_30,11,001,1,source,25,ABOVE,HF,target,left,yellow,imageability,conservative,no,8,0,2.69447823342,-,-
2019_Sep_30,11,001,1,source,26,ANEMONES,LF,target,left,yellow,imageability,conservative,no,2,1,1.78853134896,-,-
2019_Sep_30,11,001,1,source,27,BINDINGS,LF,target,right,aqua,pleasantness,conservative,yes,2,0,0.470698174369,-,-
2019_Sep_30,11,001,1,source,28,HEALTH,HF,target,right,aqua,pleasantness,conservative,no,8,1,0.694354320138,-,-
2019_Sep_30,11,001,1,source,29,ENTIRELY,HF,target,left,yellow,imageability,liberal,no,8,0,0.917911115315,-,-
2019_Sep_30,11,001,1,source,30,NOURISH,LF,target,right,aqua,pleasantness,conservative,no,2,0,1.98856771641,-,-
2019_Sep_30,11,001,1,source,31,UNTIL,HF,target,right,aqua,pleasantness,conservative,no,2,0,1.24741010238,-,-
2019_Sep_30,11,001,1,source,32,PAMPERED,LF,target,right,aqua,pleasantness,liberal,no,8,1,0.706206369143,-,-
2019_Sep_30,11,001,1,source,33,OTHERS,HF,target,right,aqua,pleasantness,liberal,no,2,0,1.09436069911,-,-
2019_Sep_30,11,001,1,source,34,GIVEN,HF,target,right,aqua,pleasantness,liberal,no,8,1,2.11800320708,-,-
2019_Sep_30,11,001,1,source,35,PASSED,HF,target,left,yellow,imageability,conservative,no,8,0,1.28264656779,-,-
2019_Sep_30,11,001,1,source,36,VOICE,HF,target,left,yellow,imageability,conservative,no,2,1,1.54150031858,-,-
2019_Sep_30,11,001,1,source,37,IDEAS,HF,target,left,yellow,imageability,conservative,no,8,0,1.38846961228,-,-
2019_Sep_30,11,001,1,source,38,BIBLES,LF,target,left,yellow,imageability,liberal,no,2,1,1.24742146721,-,-
2019_Sep_30,11,001,1,source,39,FLUFF,LF,target,left,yellow,imageability,liberal,no,2,1,0.859096298219,-,-
2019_Sep_30,11,001,1,source,40,COGENT,LF,target,right,aqua,pleasantness,conservative,no,2,0,0.788544180218,-,-
2019_Sep_30,11,001,1,source,41,CANNOT,HF,target,left,yellow,imageability,conservative,no,8,0,0.823782112054,-,-
2019_Sep_30,11,001,1,source,42,SHRED,LF,target,left,yellow,imageability,liberal,no,2,1,1.02381261379,-,-
2019_Sep_30,11,001,1,source,43,MAPPED,LF,target,right,aqua,pleasantness,liberal,no,8,1,0.906264733033,-,-
2019_Sep_30,11,001,1,source,44,AFTERNOON,HF,target,left,yellow,imageability,liberal,yes,8,0,0.517980257461,-,-
2019_Sep_30,11,001,1,source,45,GLEANED,LF,target,right,aqua,pleasantness,conservative,no,8,1,1.09448131292,-,-
2019_Sep_30,11,001,1,source,46,WEEKS,HF,target,right,aqua,pleasantness,liberal,no,8,1,1.87088602397,-,-
2019_Sep_30,11,001,1,source,47,UTILIZE,LF,target,left,yellow,imageability,conservative,no,8,0,2.17659439369,-,-
2019_Sep_30,11,001,1,recog,0,REQUIRED,HF,lure,-,-,-,liberal,no,m,1,1.15329136412,1,145
2019_Sep_30,11,001,1,recog,1,IDEAS,HF,target,left,yellow,imageability,conservative,no,z,1,1.10621934704,1,146
2019_Sep_30,11,001,1,recog,2,DECIDED,HF,lure,-,-,-,conservative,no,m,1,0.941434109294,3,149
2019_Sep_30,11,001,1,recog,3,CODING,LF,lure,-,-,-,conservative,no,m,1,0.894242944825,3,152
2019_Sep_30,11,001,1,recog,4,CANNOT,HF,target,left,yellow,imageability,conservative,no,z,1,0.623822732148,1,153
2019_Sep_30,11,001,1,recog,5,GIVEN,HF,target,right,aqua,pleasantness,liberal,no,z,1,0.635631521486,3,156
2019_Sep_30,11,001,1,recog,6,SUSPEND,LF,lure,-,-,-,liberal,no,m,1,1.04711161067,1,157
2019_Sep_30,11,001,1,recog,7,ENTIRELY,HF,target,left,yellow,imageability,liberal,no,z,1,0.635544635545,3,160
2019_Sep_30,11,001,1,recog,8,LESSENED,LF,lure,-,-,-,liberal,no,m,1,0.741517255841,1,161
2019_Sep_30,11,001,1,recog,9,DUCHY,LF,target,right,aqua,pleasantness,liberal,no,z,1,0.529615274915,3,164
2019_Sep_30,11,001,1,recog,10,TUMBLER,LF,lure,-,-,-,liberal,no,m,1,0.623622931143,1,165
2019_Sep_30,11,001,1,recog,11,HOVELS,LF,target,left,yellow,imageability,conservative,no,z,1,0.670888883512,1,166
2019_Sep_30,11,001,1,recog,12,OTHERS,HF,target,right,aqua,pleasantness,liberal,no,z,1,0.694429108037,3,169
2019_Sep_30,11,001,1,recog,13,LODGERS,LF,target,right,aqua,pleasantness,liberal,no,z,1,0.529797845375,3,172
2019_Sep_30,11,001,1,recog,14,OBNOXIOUS,LF,lure,-,-,-,liberal,no,m,1,0.729790219943,1,173
2019_Sep_30,11,001,1,recog,15,MIDDLE,HF,lure,-,-,-,conservative,no,m,1,0.917962806951,3,176
2019_Sep_30,11,001,1,recog,16,CAUGHT,HF,lure,-,-,-,liberal,no,m,1,1.09428297835,1,177
2019_Sep_30,11,001,1,recog,17,TAKEN,HF,lure,-,-,-,conservative,no,z,0,1.34158566477,-3,174
2019_Sep_30,11,001,1,recog,18,EVENING,HF,lure,-,-,-,conservative,no,m,1,1.18858721992,3,177
2019_Sep_30,11,001,1,recog,19,ICILY,LF,target,right,aqua,pleasantness,liberal,yes,z,1,0.765054914115,3,180
2019_Sep_30,11,001,1,recog,20,UTILIZE,LF,target,left,yellow,imageability,conservative,yes,m,0,0.776768385542,-1,179
2019_Sep_30,11,001,1,recog,21,AFTERNOON,HF,target,left,yellow,imageability,liberal,no,m,0,0.988481197076,-3,176
2019_Sep_30,11,001,1,recog,22,MAPPED,LF,target,right,aqua,pleasantness,liberal,no,z,1,0.847337734088,3,179
2019_Sep_30,11,001,1,recog,23,BOILERS,LF,lure,-,-,-,conservative,no,m,1,0.953041997805,3,182
2019_Sep_30,11,001,1,recog,24,FOUND,HF,target,right,aqua,pleasantness,conservative,no,z,1,0.647291101633,1,183
2019_Sep_30,11,001,1,recog,25,PLIABLE,LF,lure,-,-,-,conservative,no,m,1,0.729542759982,3,186
2019_Sep_30,11,001,1,recog,26,SMUDGE,LF,target,left,yellow,imageability,liberal,no,z,1,1.37682542965,3,189
2019_Sep_30,11,001,1,recog,27,FIGURE,HF,lure,-,-,-,conservative,no,m,1,1.00023646174,3,192
2019_Sep_30,11,001,1,recog,28,BEGAN,HF,lure,-,-,-,conservative,yes,z,0,0.89448013978,-3,189
2019_Sep_30,11,001,1,recog,29,INCLUDING,HF,target,left,yellow,imageability,liberal,no,m,0,2.92975913164,-3,186
2019_Sep_30,11,001,1,recog,30,SHRED,LF,target,left,yellow,imageability,liberal,no,z,1,0.705993370273,3,189
2019_Sep_30,11,001,1,recog,31,VOICE,HF,target,left,yellow,imageability,conservative,no,z,1,0.96500879491,1,190
2019_Sep_30,11,001,1,recog,32,SEEMED,HF,target,right,aqua,pleasantness,liberal,no,z,1,0.859145790211,3,193
2019_Sep_30,11,001,1,recog,33,MONEY,HF,target,left,yellow,imageability,liberal,no,z,1,0.506217660649,3,196
2019_Sep_30,11,001,1,recog,34,SURER,LF,lure,-,-,-,conservative,no,m,1,0.800122373533,3,199
2019_Sep_30,11,001,1,recog,35,DAPPER,LF,lure,-,-,-,conservative,no,m,1,0.729663740407,3,202
2019_Sep_30,11,001,1,recog,36,SOCIAL,HF,lure,-,-,-,liberal,no,z,0,1.16504186289,-1,201
2019_Sep_30,11,001,1,recog,37,FINAL,HF,lure,-,-,-,liberal,no,m,1,1.69438071587,1,202
2019_Sep_30,11,001,1,recog,38,HITCHING,LF,target,left,yellow,imageability,conservative,no,z,1,0.906158050294,1,203
2019_Sep_30,11,001,1,recog,39,MEANS,HF,lure,-,-,-,liberal,no,z,0,1.44711615661,-1,202
2019_Sep_30,11,001,1,recog,40,UNTIL,HF,target,right,aqua,pleasantness,conservative,no,m,0,2.35329693656,-1,201
2019_Sep_30,11,001,1,recog,41,PICTURE,HF,lure,-,-,-,liberal,no,m,1,1.42379259702,1,202
2019_Sep_30,11,001,1,recog,42,WEEKS,HF,target,right,aqua,pleasantness,liberal,no,z,1,0.600238514742,3,205
2019_Sep_30,11,001,1,recog,43,LIGHT,HF,lure,-,-,-,liberal,no,m,1,0.635693844736,1,206
2019_Sep_30,11,001,1,recog,44,RETURN,HF,target,left,yellow,imageability,liberal,no,z,1,0.576807905814,3,209
2019_Sep_30,11,001,1,recog,45,GAUCHE,LF,lure,-,-,-,conservative,no,m,1,0.976754161177,3,212
2019_Sep_30,11,001,1,recog,46,POLICE,HF,lure,-,-,-,liberal,no,m,1,0.682605287798,1,213
2019_Sep_30,11,001,1,recog,47,DROLL,LF,lure,-,-,-,conservative,no,m,1,0.70587898878,3,216
2019_Sep_30,11,001,1,recog,48,ACROSS,HF,target,right,aqua,pleasantness,conservative,no,z,1,0.682648547465,1,217
2019_Sep_30,11,001,1,recog,49,SAYING,HF,target,right,aqua,pleasantness,liberal,no,m,0,0.635554533943,-3,214
2019_Sep_30,11,001,1,recog,50,OVENS,LF,lure,-,-,-,conservative,no,m,1,0.741494159578,3,217
2019_Sep_30,11,001,1,recog,51,GEARING,LF,lure,-,-,-,conservative,no,m,1,1.0826483275,3,220
2019_Sep_30,11,001,1,recog,52,GARDEN,HF,lure,-,-,-,conservative,no,m,1,0.670885217439,3,223
2019_Sep_30,11,001,1,recog,53,THOUSAND,HF,target,right,aqua,pleasantness,liberal,no,z,1,0.623796336419,3,226
2019_Sep_30,11,001,1,recog,54,HORDE,LF,target,left,yellow,imageability,conservative,no,z,1,1.14141951832,1,227
2019_Sep_30,11,001,1,recog,55,BIBLES,LF,target,left,yellow,imageability,liberal,no,z,1,0.84729044174,3,230
2019_Sep_30,11,001,1,recog,56,APART,HF,target,right,aqua,pleasantness,conservative,no,z,1,1.71802285723,1,231
2019_Sep_30,11,001,1,recog,57,JAILS,LF,lure,-,-,-,liberal,no,m,1,0.623773240156,1,232
2019_Sep_30,11,001,1,recog,58,EPIDEMICS,LF,target,right,aqua,pleasantness,conservative,no,z,1,0.90619874371,1,233
2019_Sep_30,11,001,1,recog,59,TASSELS,LF,lure,-,-,-,liberal,no,m,1,0.894351827208,1,234
2019_Sep_30,11,001,1,recog,60,COBALT,LF,lure,-,-,-,conservative,no,m,1,0.729644310217,3,237
2019_Sep_30,11,001,1,recog,61,NATIONAL,HF,lure,-,-,-,liberal,no,m,1,0.7179861965,1,238
2019_Sep_30,11,001,1,recog,62,PAMPERED,LF,target,right,aqua,pleasantness,liberal,no,z,1,0.76496289567,3,241
2019_Sep_30,11,001,1,recog,63,PRIVATE,HF,lure,-,-,-,conservative,no,m,1,0.870801337677,3,244
2019_Sep_30,11,001,1,recog,64,DIETING,LF,lure,-,-,-,liberal,no,m,1,1.5766476984,1,245
2019_Sep_30,11,001,1,recog,65,APOSTLE,LF,target,left,yellow,imageability,conservative,no,m,0,1.01213946917,-1,244
2019_Sep_30,11,001,1,recog,66,NOURISH,LF,target,right,aqua,pleasantness,conservative,no,z,1,0.670795765245,1,245
2019_Sep_30,11,001,1,recog,67,ECLECTIC,LF,lure,-,-,-,conservative,no,m,1,0.859171819333,3,248
2019_Sep_30,11,001,1,recog,68,HEALTH,HF,target,right,aqua,pleasantness,conservative,no,z,1,0.588497547764,1,249
2019_Sep_30,11,001,1,recog,69,ELUDE,LF,target,right,aqua,pleasantness,conservative,no,z,1,1.07091945856,1,250
2019_Sep_30,11,001,1,recog,70,HYDRAULIC,LF,target,left,yellow,imageability,liberal,no,z,1,1.52978171465,3,253
2019_Sep_30,11,001,1,recog,71,LANGUAGE,HF,target,right,aqua,pleasantness,conservative,no,z,1,0.576657596801,1,254
2019_Sep_30,11,001,1,recog,72,ANEMONES,LF,target,left,yellow,imageability,conservative,no,z,1,0.917786835423,1,255
2019_Sep_30,11,001,1,recog,73,FLUFF,LF,target,left,yellow,imageability,liberal,no,z,1,0.612065634447,3,258
2019_Sep_30,11,001,1,recog,74,BINDINGS,LF,target,right,aqua,pleasantness,conservative,no,z,1,0.776532290409,1,259
2019_Sep_30,11,001,1,recog,75,PASSED,HF,target,left,yellow,imageability,conservative,no,z,1,0.612118059298,1,260
2019_Sep_30,11,001,1,recog,76,TRUTH,HF,lure,-,-,-,conservative,no,m,1,0.729511598357,3,263
2019_Sep_30,11,001,1,recog,77,PILGRIM,LF,lure,-,-,-,liberal,no,m,1,0.706171908052,1,264
2019_Sep_30,11,001,1,recog,78,ADJOURNED,LF,target,left,yellow,imageability,liberal,no,z,1,0.70587752235,3,267
2019_Sep_30,11,001,1,recog,79,SHUNNED,LF,target,right,aqua,pleasantness,liberal,no,m,0,1.31789696427,-3,264
2019_Sep_30,11,001,1,recog,80,UPLIFT,LF,lure,-,-,-,liberal,no,m,1,0.694105393747,1,265
2019_Sep_30,11,001,1,recog,81,SERIOUS,HF,lure,-,-,-,liberal,no,m,1,0.670575067621,1,266
2019_Sep_30,11,001,1,recog,82,USELESSLY,LF,lure,-,-,-,conservative,no,m,1,1.60050137221,3,269
2019_Sep_30,11,001,1,recog,83,IMPORTANT,HF,lure,-,-,-,conservative,no,m,1,0.811996785587,3,272
2019_Sep_30,11,001,1,recog,84,EASILY,HF,lure,-,-,-,liberal,no,m,1,1.29423942539,1,273
2019_Sep_30,11,001,1,recog,85,MAKES,HF,target,left,yellow,imageability,liberal,no,z,1,0.694234806142,3,276
2019_Sep_30,11,001,1,recog,86,ABOVE,HF,target,left,yellow,imageability,conservative,no,z,1,0.718038621351,1,277
2019_Sep_30,11,001,1,recog,87,CHURCH,HF,lure,-,-,-,conservative,no,m,1,0.565031377923,3,280
2019_Sep_30,11,001,1,recog,88,ROMANCES,LF,lure,-,-,-,liberal,no,m,1,0.623788271058,1,281
2019_Sep_30,11,001,1,recog,89,COGENT,LF,target,right,aqua,pleasantness,conservative,no,z,1,0.835543975651,1,282
2019_Sep_30,11,001,1,recog,90,GLEANED,LF,target,right,aqua,pleasantness,conservative,no,z,1,0.670894382622,1,283
2019_Sep_30,11,001,1,recog,91,JACKALS,LF,lure,-,-,-,liberal,no,m,1,0.729698568105,1,284
2019_Sep_30,11,001,1,recog,92,ULCER,LF,lure,-,-,-,liberal,no,z,0,0.600310369782,-1,283
2019_Sep_30,11,001,1,recog,93,PRACTICE,HF,lure,-,-,-,liberal,no,z,0,1.32969182253,-1,282
2019_Sep_30,11,001,1,recog,94,WHATEVER,HF,target,left,yellow,imageability,conservative,no,m,0,0.776514693256,-1,281
2019_Sep_30,11,001,1,recog,95,MOUTH,HF,lure,-,-,-,conservative,yes,z,0,1.02387603686,-3,278
2019_Sep_30,11,001,2,source,0,PEDALLING,LF,target,left,yellow,imageability,liberal,no,8,0,1.47081622194,-,-
2019_Sep_30,11,001,2,source,1,SLYLY,LF,target,left,yellow,imageability,conservative,no,2,1,0.800439855498,-,-
2019_Sep_30,11,001,2,source,2,PUBLIC,HF,target,right,aqua,pleasantness,conservative,no,8,1,0.870616200965,-,-
2019_Sep_30,11,001,2,source,3,BACHELORS,LF,target,right,aqua,pleasantness,conservative,no,8,1,0.670980168742,-,-
2019_Sep_30,11,001,2,source,4,ALTHOUGH,HF,target,right,aqua,pleasantness,conservative,no,2,0,1.58858773317,-,-
2019_Sep_30,11,001,2,source,5,HISTORY,HF,target,left,yellow,imageability,liberal,yes,2,1,0.670804197214,-,-
2019_Sep_30,11,001,2,source,6,PAVILIONS,LF,target,left,yellow,imageability,liberal,no,1,1,2.38874310137,-,-
2019_Sep_30,11,001,2,source,7,HEEDED,LF,target,left,yellow,imageability,conservative,no,8,0,1.11798744297,-,-
2019_Sep_30,11,001,2,source,8,DAUGHTER,HF,target,left,yellow,imageability,liberal,no,1,1,1.17650640793,-,-
2019_Sep_30,11,001,2,source,9,VECTORS,LF,target,right,aqua,pleasantness,conservative,no,8,1,2.3298098701,-,-
2019_Sep_30,11,001,2,source,10,CERTAIN,HF,target,right,aqua,pleasantness,liberal,no,9,1,1.40046390494,-,-
2019_Sep_30,11,001,2,source,11,EAVES,LF,target,right,aqua,pleasantness,liberal,no,8,1,1.49437697647,-,-
2019_Sep_30,11,001,2,source,12,ACTION,HF,target,left,yellow,imageability,conservative,no,8,0,1.80005271814,-,-
2019_Sep_30,11,001,2,source,13,BASIC,HF,target,left,yellow,imageability,conservative,no,2,1,1.0237785193,-,-
2019_Sep_30,11,001,2,source,14,EXCEPT,HF,target,right,aqua,pleasantness,conservative,no,9,1,1.49420210477,-,-
2019_Sep_30,11,001,2,source,15,SENSE,HF,target,left,yellow,imageability,conservative,no,2,1,1.96512134337,-,-
2019_Sep_30,11,001,2,source,16,NICETIES,LF,target,right,aqua,pleasantness,liberal,yes,8,1,0.529683463882,-,-
2019_Sep_30,11,001,2,source,17,NORTH,HF,target,left,yellow,imageability,conservative,no,8,0,2.78864866331,-,-
2019_Sep_30,11,001,2,source,18,AREAS,HF,target,right,aqua,pleasantness,conservative,no,8,1,1.37685255859,-,-
2019_Sep_30,11,001,2,source,19,BELIEVE,HF,target,left,yellow,imageability,conservative,no,9,0,2.02402084676,-,-
2019_Sep_30,11,001,2,source,20,ENFORCING,LF,target,right,aqua,pleasantness,liberal,no,9,1,2.96506341941,-,-
2019_Sep_30,11,001,2,source,21,IRRIGATED,LF,target,left,yellow,imageability,conservative,no,2,1,1.20027466223,-,-
2019_Sep_30,11,001,2,source,22,HOBBLE,LF,target,right,aqua,pleasantness,conservative,no,2,0,2.40043457635,-,-
2019_Sep_30,11,001,2,source,23,PHYSICAL,HF,target,right,aqua,pleasantness,liberal,no,8,1,1.09420892366,-,-
2019_Sep_30,11,001,2,source,24,INVOLVED,HF,target,left,yellow,imageability,liberal,no,2,1,1.0356602635,-,-
2019_Sep_30,11,001,2,source,25,COVER,HF,target,right,aqua,pleasantness,liberal,yes,2,0,0.553218189297,-,-
2019_Sep_30,11,001,2,source,26,REBATE,LF,target,right,aqua,pleasantness,liberal,no,8,1,1.11765089742,-,-
2019_Sep_30,11,001,2,source,27,UNDER,HF,target,right,aqua,pleasantness,conservative,no,8,1,1.82364536751,-,-
2019_Sep_30,11,001,2,source,28,BOLDNESS,LF,target,right,aqua,pleasantness,conservative,no,8,1,0.917732944143,-,-
2019_Sep_30,11,001,2,source,29,SMIRK,LF,target,left,yellow,imageability,liberal,no,2,1,1.37676017354,-,-
2019_Sep_30,11,001,2,source,30,SPOKE,HF,target,left,yellow,imageability,liberal,no,1,1,1.49438467523,-,-
2019_Sep_30,11,001,2,source,31,TYPHOID,LF,target,left,yellow,imageability,liberal,no,1,1,1.65940197543,-,-
2019_Sep_30,11,001,2,source,32,FOLLOWED,HF,target,right,aqua,pleasantness,liberal,no,9,1,1.35325550993,-,-
2019_Sep_30,11,001,2,source,33,HIKING,LF,target,right,aqua,pleasantness,liberal,no,9,1,0.812038578825,-,-
2019_Sep_30,11,001,2,source,34,CHAIR,HF,target,right,aqua,pleasantness,conservative,no,9,1,1.517987223,-,-
2019_Sep_30,11,001,2,source,35,MOTHER,HF,target,left,yellow,imageability,conservative,no,1,1,1.03575301516,-,-
2019_Sep_30,11,001,2,source,36,DOODLE,LF,target,left,yellow,imageability,conservative,no,1,1,2.22389810662,-,-
2019_Sep_30,11,001,2,source,37,DOUBT,HF,target,left,yellow,imageability,liberal,no,8,0,0.870752945507,-,-
2019_Sep_30,11,001,2,source,38,UMPIRE,LF,target,right,aqua,pleasantness,conservative,no,8,1,1.63567111508,-,-
2019_Sep_30,11,001,2,source,39,UNMADE,LF,target,left,yellow,imageability,liberal,no,2,1,3.01207751253,-,-
2019_Sep_30,11,001,2,source,40,ERRANT,LF,target,left,yellow,imageability,conservative,no,8,0,1.25887648045,-,-
2019_Sep_30,11,001,2,source,41,LOOKED,HF,target,left,yellow,imageability,liberal,no,1,1,2.15327046751,-,-
2019_Sep_30,11,001,2,source,42,SIESTA,LF,target,left,yellow,imageability,liberal,no,1,1,0.741497825652,-,-
2019_Sep_30,11,001,2,source,43,ALERTING,LF,target,right,aqua,pleasantness,liberal,no,8,1,0.965047655289,-,-
2019_Sep_30,11,001,2,source,44,FIFTIETH,LF,target,right,aqua,pleasantness,conservative,no,8,1,0.765045015717,-,-
2019_Sep_30,11,001,2,source,45,PAPER,HF,target,right,aqua,pleasantness,liberal,no,9,1,0.941544091499,-,-
2019_Sep_30,11,001,2,source,46,LASER,LF,target,left,yellow,imageability,conservative,yes,8,0,0.600174725063,-,-
2019_Sep_30,11,001,2,source,47,DRINK,HF,target,right,aqua,pleasantness,liberal,no,9,1,0.741551716932,-,-
2019_Sep_30,11,001,2,recog,0,DRINK,HF,target,right,aqua,pleasantness,liberal,no,z,1,1.41187932459,3,281
2019_Sep_30,11,001,2,recog,1,EXCEPT,HF,target,right,aqua,pleasantness,conservative,no,z,1,0.81210970065,1,282
2019_Sep_30,11,001,2,recog,2,IRRIGATED,LF,target,left,yellow,imageability,conservative,no,z,1,0.670935809253,1,283
2019_Sep_30,11,001,2,recog,3,PAPER,HF,target,right,aqua,pleasantness,liberal,no,z,1,0.564945591803,3,286
2019_Sep_30,11,001,2,recog,4,CRACKLE,LF,lure,-,-,-,conservative,no,m,1,0.67093067675,3,289
2019_Sep_30,11,001,2,recog,5,FIFTIETH,LF,target,right,aqua,pleasantness,conservative,no,z,1,0.588483983292,1,290
2019_Sep_30,11,001,2,recog,6,NEEDED,HF,lure,-,-,-,conservative,no,z,0,1.00036220806,-3,287
2019_Sep_30,11,001,2,recog,7,HISTORY,HF,target,left,yellow,imageability,liberal,no,z,1,0.600266010293,3,290
2019_Sep_30,11,001,2,recog,8,KITCHEN,HF,lure,-,-,-,liberal,no,m,1,0.56502074631,1,291
2019_Sep_30,11,001,2,recog,9,DAUGHTER,HF,target,left,yellow,imageability,liberal,no,z,1,0.588482150255,3,294
2019_Sep_30,11,001,2,recog,10,ENCLOSE,LF,lure,-,-,-,liberal,no,m,1,0.682661378722,1,295
2019_Sep_30,11,001,2,recog,11,UMPIRE,LF,target,right,aqua,pleasantness,conservative,yes,m,0,0.623793036953,-1,294
2019_Sep_30,11,001,2,recog,12,ALTHOUGH,HF,target,right,aqua,pleasantness,conservative,no,z,1,0.588511478843,1,295
2019_Sep_30,11,001,2,recog,13,MUSIC,HF,lure,-,-,-,conservative,no,m,1,0.929763530927,3,298
2019_Sep_30,11,001,2,recog,14,TYPHOID,LF,target,left,yellow,imageability,liberal,no,z,1,1.08262486463,3,301
2019_Sep_30,11,001,2,recog,15,PLEASE,HF,lure,-,-,-,liberal,no,m,1,0.64713529351,1,302
2019_Sep_30,11,001,2,recog,16,LUGGED,LF,lure,-,-,-,conservative,no,m,1,0.870978042419,3,305
2019_Sep_30,11,001,2,recog,17,SUGARY,LF,lure,-,-,-,liberal,no,m,1,0.65914425046,1,306
2019_Sep_30,11,001,2,recog,18,DIZZINESS,LF,lure,-,-,-,liberal,no,m,1,0.670932143179,1,307
2019_Sep_30,11,001,2,recog,19,KENNEL,LF,lure,-,-,-,conservative,no,m,1,0.57671442094,3,310
2019_Sep_30,11,001,2,recog,20,COVER,HF,target,right,aqua,pleasantness,liberal,no,z,1,0.611970683143,3,313
2019_Sep_30,11,001,2,recog,21,PAVILIONS,LF,target,left,yellow,imageability,liberal,no,z,1,0.682557628842,3,316
2019_Sep_30,11,001,2,recog,22,ROWAN,LF,lure,-,-,-,conservative,no,m,1,0.553246418063,3,319
2019_Sep_30,11,001,2,recog,23,SENSE,HF,target,left,yellow,imageability,conservative,no,z,1,0.600202587221,1,320
2019_Sep_30,11,001,2,recog,24,AGATE,LF,lure,-,-,-,conservative,no,m,1,0.988598878035,3,323
2019_Sep_30,11,001,2,recog,25,HEEDED,LF,target,left,yellow,imageability,conservative,no,z,1,0.694419942853,1,324
2019_Sep_30,11,001,2,recog,26,UNMADE,LF,target,left,yellow,imageability,liberal,no,z,1,0.847351665167,3,327
2019_Sep_30,11,001,2,recog,27,VELVETY,LF,lure,-,-,-,conservative,no,m,1,0.659048565942,3,330
2019_Sep_30,11,001,2,recog,28,CLASS,HF,lure,-,-,-,conservative,no,m,1,0.965035923854,3,333
2019_Sep_30,11,001,2,recog,29,PIGLETS,LF,lure,-,-,-,liberal,no,m,1,0.706170075015,1,334
2019_Sep_30,11,001,2,recog,30,JOCKEYS,LF,lure,-,-,-,conservative,no,m,1,0.506081649323,3,337
2019_Sep_30,11,001,2,recog,31,TALKING,HF,lure,-,-,-,conservative,no,m,1,0.753282785512,3,340
2019_Sep_30,11,001,2,recog,32,CERTAIN,HF,target,right,aqua,pleasantness,liberal,no,z,1,0.623849861093,3,343
2019_Sep_30,11,001,2,recog,33,UNDER,HF,target,right,aqua,pleasantness,conservative,no,z,1,0.718033855456,1,344
2019_Sep_30,11,001,2,recog,34,OPENED,HF,lure,-,-,-,liberal,no,m,1,0.72942947831,1,345
2019_Sep_30,11,001,2,recog,35,TAUNTED,LF,lure,-,-,-,liberal,no,m,1,0.729707366681,1,346
2019_Sep_30,11,001,2,recog,36,OUGHT,HF,lure,-,-,-,liberal,no,m,1,0.635608058616,1,347
2019_Sep_30,11,001,2,recog,37,LASER,LF,target,left,yellow,imageability,conservative,no,z,1,0.706193171278,1,348
2019_Sep_30,11,001,2,recog,38,ERRANT,LF,target,left,yellow,imageability,conservative,yes,m,0,0.953250963994,-1,347
2019_Sep_30,11,001,2,recog,39,INVOLVED,HF,target,left,yellow,imageability,liberal,no,z,1,0.941489467004,3,350
2019_Sep_30,11,001,2,recog,40,REPORT,HF,lure,-,-,-,conservative,yes,z,0,0.670931776572,-3,347
2019_Sep_30,11,001,2,recog,41,MOTHER,HF,target,left,yellow,imageability,conservative,no,z,1,0.612053169797,1,348
2019_Sep_30,11,001,2,recog,42,AREAS,HF,target,right,aqua,pleasantness,conservative,no,z,1,0.647311631645,1,349
2019_Sep_30,11,001,2,recog,43,BELIEVE,HF,target,left,yellow,imageability,conservative,no,m,0,1.5767723449,-1,348
2019_Sep_30,11,001,2,recog,44,EAVES,LF,target,right,aqua,pleasantness,liberal,no,z,1,0.647391552047,3,351
2019_Sep_30,11,001,2,recog,45,PUBLIC,HF,target,right,aqua,pleasantness,conservative,no,z,1,0.81203088007,1,352
2019_Sep_30,11,001,2,recog,46,BOLDNESS,LF,target,right,aqua,pleasantness,conservative,no,z,1,0.529724523905,1,353
2019_Sep_30,11,001,2,recog,47,MINISTER,HF,lure,-,-,-,liberal,no,m,1,0.941433742687,1,354
2019_Sep_30,11,001,2,recog,48,FOLLOWED,HF,target,right,aqua,pleasantness,liberal,no,z,1,0.576954915361,3,357
2019_Sep_30,11,001,2,recog,49,HEMMED,LF,lure,-,-,-,liberal,no,z,0,0.600379658571,-1,356
2019_Sep_30,11,001,2,recog,50,GROUND,HF,lure,-,-,-,liberal,no,z,0,1.54157144041,-1,355
2019_Sep_30,11,001,2,recog,51,LOOKED,HF,target,left,yellow,imageability,liberal,no,z,1,0.541502518226,3,358
2019_Sep_30,11,001,2,recog,52,RUINOUS,LF,lure,-,-,-,liberal,no,m,1,0.800439488891,1,359
2019_Sep_30,11,001,2,recog,53,DOUBT,HF,target,left,yellow,imageability,liberal,no,z,1,0.812160659072,3,362
2019_Sep_30,11,001,2,recog,54,JOBLESS,LF,lure,-,-,-,liberal,no,m,1,0.600377458927,1,363
2019_Sep_30,11,001,2,recog,55,ALERTING,LF,target,right,aqua,pleasantness,liberal,no,z,1,0.588612295864,3,366
2019_Sep_30,11,001,2,recog,56,FEELING,HF,lure,-,-,-,conservative,no,m,1,1.00023316227,3,369
2019_Sep_30,11,001,2,recog,57,SLIGHTLY,HF,lure,-,-,-,conservative,no,m,1,1.23560277947,3,372
2019_Sep_30,11,001,2,recog,58,BEYOND,HF,lure,-,-,-,conservative,no,z,0,0.941411379639,-3,369
2019_Sep_30,11,001,2,recog,59,SIESTA,LF,target,left,yellow,imageability,liberal,no,z,1,0.564967588244,3,372
2019_Sep_30,11,001,2,recog,60,BASIC,HF,target,left,yellow,imageability,conservative,no,z,1,0.906356751478,1,373
2019_Sep_30,11,001,2,recog,61,LABOUR,HF,lure,-,-,-,liberal,no,m,1,0.600340431585,1,374
2019_Sep_30,11,001,2,recog,62,ACTION,HF,target,left,yellow,imageability,conservative,no,m,0,0.788670293147,-1,373
2019_Sep_30,11,001,2,recog,63,CHIEF,HF,lure,-,-,-,liberal,no,z,0,0.517985023356,-1,372
2019_Sep_30,11,001,2,recog,64,NORTH,HF,target,left,yellow,imageability,conservative,no,z,1,1.04729784721,1,373
2019_Sep_30,11,001,2,recog,65,VECTORS,LF,target,right,aqua,pleasantness,conservative,no,z,1,1.000189536,1,374
2019_Sep_30,11,001,2,recog,66,LARGE,HF,lure,-,-,-,liberal,no,m,1,0.741469230278,1,375
2019_Sep_30,11,001,2,recog,67,SUBJECT,HF,lure,-,-,-,conservative,no,m,1,1.07081754172,3,378
2019_Sep_30,11,001,2,recog,68,SLYLY,LF,target,left,yellow,imageability,conservative,no,z,1,0.765026318742,1,379
2019_Sep_30,11,001,2,recog,69,REBATE,LF,target,right,aqua,pleasantness,liberal,no,m,0,0.917938244259,-3,376
2019_Sep_30,11,001,2,recog,70,ETHER,LF,lure,-,-,-,liberal,no,z,0,1.52954012041,-1,375
2019_Sep_30,11,001,2,recog,71,SMIRK,LF,target,left,yellow,imageability,liberal,no,z,1,0.54148528768,3,378
2019_Sep_30,11,001,2,recog,72,HIKING,LF,target,right,aqua,pleasantness,liberal,no,z,1,0.600417785736,3,381
2019_Sep_30,11,001,2,recog,73,PHYSICAL,HF,target,right,aqua,pleasantness,liberal,no,z,1,0.659142417424,3,384
2019_Sep_30,11,001,2,recog,74,DOODLE,LF,target,left,yellow,imageability,conservative,no,z,1,0.67087678547,1,385
2019_Sep_30,11,001,2,recog,75,HEDGED,LF,lure,-,-,-,conservative,no,z,0,0.823573512472,-3,382
2019_Sep_30,11,001,2,recog,76,COACHED,LF,lure,-,-,-,conservative,no,m,1,0.964946471661,3,385
2019_Sep_30,11,001,2,recog,77,CALLED,HF,lure,-,-,-,liberal,no,m,1,0.870919385243,1,386
2019_Sep_30,11,001,2,recog,78,NICETIES,LF,target,right,aqua,pleasantness,liberal,no,z,1,1.27083704523,3,389
2019_Sep_30,11,001,2,recog,79,HOBBLE,LF,target,right,aqua,pleasantness,conservative,no,z,1,0.670857721887,1,390
2019_Sep_30,11,001,2,recog,80,THUDDING,LF,lure,-,-,-,liberal,no,m,1,0.8355663387,1,391
2019_Sep_30,11,001,2,recog,81,SHALL,HF,lure,-,-,-,liberal,no,m,1,0.612017975492,1,392
2019_Sep_30,11,001,2,recog,82,SOMEONE,HF,lure,-,-,-,conservative,no,m,1,0.576802040097,3,395
2019_Sep_30,11,001,2,recog,83,TAILED,LF,lure,-,-,-,conservative,no,m,1,0.588505613125,3,398
2019_Sep_30,11,001,2,recog,84,NEITHER,HF,lure,-,-,-,conservative,no,m,1,1.12976397086,3,401
2019_Sep_30,11,001,2,recog,85,ASPIRED,LF,lure,-,-,-,liberal,no,m,1,0.717901510202,1,402
2019_Sep_30,11,001,2,recog,86,CHAIR,HF,target,right,aqua,pleasantness,conservative,no,z,1,0.647178919784,1,403
2019_Sep_30,11,001,2,recog,87,SPOKE,HF,target,left,yellow,imageability,liberal,no,z,1,0.623931614531,3,406
2019_Sep_30,11,001,2,recog,88,FRIEND,HF,lure,-,-,-,conservative,no,m,1,0.77674932196,3,409
2019_Sep_30,11,001,2,recog,89,HAPPEN,HF,lure,-,-,-,liberal,no,m,1,0.72967437202,1,410
2019_Sep_30,11,001,2,recog,90,VEXED,LF,lure,-,-,-,liberal,no,m,1,0.870866960392,1,411
2019_Sep_30,11,001,2,recog,91,PEDALLING,LF,target,left,yellow,imageability,liberal,yes,z,1,0.741430003292,3,414
2019_Sep_30,11,001,2,recog,92,BACHELORS,LF,target,right,aqua,pleasantness,conservative,no,z,1,0.965027125278,1,415
2019_Sep_30,11,001,2,recog,93,ENFORCING,LF,target,right,aqua,pleasantness,liberal,no,z,1,0.823742151853,3,418
2019_Sep_30,11,001,2,recog,94,HILLSIDES,LF,lure,-,-,-,conservative,no,m,1,0.953270394184,3,421
2019_Sep_30,11,001,2,recog,95,TOKENS,LF,lure,-,-,-,conservative,no,m,1,0.611795078223,3,424
2019_Sep_30,11,001,3,source,0,WILDFOWL,LF,target,left,yellow,imageability,conservative,no,2,1,2.10615885683,-,-
2019_Sep_30,11,001,3,source,1,TACITLY,LF,target,right,aqua,pleasantness,conservative,no,8,1,0.8941868539,-,-
2019_Sep_30,11,001,3,source,2,BREAK,HF,target,right,aqua,pleasantness,conservative,no,8,1,1.12981382946,-,-
2019_Sep_30,11,001,3,source,3,TABLE,HF,target,left,yellow,imageability,conservative,yes,8,0,0.576822570108,-,-
2019_Sep_30,11,001,3,source,4,EFFECT,HF,target,left,yellow,imageability,conservative,no,2,1,1.54152304824,-,-
2019_Sep_30,11,001,3,source,5,SAINTLY,LF,target,left,yellow,imageability,liberal,no,2,1,0.588556571547,-,-
2019_Sep_30,11,001,3,source,6,THEORY,HF,target,left,yellow,imageability,conservative,no,8,0,0.858862769337,-,-
2019_Sep_30,11,001,3,source,7,ECONOMIC,HF,target,left,yellow,imageability,liberal,no,1,1,1.15326900108,-,-
2019_Sep_30,11,001,3,source,8,SECOND,HF,target,right,aqua,pleasantness,conservative,no,9,1,1.38851067231,-,-
2019_Sep_30,11,001,3,source,9,ALREADY,HF,target,right,aqua,pleasantness,conservative,no,8,1,1.18827377064,-,-
2019_Sep_30,11,001,3,source,10,WHITE,HF,target,right,aqua,pleasantness,conservative,no,9,1,0.753357206804,-,-
2019_Sep_30,11,001,3,source,11,BATCHES,LF,target,right,aqua,pleasantness,conservative,no,9,1,0.635455549958,-,-
2019_Sep_30,11,001,3,source,12,RIGGING,LF,target,left,yellow,imageability,conservative,no,1,1,1.69443644018,-,-
2019_Sep_30,11,001,3,source,13,INDEED,HF,target,left,yellow,imageability,liberal,no,8,0,1.12973024298,-,-
2019_Sep_30,11,001,3,source,14,SKATES,LF,target,right,aqua,pleasantness,liberal,no,2,0,1.02382544504,-,-
2019_Sep_30,11,001,3,source,15,SABLE,LF,target,right,aqua,pleasantness,liberal,no,8,1,1.80033317276,-,-
2019_Sep_30,11,001,3,source,16,WALKED,HF,target,right,aqua,pleasantness,liberal,no,2,0,0.870864027534,-,-
2019_Sep_30,11,001,3,source,17,PREPARED,HF,target,right,aqua,pleasantness,conservative,no,2,0,1.7297282633,-,-
2019_Sep_30,11,001,3,source,18,AMONG,HF,target,left,yellow,imageability,liberal,no,2,1,0.988612809114,-,-
2019_Sep_30,11,001,3,source,19,LATER,HF,target,left,yellow,imageability,liberal,yes,2,1,0.517739029825,-,-
2019_Sep_30,11,001,3,source,20,EVOCATION,LF,target,left,yellow,imageability,liberal,no,8,0,0.682619218877,-,-
2019_Sep_30,11,001,3,source,21,TOTAL,HF,target,left,yellow,imageability,liberal,no,2,1,0.776842073619,-,-
2019_Sep_30,11,001,3,source,22,CENTRAL,HF,target,left,yellow,imageability,conservative,no,8,0,0.847342133376,-,-
2019_Sep_30,11,001,3,source,23,SPRATS,LF,target,right,aqua,pleasantness,conservative,no,8,1,1.25909901111,-,-
2019_Sep_30,11,001,3,source,24,ALLOWED,HF,target,right,aqua,pleasantness,liberal,no,2,0,1.07088793033,-,-
2019_Sep_30,11,001,3,source,25,BOUGH,LF,target,right,aqua,pleasantness,liberal,no,8,1,1.35326614154,-,-
2019_Sep_30,11,001,3,source,26,MOVED,HF,target,left,yellow,imageability,conservative,no,2,1,0.611986447259,-,-
2019_Sep_30,11,001,3,source,27,GETTING,HF,target,left,yellow,imageability,conservative,no,8,0,1.20025303239,-,-
2019_Sep_30,11,001,3,source,28,TERMS,HF,target,right,aqua,pleasantness,liberal,no,8,1,1.64713016101,-,-
2019_Sep_30,11,001,3,source,29,JOYFULLY,LF,target,right,aqua,pleasantness,conservative,no,8,1,0.659208773354,-,-
2019_Sep_30,11,001,3,source,30,TUFTS,LF,target,right,aqua,pleasantness,liberal,no,9,1,0.976742429742,-,-
2019_Sep_30,11,001,3,source,31,SNIGGERED,LF,target,left,yellow,imageability,conservative,no,9,0,1.3414921799,-,-
2019_Sep_30,11,001,3,source,32,MYRIADS,LF,target,right,aqua,pleasantness,conservative,no,2,0,0.776598646339,-,-
2019_Sep_30,11,001,3,source,33,SAVOURED,LF,target,left,yellow,imageability,liberal,yes,8,0,0.847299240316,-,-
2019_Sep_30,11,001,3,source,34,EXECUTING,LF,target,right,aqua,pleasantness,liberal,no,9,1,1.12964958936,-,-
2019_Sep_30,11,001,3,source,35,COMES,HF,target,right,aqua,pleasantness,liberal,no,9,1,1.80009194512,-,-
2019_Sep_30,11,001,3,source,36,TUSKS,LF,target,left,yellow,imageability,conservative,yes,8,0,0.64731089843,-,-
2019_Sep_30,11,001,3,source,37,VILLAGE,HF,target,left,yellow,imageability,liberal,no,1,1,1.42377866595,-,-
2019_Sep_30,11,001,3,source,38,WAKED,LF,target,left,yellow,imageability,liberal,no,1,1,1.84745908112,-,-
2019_Sep_30,11,001,3,source,39,SKIDDED,LF,target,left,yellow,imageability,liberal,no,1,1,0.894436880113,-,-
2019_Sep_30,11,001,3,source,40,DIABETIC,LF,target,left,yellow,imageability,conservative,no,1,1,1.03530062169,-,-
2019_Sep_30,11,001,3,source,41,AEGIS,LF,target,right,aqua,pleasantness,liberal,no,8,1,1.78865452903,-,-
2019_Sep_30,11,001,3,source,42,LIVED,HF,target,right,aqua,pleasantness,conservative,no,9,1,1.55306678046,-,-
2019_Sep_30,11,001,3,source,43,FEVERS,LF,target,right,aqua,pleasantness,conservative,no,9,1,1.07082890655,-,-
2019_Sep_30,11,001,3,source,44,SMALL,HF,target,right,aqua,pleasantness,liberal,no,9,1,0.835392933423,-,-
2019_Sep_30,11,001,3,source,45,PISTONS,LF,target,left,yellow,imageability,conservative,no,9,0,1.27084107791,-,-
2019_Sep_30,11,001,3,source,46,WRITE,HF,target,right,aqua,pleasantness,liberal,no,8,1,2.04719666358,-,-
2019_Sep_30,11,001,3,source,47,UTTERANCE,LF,target,left,yellow,imageability,liberal,no,2,1,1.72977518904,-,-
2019_Sep_30,11,001,3,recog,0,BREAK,HF,target,right,aqua,pleasantness,conservative,no,m,0,1.75325162389,-1,423
2019_Sep_30,11,001,3,recog,1,BOUGH,LF,target,right,aqua,pleasantness,liberal,no,z,1,0.764994423902,3,426
2019_Sep_30,11,001,3,recog,2,DOING,HF,lure,-,-,-,conservative,no,m,1,0.788556278261,3,429
2019_Sep_30,11,001,3,recog,3,THEORY,HF,target,left,yellow,imageability,conservative,no,m,0,0.917954741589,-1,428
2019_Sep_30,11,001,3,recog,4,STAFF,HF,lure,-,-,-,conservative,no,m,1,0.823787611164,3,431
2019_Sep_30,11,001,3,recog,5,EXECUTING,LF,target,right,aqua,pleasantness,liberal,no,z,1,0.600266010293,3,434
2019_Sep_30,11,001,3,recog,6,MYRIADS,LF,target,right,aqua,pleasantness,conservative,no,z,1,0.81218448855,1,435
2019_Sep_30,11,001,3,recog,7,CUTLER,LF,lure,-,-,-,liberal,no,m,1,0.78846645946,1,436
2019_Sep_30,11,001,3,recog,8,LIVED,HF,target,right,aqua,pleasantness,conservative,no,z,1,0.635424754941,1,437
2019_Sep_30,11,001,3,recog,9,GETTING,HF,target,left,yellow,imageability,conservative,no,z,1,1.04719556376,1,438
2019_Sep_30,11,001,3,recog,10,SIGNPOST,LF,lure,-,-,-,liberal,no,m,1,0.659082660426,1,439
2019_Sep_30,11,001,3,recog,11,EFFECT,HF,target,left,yellow,imageability,conservative,no,z,1,0.49469812451,1,440
2019_Sep_30,11,001,3,recog,12,FATHER,HF,lure,-,-,-,liberal,no,m,1,0.61199597905,1,441
2019_Sep_30,11,001,3,recog,13,FUTURE,HF,lure,-,-,-,conservative,no,m,1,0.682594656185,3,444
2019_Sep_30,11,001,3,recog,14,GREATER,HF,lure,-,-,-,conservative,no,m,1,0.729952993605,3,447
2019_Sep_30,11,001,3,recog,15,TACITLY,LF,target,right,aqua,pleasantness,conservative,no,z,1,0.541425164075,1,448
2019_Sep_30,11,001,3,recog,16,SECOND,HF,target,right,aqua,pleasantness,conservative,no,z,1,0.623731080311,1,449
2019_Sep_30,11,001,3,recog,17,IDOLATRY,LF,lure,-,-,-,liberal,no,m,1,0.623797069634,1,450
2019_Sep_30,11,001,3,recog,18,HUMAN,HF,lure,-,-,-,liberal,no,m,1,0.682683741771,1,451
2019_Sep_30,11,001,3,recog,19,FONDLE,LF,lure,-,-,-,conservative,no,m,1,0.74120893906,3,454
2019_Sep_30,11,001,3,recog,20,OLDER,HF,lure,-,-,-,liberal,no,z,0,1.07064926895,-1,453
2019_Sep_30,11,001,3,recog,21,ATTACK,HF,lure,-,-,-,conservative,no,m,1,0.635554167336,3,456
2019_Sep_30,11,001,3,recog,22,TIPSY,LF,lure,-,-,-,liberal,no,m,1,0.647256273935,1,457
2019_Sep_30,11,001,3,recog,23,AEGIS,LF,target,right,aqua,pleasantness,liberal,no,z,1,0.600262710827,3,460
2019_Sep_30,11,001,3,recog,24,VILLAGE,HF,target,left,yellow,imageability,liberal,no,z,1,0.541186869298,3,463
2019_Sep_30,11,001,3,recog,25,WAKED,LF,target,left,yellow,imageability,liberal,no,z,1,0.541434695866,3,466
2019_Sep_30,11,001,3,recog,26,AMONG,HF,target,left,yellow,imageability,liberal,no,z,1,0.612044371221,3,469
2019_Sep_30,11,001,3,recog,27,WHITE,HF,target,right,aqua,pleasantness,conservative,no,z,1,0.553163931409,1,470
2019_Sep_30,11,001,3,recog,28,FAMILY,HF,lure,-,-,-,liberal,no,z,0,0.517868075612,-1,469
2019_Sep_30,11,001,3,recog,29,SNIGGERED,LF,target,left,yellow,imageability,conservative,no,z,1,0.647291834848,1,470
2019_Sep_30,11,001,3,recog,30,SKIDDED,LF,target,left,yellow,imageability,liberal,no,z,1,0.670921878173,3,473
2019_Sep_30,11,001,3,recog,31,UTTERANCE,LF,target,left,yellow,imageability,liberal,no,z,1,0.588510012413,3,476
2019_Sep_30,11,001,3,recog,32,TUFTS,LF,target,right,aqua,pleasantness,liberal,no,z,1,0.482613646445,3,479
2019_Sep_30,11,001,3,recog,33,FUMING,LF,lure,-,-,-,liberal,no,m,1,0.635335669355,1,480
2019_Sep_30,11,001,3,recog,34,TREES,HF,lure,-,-,-,liberal,no,m,1,0.623828231259,1,481
2019_Sep_30,11,001,3,recog,35,TABLE,HF,target,left,yellow,imageability,conservative,no,z,1,0.659100257578,1,482
2019_Sep_30,11,001,3,recog,36,MALIGNED,LF,lure,-,-,-,conservative,no,m,1,0.917953641767,3,485
2019_Sep_30,11,001,3,recog,37,WEIRDLY,LF,lure,-,-,-,liberal,no,m,1,0.894331663803,1,486
2019_Sep_30,11,001,3,recog,38,WILDFOWL,LF,target,left,yellow,imageability,conservative,no,z,1,0.847396024657,1,487
2019_Sep_30,11,001,3,recog,39,WIRING,LF,lure,-,-,-,conservative,no,m,1,0.75317793581,3,490
2019_Sep_30,11,001,3,recog,40,UNPACK,LF,lure,-,-,-,conservative,yes,m,1,0.62373254674,3,493
2019_Sep_30,11,001,3,recog,41,JOYFULLY,LF,target,right,aqua,pleasantness,conservative,no,z,1,0.800401361726,1,494
2019_Sep_30,11,001,3,recog,42,EVOCATION,LF,target,left,yellow,imageability,liberal,no,z,1,0.694513794335,3,497
2019_Sep_30,11,001,3,recog,43,EVADING,LF,lure,-,-,-,conservative,no,m,1,0.647283402879,3,500
2019_Sep_30,11,001,3,recog,44,HUNDRED,HF,lure,-,-,-,liberal,no,m,1,0.694432407503,1,501
2019_Sep_30,11,001,3,recog,45,LATER,HF,target,left,yellow,imageability,liberal,no,z,1,0.84733186837,3,504
2019_Sep_30,11,001,3,recog,46,ALREADY,HF,target,right,aqua,pleasantness,conservative,no,z,1,0.647096066523,1,505
2019_Sep_30,11,001,3,recog,47,HOURS,HF,lure,-,-,-,conservative,no,m,1,0.635563332519,3,508
2019_Sep_30,11,001,3,recog,48,SMALL,HF,target,right,aqua,pleasantness,liberal,no,z,1,0.506189065276,3,511
2019_Sep_30,11,001,3,recog,49,WEBBED,LF,lure,-,-,-,conservative,no,m,1,0.553192160175,3,514
2019_Sep_30,11,001,3,recog,50,SPICED,LF,lure,-,-,-,liberal,no,m,1,0.588471518641,1,515
2019_Sep_30,11,001,3,recog,51,GIMMICKS,LF,lure,-,-,-,conservative,no,m,1,0.58839563092,3,518
2019_Sep_30,11,001,3,recog,52,SOFTENING,LF,lure,-,-,-,liberal,no,z,0,0.588579301202,-1,517
2019_Sep_30,11,001,3,recog,53,MOVED,HF,target,left,yellow,imageability,conservative,no,z,1,1.3296602943,1,518
2019_Sep_30,11,001,3,recog,54,TOTAL,HF,target,left,yellow,imageability,liberal,yes,m,0,0.635600359862,-3,515
2019_Sep_30,11,001,3,recog,55,SABLE,LF,target,right,aqua,pleasantness,liberal,no,z,1,0.69418934683,3,518
2019_Sep_30,11,001,3,recog,56,BATCHES,LF,target,right,aqua,pleasantness,conservative,no,m,0,0.670922977996,-1,517
2019_Sep_30,11,001,3,recog,57,IDIOCY,LF,lure,-,-,-,conservative,no,m,1,1.27091439938,3,520
2019_Sep_30,11,001,3,recog,58,TUSKS,LF,target,left,yellow,imageability,conservative,no,z,1,0.564950724306,1,521
2019_Sep_30,11,001,3,recog,59,MOSAICS,LF,lure,-,-,-,liberal,no,m,1,1.07075338544,1,522
2019_Sep_30,11,001,3,recog,60,ROYALS,LF,lure,-,-,-,conservative,no,m,1,0.670634458012,3,525
2019_Sep_30,11,001,3,recog,61,QUESTION,HF,lure,-,-,-,conservative,no,m,1,0.588492048653,3,528
2019_Sep_30,11,001,3,recog,62,PLACE,HF,lure,-,-,-,conservative,no,m,1,0.706118749987,3,531
2019_Sep_30,11,001,3,recog,63,FEVERS,LF,target,right,aqua,pleasantness,conservative,no,z,1,0.717917274318,1,532
2019_Sep_30,11,001,3,recog,64,TERMS,HF,target,right,aqua,pleasantness,liberal,no,z,1,1.01208557789,3,535
2019_Sep_30,11,001,3,recog,65,PISTONS,LF,target,left,yellow,imageability,conservative,no,z,1,0.823896493547,1,536
2019_Sep_30,11,001,3,recog,66,NIGHT,HF,lure,-,-,-,liberal,no,z,0,1.11770552191,-1,535
2019_Sep_30,11,001,3,recog,67,USUAL,HF,lure,-,-,-,conservative,no,m,1,1.3768081991,3,538
2019_Sep_30,11,001,3,recog,68,SPEAK,HF,lure,-,-,-,liberal,no,z,0,0.470888443583,-1,537
2019_Sep_30,11,001,3,recog,69,SINCE,HF,lure,-,-,-,liberal,no,m,1,1.00042966381,1,538
2019_Sep_30,11,001,3,recog,70,INDEED,HF,target,left,yellow,imageability,liberal,no,m,0,1.10628533637,-3,535
2019_Sep_30,11,001,3,recog,71,RIGGING,LF,target,left,yellow,imageability,conservative,no,z,1,0.812038212217,1,536
2019_Sep_30,11,001,3,recog,72,QUICKLY,HF,lure,-,-,-,conservative,yes,m,1,0.611988280296,3,539
2019_Sep_30,11,001,3,recog,73,ICEBOX,LF,lure,-,-,-,conservative,no,m,1,0.68270317196,3,542
2019_Sep_30,11,001,3,recog,74,OCCUPANCY,LF,lure,-,-,-,liberal,no,z,0,0.659162580828,-1,541
2019_Sep_30,11,001,3,recog,75,WALKED,HF,target,right,aqua,pleasantness,liberal,no,z,1,0.600129632358,3,544
2019_Sep_30,11,001,3,recog,76,ALLOWED,HF,target,right,aqua,pleasantness,liberal,no,z,1,0.6002663769,3,547
2019_Sep_30,11,001,3,recog,77,WELCOMES,LF,lure,-,-,-,liberal,no,m,1,0.611995979051,1,548
2019_Sep_30,11,001,3,recog,78,EXACTLY,HF,lure,-,-,-,conservative,no,m,1,0.670719144309,3,551
2019_Sep_30,11,001,3,recog,79,PREPARED,HF,target,right,aqua,pleasantness,conservative,no,z,1,0.71785751732,1,552
2019_Sep_30,11,001,3,recog,80,DIABETIC,LF,target,left,yellow,imageability,conservative,no,z,1,0.765050514827,1,553
2019_Sep_30,11,001,3,recog,81,NIMBLE,LF,lure,-,-,-,conservative,no,z,0,0.623777272837,-3,550
2019_Sep_30,11,001,3,recog,82,SORRY,HF,lure,-,-,-,liberal,no,m,1,0.623773973371,1,551
2019_Sep_30,11,001,3,recog,83,REACHED,HF,lure,-,-,-,liberal,no,m,1,0.635492943909,1,552
2019_Sep_30,11,001,3,recog,84,TELEPHONE,HF,lure,-,-,-,liberal,no,m,1,0.517930398862,1,553
2019_Sep_30,11,001,3,recog,85,SAINTLY,LF,target,left,yellow,imageability,liberal,no,z,1,0.647399617409,3,556
2019_Sep_30,11,001,3,recog,86,ECONOMIC,HF,target,left,yellow,imageability,liberal,no,z,1,0.623589569874,3,559
2019_Sep_30,11,001,3,recog,87,HAUNCHES,LF,lure,-,-,-,liberal,no,m,1,0.600232649024,1,560
2019_Sep_30,11,001,3,recog,88,NEPHEWS,LF,lure,-,-,-,conservative,no,m,1,0.600189389357,3,563
2019_Sep_30,11,001,3,recog,89,SPRATS,LF,target,right,aqua,pleasantness,conservative,no,m,0,0.623973041162,-1,562
2019_Sep_30,11,001,3,recog,90,CENTRAL,HF,target,left,yellow,imageability,conservative,no,m,0,0.75293450853,-1,561
2019_Sep_30,11,001,3,recog,91,WRITE,HF,target,right,aqua,pleasantness,liberal,yes,m,0,0.588530542425,-3,558
2019_Sep_30,11,001,3,recog,92,SAVOURED,LF,target,left,yellow,imageability,liberal,no,m,0,1.32965882787,-3,555
2019_Sep_30,11,001,3,recog,93,SKATES,LF,target,right,aqua,pleasantness,liberal,no,z,1,0.61198498083,3,558
2019_Sep_30,11,001,3,recog,94,EIGHT,HF,lure,-,-,-,conservative,no,m,1,0.670734541818,3,561
2019_Sep_30,11,001,3,recog,95,COMES,HF,target,right,aqua,pleasantness,liberal,no,m,0,0.753192966711,-3,558
2019_Sep_30,11,001,4,source,0,HYACINTHS,LF,target,left,yellow,imageability,liberal,no,8,0,1.60026601029,-,-
2019_Sep_30,11,001,4,source,1,WADDLED,LF,target,left,yellow,imageability,liberal,yes,8,0,0.553206457862,-,-
2019_Sep_30,11,001,4,source,2,MICROCOSM,LF,target,left,yellow,imageability,conservative,yes,8,0,0.459136478385,-,-
2019_Sep_30,11,001,4,source,3,APPEARED,HF,target,left,yellow,imageability,conservative,no,2,1,1.95321906915,-,-
2019_Sep_30,11,001,4,source,4,GLASS,HF,target,right,aqua,pleasantness,conservative,no,8,1,0.694458070018,-,-
2019_Sep_30,11,001,4,source,5,BANALITY,LF,target,left,yellow,imageability,conservative,no,2,1,0.776852338625,-,-
2019_Sep_30,11,001,4,source,6,ALMOST,HF,target,left,yellow,imageability,conservative,no,2,1,0.953178375739,-,-
2019_Sep_30,11,001,4,source,7,TOFFEE,LF,target,right,aqua,pleasantness,conservative,no,9,1,0.953198172536,-,-
2019_Sep_30,11,001,4,source,8,ACCORDING,HF,target,right,aqua,pleasantness,conservative,no,8,1,1.0825984689,-,-
2019_Sep_30,11,001,4,source,9,TWENTY,HF,target,left,yellow,imageability,conservative,no,1,1,1.15307469918,-,-
2019_Sep_30,11,001,4,source,10,TITAN,LF,target,left,yellow,imageability,liberal,no,8,0,0.91794081051,-,-
2019_Sep_30,11,001,4,source,11,LICENSING,LF,target,right,aqua,pleasantness,liberal,yes,8,1,0.470947467366,-,-
2019_Sep_30,11,001,4,source,12,UNION,HF,target,left,yellow,imageability,liberal,no,8,0,0.788514118416,-,-
2019_Sep_30,11,001,4,source,13,WANTED,HF,target,right,aqua,pleasantness,conservative,no,2,0,0.741513589768,-,-
2019_Sep_30,11,001,4,source,14,FIDDLED,LF,target,right,aqua,pleasantness,conservative,no,9,1,1.03560160633,-,-
2019_Sep_30,11,001,4,source,15,PYJAMA,LF,target,left,yellow,imageability,liberal,no,1,1,1.36493122079,-,-
2019_Sep_30,11,001,4,source,16,TOUSLED,LF,target,right,aqua,pleasantness,liberal,no,8,1,0.847343233198,-,-
2019_Sep_30,11,001,4,source,17,IGNOBLE,LF,target,right,aqua,pleasantness,conservative,no,9,1,1.435333763,-,-
2019_Sep_30,11,001,4,source,18,NECESSARY,HF,target,left,yellow,imageability,liberal,no,2,1,1.07067896414,-,-
2019_Sep_30,11,001,4,source,19,RIVER,HF,target,right,aqua,pleasantness,conservative,no,8,1,1.517927466,-,-
2019_Sep_30,11,001,4,source,20,SPACE,HF,target,left,yellow,imageability,conservative,no,1,1,1.91767758643,-,-
2019_Sep_30,11,001,4,source,21,NIPPED,LF,target,right,aqua,pleasantness,conservative,no,8,1,1.1532052114,-,-
2019_Sep_30,11,001,4,source,22,WARDROBES,LF,target,left,yellow,imageability,conservative,no,1,1,1.20036264799,-,-
2019_Sep_30,11,001,4,source,23,ESPECIAL,LF,target,left,yellow,imageability,liberal,no,2,1,1.6002414476,-,-
2019_Sep_30,11,001,4,source,24,NOTHING,HF,target,left,yellow,imageability,conservative,no,2,1,0.859201147921,-,-
2019_Sep_30,11,001,4,source,25,DESERTER,LF,target,right,aqua,pleasantness,liberal,no,8,1,1.01213836935,-,-
2019_Sep_30,11,001,4,source,26,MAYBE,HF,target,left,yellow,imageability,conservative,no,8,0,0.917915147996,-,-
2019_Sep_30,11,001,4,source,27,EXPECT,HF,target,right,aqua,pleasantness,conservative,no,2,0,1.72971579865,-,-
2019_Sep_30,11,001,4,source,28,CASES,HF,target,left,yellow,imageability,liberal,no,2,1,0.729510131927,-,-
2019_Sep_30,11,001,4,source,29,KNOWLEDGE,HF,target,left,yellow,imageability,liberal,no,8,0,1.34142142468,-,-
2019_Sep_30,11,001,4,source,30,HOTEL,HF,target,right,aqua,pleasantness,conservative,no,9,1,0.859119027874,-,-
2019_Sep_30,11,001,4,source,31,FORCE,HF,target,right,aqua,pleasantness,liberal,no,9,1,1.12966278723,-,-
2019_Sep_30,11,001,4,source,32,BOWER,LF,target,right,aqua,pleasantness,liberal,no,2,0,0.847299240316,-,-
2019_Sep_30,11,001,4,source,33,PACIFISM,LF,target,right,aqua,pleasantness,conservative,yes,8,1,0.494256729261,-,-
2019_Sep_30,11,001,4,source,34,SLOWLY,HF,target,right,aqua,pleasantness,liberal,no,2,0,0.941246406331,-,-
2019_Sep_30,11,001,4,source,35,DOSSIERS,LF,target,right,aqua,pleasantness,conservative,no,2,0,1.07071049238,-,-
2019_Sep_30,11,001,4,source,36,WHOLE,HF,target,left,yellow,imageability,liberal,no,8,0,1.0942807787,-,-
2019_Sep_30,11,001,4,source,37,DUELLING,LF,target,left,yellow,imageability,conservative,no,8,0,1.35319282007,-,-
2019_Sep_30,11,001,4,source,38,AWAITS,LF,target,left,yellow,imageability,conservative,no,2,1,1.25892010673,-,-
2019_Sep_30,11,001,4,source,39,LOCAL,HF,target,right,aqua,pleasantness,liberal,no,1,0,0.74147179653,-,-
2019_Sep_30,11,001,4,source,40,ASTERN,LF,target,right,aqua,pleasantness,liberal,no,2,0,1.35325147724,-,-
2019_Sep_30,11,001,4,source,41,NOBLEMAN,LF,target,left,yellow,imageability,conservative,no,2,1,1.56484404157,-,-
2019_Sep_30,11,001,4,source,42,SOVIET,HF,target,right,aqua,pleasantness,liberal,no,8,1,0.917855757605,-,-
2019_Sep_30,11,001,4,source,43,CHLORIDE,LF,target,right,aqua,pleasantness,liberal,no,8,1,0.77681567789,-,-
2019_Sep_30,11,001,4,source,44,WATCH,HF,target,right,aqua,pleasantness,liberal,no,8,1,0.858919593476,-,-
2019_Sep_30,11,001,4,source,45,BYPASS,LF,target,left,yellow,imageability,liberal,no,2,1,0.9885622173,-,-
2019_Sep_30,11,001,4,source,46,VARIOUS,HF,target,right,aqua,pleasantness,liberal,no,8,1,0.988593378925,-,-
2019_Sep_30,11,001,4,source,47,LEARN,HF,target,left,yellow,imageability,liberal,no,8,0,1.03540400497,-,-
2019_Sep_30,11,001,4,recog,0,FIDDLED,LF,target,right,aqua,pleasantness,conservative,no,z,1,0.706146245537,1,559
2019_Sep_30,11,001,4,recog,1,WATCH,HF,target,right,aqua,pleasantness,liberal,no,z,1,0.56502624542,3,562
2019_Sep_30,11,001,4,recog,2,SPACE,HF,target,left,yellow,imageability,conservative,no,m,0,0.765258014586,-1,561
2019_Sep_30,11,001,4,recog,3,ROPED,LF,lure,-,-,-,conservative,no,m,1,0.682558362057,3,564
2019_Sep_30,11,001,4,recog,4,MAJOR,HF,lure,-,-,-,conservative,no,m,1,0.62374097871,3,567
2019_Sep_30,11,001,4,recog,5,SOVIET,HF,target,right,aqua,pleasantness,liberal,no,z,1,0.611854102006,3,570
2019_Sep_30,11,001,4,recog,6,UNOPENED,LF,lure,-,-,-,liberal,no,m,1,0.776681132993,1,571
2019_Sep_30,11,001,4,recog,7,BOXCAR,LF,lure,-,-,-,liberal,no,m,1,0.670848190096,1,572
2019_Sep_30,11,001,4,recog,8,EBONY,LF,lure,-,-,-,conservative,no,m,1,0.623821632326,3,575
2019_Sep_30,11,001,4,recog,9,HAIRDO,LF,lure,-,-,-,liberal,no,m,1,0.694346621383,1,576
2019_Sep_30,11,001,4,recog,10,LOCAL,HF,target,right,aqua,pleasantness,liberal,no,z,1,0.882590696825,3,579
2019_Sep_30,11,001,4,recog,11,FLAGGED,LF,lure,-,-,-,conservative,no,m,1,0.670795765245,3,582
2019_Sep_30,11,001,4,recog,12,WANTED,HF,target,right,aqua,pleasantness,conservative,no,z,1,0.65907092899,1,583
2019_Sep_30,11,001,4,recog,13,RIVER,HF,target,right,aqua,pleasantness,conservative,no,z,1,0.553275013436,1,584
2019_Sep_30,11,001,4,recog,14,MICROCOSM,LF,target,left,yellow,imageability,conservative,no,m,0,0.670925544247,-1,583
2019_Sep_30,11,001,4,recog,15,WESTERN,HF,lure,-,-,-,liberal,no,z,0,0.729639544322,-1,582
2019_Sep_30,11,001,4,recog,16,RIMMED,LF,lure,-,-,-,conservative,no,m,1,0.882400427611,3,585
2019_Sep_30,11,001,4,recog,17,CLEAR,HF,lure,-,-,-,liberal,no,m,1,1.05906484331,1,586
2019_Sep_30,11,001,4,recog,18,LICENSING,LF,target,right,aqua,pleasantness,liberal,yes,m,0,0.494367078074,-3,583
2019_Sep_30,11,001,4,recog,19,MUNCH,LF,lure,-,-,-,liberal,no,m,1,0.988531055675,1,584
2019_Sep_30,11,001,4,recog,20,PAUNCH,LF,lure,-,-,-,conservative,no,m,1,0.753216062974,3,587
2019_Sep_30,11,001,4,recog,21,FORCE,HF,target,right,aqua,pleasantness,liberal,no,z,1,0.541400601383,3,590
2019_Sep_30,11,001,4,recog,22,BANALITY,LF,target,left,yellow,imageability,conservative,no,z,1,1.02394532565,1,591
2019_Sep_30,11,001,4,recog,23,IGNOBLE,LF,target,right,aqua,pleasantness,conservative,no,z,1,0.482651407003,1,592
2019_Sep_30,11,001,4,recog,24,PACIFISM,LF,target,right,aqua,pleasantness,conservative,no,z,1,0.612056102656,1,593
2019_Sep_30,11,001,4,recog,25,AFRAID,HF,lure,-,-,-,liberal,no,z,0,0.729669972732,-1,592
2019_Sep_30,11,001,4,recog,26,ANAEMIC,LF,lure,-,-,-,conservative,no,m,1,1.28271072407,3,595
2019_Sep_30,11,001,4,recog,27,THANK,HF,lure,-,-,-,liberal,no,m,1,0.541300150969,1,596
2019_Sep_30,11,001,4,recog,28,NECESSARY,HF,target,left,yellow,imageability,liberal,no,m,0,0.694386214977,-3,593
2019_Sep_30,11,001,4,recog,29,HERSELF,HF,lure,-,-,-,liberal,no,m,1,0.659214639071,1,594
2019_Sep_30,11,001,4,recog,30,PYJAMA,LF,target,left,yellow,imageability,liberal,no,z,1,0.670815195434,3,597
2019_Sep_30,11,001,4,recog,31,SITTING,HF,lure,-,-,-,conservative,no,m,1,1.72953139515,3,600
2019_Sep_30,11,001,4,recog,32,BECAME,HF,lure,-,-,-,conservative,no,m,1,0.776687731925,3,603
2019_Sep_30,11,001,4,recog,33,HASSLE,LF,lure,-,-,-,conservative,no,m,1,0.729707366681,3,606
2019_Sep_30,11,001,4,recog,34,SUMMER,HF,lure,-,-,-,liberal,no,m,1,0.776789648768,1,607
2019_Sep_30,11,001,4,recog,35,DIPLOMAS,LF,lure,-,-,-,conservative,no,m,1,0.859147256641,3,610
2019_Sep_30,11,001,4,recog,36,BYPASS,LF,target,left,yellow,imageability,liberal,no,z,1,0.576760980073,3,613
2019_Sep_30,11,001,4,recog,37,AWAITS,LF,target,left,yellow,imageability,conservative,no,z,1,0.647137126546,1,614
2019_Sep_30,11,001,4,recog,38,BRING,HF,lure,-,-,-,liberal,no,m,1,0.694184580935,1,615
2019_Sep_30,11,001,4,recog,39,CASES,HF,target,left,yellow,imageability,liberal,no,z,1,0.623823465363,3,618
2019_Sep_30,11,001,4,recog,40,ACCORDING,HF,target,right,aqua,pleasantness,conservative,no,z,1,0.859172919155,1,619
2019_Sep_30,11,001,4,recog,41,WHOLE,HF,target,left,yellow,imageability,liberal,yes,m,0,0.423810560785,-3,616
2019_Sep_30,11,001,4,recog,42,DESERTER,LF,target,right,aqua,pleasantness,liberal,no,z,1,1.01212480487,3,619
2019_Sep_30,11,001,4,recog,43,LEARN,HF,target,left,yellow,imageability,liberal,no,z,1,0.882617092554,3,622
2019_Sep_30,11,001,4,recog,44,SLOWLY,HF,target,right,aqua,pleasantness,liberal,no,z,1,0.49443526704,3,625
2019_Sep_30,11,001,4,recog,45,NOBLEMAN,LF,target,left,yellow,imageability,conservative,no,z,1,0.564942658944,1,626
2019_Sep_30,11,001,4,recog,46,SCHOOL,HF,lure,-,-,-,liberal,no,m,1,0.635594494144,1,627
2019_Sep_30,11,001,4,recog,47,TAGGED,LF,lure,-,-,-,conservative,no,z,0,0.541586104702,-3,624
2019_Sep_30,11,001,4,recog,48,EXPECT,HF,target,right,aqua,pleasantness,conservative,no,z,1,0.670952306584,1,625
2019_Sep_30,11,001,4,recog,49,BLACK,HF,lure,-,-,-,conservative,no,m,1,0.564925061792,3,628
2019_Sep_30,11,001,4,recog,50,GOADED,LF,lure,-,-,-,liberal,no,m,1,0.706196837352,1,629
2019_Sep_30,11,001,4,recog,51,MEETING,HF,lure,-,-,-,conservative,no,m,1,0.706244496308,3,632
2019_Sep_30,11,001,4,recog,52,UNION,HF,target,left,yellow,imageability,liberal,no,z,1,0.788480757147,3,635
2019_Sep_30,11,001,4,recog,53,DIVAN,LF,lure,-,-,-,liberal,no,m,1,0.588274283888,1,636
2019_Sep_30,11,001,4,recog,54,ENSCONCED,LF,lure,-,-,-,liberal,no,m,1,0.88274357209,1,637
2019_Sep_30,11,001,4,recog,55,ASTERN,LF,target,right,aqua,pleasantness,liberal,no,m,0,0.69453799042,-3,634
2019_Sep_30,11,001,4,recog,56,LEVEL,HF,lure,-,-,-,liberal,no,z,0,1.58856023762,-1,633
2019_Sep_30,11,001,4,recog,57,KNOWLEDGE,HF,target,left,yellow,imageability,liberal,no,z,1,0.494526185663,3,636
2019_Sep_30,11,001,4,recog,58,NOTHING,HF,target,left,yellow,imageability,conservative,no,z,1,0.635534003932,1,637
2019_Sep_30,11,001,4,recog,59,MAYBE,HF,target,left,yellow,imageability,conservative,no,z,1,0.541470623387,1,638
2019_Sep_30,11,001,4,recog,60,APPEARED,HF,target,left,yellow,imageability,conservative,no,z,1,0.470572428048,1,639
2019_Sep_30,11,001,4,recog,61,WARDROBES,LF,target,left,yellow,imageability,conservative,yes,z,1,0.517853044711,1,640
2019_Sep_30,11,001,4,recog,62,TWENTY,HF,target,left,yellow,imageability,conservative,no,z,1,0.52968236406,1,641
2019_Sep_30,11,001,4,recog,63,EUPHEMISM,LF,lure,-,-,-,conservative,no,m,1,1.51790143688,3,644
2019_Sep_30,11,001,4,recog,64,HOTEL,HF,target,right,aqua,pleasantness,conservative,no,z,1,0.964952703986,1,645
2019_Sep_30,11,001,4,recog,65,WADDLED,LF,target,left,yellow,imageability,liberal,no,z,1,0.776700563182,3,648
2019_Sep_30,11,001,4,recog,66,MILES,HF,lure,-,-,-,conservative,no,m,1,0.765046482146,3,651
2019_Sep_30,11,001,4,recog,67,URCHIN,LF,lure,-,-,-,liberal,no,m,1,0.859169253082,1,652
2019_Sep_30,11,001,4,recog,68,VARIOUS,HF,target,right,aqua,pleasantness,liberal,no,m,0,0.529831206644,-3,649
2019_Sep_30,11,001,4,recog,69,ALMOST,HF,target,left,yellow,imageability,conservative,no,z,1,0.576758780429,1,650
2019_Sep_30,11,001,4,recog,70,CHLORIDE,LF,target,right,aqua,pleasantness,liberal,no,z,1,0.612011009952,3,653
2019_Sep_30,11,001,4,recog,71,FIELD,HF,lure,-,-,-,liberal,no,m,1,0.706268325785,1,654
2019_Sep_30,11,001,4,recog,72,NIPPED,LF,target,right,aqua,pleasantness,conservative,no,z,1,0.553274280222,1,655
2019_Sep_30,11,001,4,recog,73,SKETCHY,LF,lure,-,-,-,conservative,no,m,1,0.600381125001,3,658
2019_Sep_30,11,001,4,recog,74,TOFFEE,LF,target,right,aqua,pleasantness,conservative,no,z,1,0.611939888126,1,659
2019_Sep_30,11,001,4,recog,75,SCRABBLE,LF,lure,-,-,-,liberal,no,m,1,1.08270625146,1,660
2019_Sep_30,11,001,4,recog,76,NUCLEAR,HF,lure,-,-,-,conservative,no,m,1,0.882715343324,3,663
2019_Sep_30,11,001,4,recog,77,SUCCESS,HF,lure,-,-,-,conservative,no,m,1,0.788559944334,3,666
2019_Sep_30,11,001,4,recog,78,SCUFFED,LF,lure,-,-,-,liberal,no,m,1,0.870636730977,1,667
2019_Sep_30,11,001,4,recog,79,PROBABLY,HF,lure,-,-,-,conservative,no,z,0,0.576826602789,-3,664
2019_Sep_30,11,001,4,recog,80,AUGMENT,LF,lure,-,-,-,liberal,no,m,1,1.16507559077,1,665
2019_Sep_30,11,001,4,recog,81,GLASS,HF,target,right,aqua,pleasantness,conservative,no,m,0,0.670790632742,-1,664
2019_Sep_30,11,001,4,recog,82,HYACINTHS,LF,target,left,yellow,imageability,liberal,no,z,1,0.882603528082,3,667
2019_Sep_30,11,001,4,recog,83,TOUSLED,LF,target,right,aqua,pleasantness,liberal,no,m,0,0.765034017496,-3,664
2019_Sep_30,11,001,4,recog,84,MERELY,HF,lure,-,-,-,liberal,no,m,1,0.753282418905,1,665
2019_Sep_30,11,001,4,recog,85,DOSSIERS,LF,target,right,aqua,pleasantness,conservative,yes,m,0,0.529724523906,-1,664
2019_Sep_30,11,001,4,recog,86,ESPECIAL,LF,target,left,yellow,imageability,liberal,no,z,1,0.435379222309,3,667
2019_Sep_30,11,001,4,recog,87,PIECE,HF,lure,-,-,-,conservative,no,m,1,0.506147638645,3,670
2019_Sep_30,11,001,4,recog,88,FRONT,HF,lure,-,-,-,conservative,no,z,0,0.529655601724,-3,667
2019_Sep_30,11,001,4,recog,89,DUELLING,LF,target,left,yellow,imageability,conservative,no,z,1,0.741458965273,1,668
2019_Sep_30,11,001,4,recog,90,WOMAN,HF,lure,-,-,-,conservative,no,m,1,0.612050970153,3,671
2019_Sep_30,11,001,4,recog,91,TITAN,LF,target,left,yellow,imageability,liberal,no,z,1,0.800369466887,3,674
2019_Sep_30,11,001,4,recog,92,FISHY,LF,lure,-,-,-,conservative,no,m,1,0.576808639029,3,677
2019_Sep_30,11,001,4,recog,93,MEMBERS,HF,lure,-,-,-,liberal,no,z,0,0.612011376559,-1,676
2019_Sep_30,11,001,4,recog,94,BOWER,LF,target,right,aqua,pleasantness,liberal,no,m,0,0.800080580295,-3,673
2019_Sep_30,11,001,4,recog,95,DIMMED,LF,lure,-,-,-,liberal,no,m,1,1.27087150632,1,674
