date,subj,session,cycle,task,trial,item,wf,type,source,colour,encoding,bias,null,response,corr,rt,points,total
2019_Apr_22,110,001,0,source,0,TIMES,HF,target,left,yellow,pleasantness,conservative,no,2,1,4.30525267677,-,-
2019_Apr_22,110,001,0,source,1,ESPECIAL,LF,target,left,yellow,pleasantness,conservative,no,2,1,3.50565235212,-,-
2019_Apr_22,110,001,0,source,2,PEEKED,LF,target,right,aqua,imageability,liberal,no,9,1,2.2927825278,-,-
2019_Apr_22,110,001,0,source,3,TRYING,HF,target,left,yellow,pleasantness,liberal,no,2,1,4.34530269669,-,-
2019_Apr_22,110,001,0,source,4,ASPIRED,LF,target,right,aqua,imageability,conservative,no,8,1,4.8917379168,-,-
2019_Apr_22,110,001,0,source,5,MATERIAL,HF,target,left,yellow,pleasantness,liberal,no,8,0,1.30622968538,-,-
2019_Apr_22,110,001,0,source,6,LEVEL,HF,target,right,aqua,imageability,liberal,no,8,1,0.853289971012,-,-
2019_Apr_22,110,001,0,source,7,ENMESHED,LF,target,right,aqua,imageability,conservative,no,1,0,2.50581219292,-,-
2019_Apr_22,110,001,0,source,8,EXUDED,LF,target,left,yellow,pleasantness,conservative,no,3,1,2.45267502387,-,-
2019_Apr_22,110,001,0,source,9,SLEEP,HF,target,left,yellow,pleasantness,conservative,no,1,1,2.99908531463,-,-
2019_Apr_22,110,001,0,source,10,AHEAD,HF,target,right,aqua,imageability,conservative,no,8,1,1.67946016334,-,-
2019_Apr_22,110,001,0,source,11,SLIGHTLY,HF,target,right,aqua,imageability,conservative,no,8,1,2.7325111797,-,-
2019_Apr_22,110,001,0,source,12,WATCH,HF,target,right,aqua,imageability,liberal,no,9,1,4.01204341801,-,-
2019_Apr_22,110,001,0,source,13,EIDERDOWN,LF,target,left,yellow,pleasantness,conservative,yes,9,0,1.85289623472,-,-
2019_Apr_22,110,001,0,source,14,VEILING,LF,target,right,aqua,imageability,liberal,no,9,1,1.4797181816,-,-
2019_Apr_22,110,001,0,source,15,SELECTS,LF,target,right,aqua,imageability,conservative,no,8,1,3.94540996599,-,-
2019_Apr_22,110,001,0,source,16,SOUND,HF,target,left,yellow,pleasantness,conservative,no,2,1,3.65228466032,-,-
2019_Apr_22,110,001,0,source,17,EARLIER,HF,target,right,aqua,imageability,liberal,no,8,1,2.74592974188,-,-
2019_Apr_22,110,001,0,source,18,POWER,HF,target,right,aqua,imageability,liberal,yes,2,0,1.77289921156,-,-
2019_Apr_22,110,001,0,source,19,GRIEVE,LF,target,left,yellow,pleasantness,conservative,no,2,1,2.54596926214,-,-
2019_Apr_22,110,001,0,source,20,TUCKER,LF,target,right,aqua,imageability,conservative,no,9,1,2.79892503389,-,-
2019_Apr_22,110,001,0,source,21,ROVERS,LF,target,left,yellow,pleasantness,liberal,no,9,0,1.51969634648,-,-
2019_Apr_22,110,001,0,source,22,LIGHT,HF,target,right,aqua,imageability,conservative,no,2,0,2.7192649229,-,-
2019_Apr_22,110,001,0,source,23,ABOVE,HF,target,right,aqua,imageability,liberal,no,8,1,2.25243188988,-,-
2019_Apr_22,110,001,0,source,24,SEVEN,HF,target,right,aqua,imageability,liberal,no,8,1,1.83957482345,-,-
2019_Apr_22,110,001,0,source,25,FIGURE,HF,target,left,yellow,pleasantness,liberal,no,8,0,2.42600873846,-,-
2019_Apr_22,110,001,0,source,26,GATEHOUSE,LF,target,right,aqua,imageability,conservative,no,9,1,1.81297709362,-,-
2019_Apr_22,110,001,0,source,27,TURNED,HF,target,left,yellow,pleasantness,liberal,no,2,1,3.31901365024,-,-
2019_Apr_22,110,001,0,source,28,SEQUEL,LF,target,right,aqua,imageability,liberal,no,9,1,2.65256621479,-,-
2019_Apr_22,110,001,0,source,29,MOUTH,HF,target,right,aqua,imageability,conservative,no,8,1,3.62554358703,-,-
2019_Apr_22,110,001,0,source,30,OPPOSES,LF,target,left,yellow,pleasantness,conservative,no,2,1,4.59849566338,-,-
2019_Apr_22,110,001,0,source,31,MOBILIZE,LF,target,right,aqua,imageability,conservative,no,8,1,3.29232793464,-,-
2019_Apr_22,110,001,0,source,32,REACHED,HF,target,right,aqua,imageability,conservative,no,9,1,1.22644016199,-,-
2019_Apr_22,110,001,0,source,33,OPENED,HF,target,left,yellow,pleasantness,liberal,no,1,1,3.53201801947,-,-
2019_Apr_22,110,001,0,source,34,VALUE,HF,target,left,yellow,pleasantness,conservative,no,2,1,1.59966770711,-,-
2019_Apr_22,110,001,0,source,35,UNRAVEL,LF,target,left,yellow,pleasantness,conservative,no,1,1,2.65262523858,-,-
2019_Apr_22,110,001,0,source,36,PETERED,LF,target,left,yellow,pleasantness,liberal,no,2,1,3.53203525004,-,-
2019_Apr_22,110,001,0,source,37,CHURCH,HF,target,left,yellow,pleasantness,liberal,no,1,1,1.81292576861,-,-
2019_Apr_22,110,001,0,source,38,VIGILANT,LF,target,right,aqua,imageability,liberal,no,8,1,2.82585564326,-,-
2019_Apr_22,110,001,0,source,39,CARRIED,HF,target,left,yellow,pleasantness,conservative,no,8,0,2.13280754507,-,-
2019_Apr_22,110,001,0,source,40,ENZYME,LF,target,right,aqua,imageability,liberal,no,9,1,1.39970246149,-,-
2019_Apr_22,110,001,0,source,41,DOING,HF,target,left,yellow,pleasantness,conservative,yes,9,0,0.879741424462,-,-
2019_Apr_22,110,001,0,source,42,DEFEATING,LF,target,right,aqua,imageability,liberal,no,2,0,1.97287618864,-,-
2019_Apr_22,110,001,0,source,43,LOCAL,HF,target,right,aqua,imageability,conservative,no,9,1,2.02595103445,-,-
2019_Apr_22,110,001,0,source,44,JUDICIOUS,LF,target,left,yellow,pleasantness,liberal,no,2,1,4.11868179729,-,-
2019_Apr_22,110,001,0,source,45,VECTORS,LF,target,left,yellow,pleasantness,liberal,no,1,1,2.26589041227,-,-
2019_Apr_22,110,001,0,source,46,OEDIPAL,LF,target,left,yellow,pleasantness,liberal,no,2,1,1.57304431475,-,-
2019_Apr_22,110,001,0,source,47,DIETING,LF,target,left,yellow,pleasantness,liberal,yes,2,1,1.15985840157,-,-
2019_Apr_22,110,001,0,recog,0,AHEAD,HF,target,right,aqua,imageability,conservative,no,z,1,6.23782515322,1,1
2019_Apr_22,110,001,0,recog,1,OPPOSES,LF,target,left,yellow,pleasantness,conservative,no,z,1,6.34447673033,1,2
2019_Apr_22,110,001,0,recog,2,LEVEL,HF,target,right,aqua,imageability,liberal,no,z,1,2.14624077157,3,5
2019_Apr_22,110,001,0,recog,3,RUMBLED,LF,lure,-,-,-,liberal,no,m,1,1.79954130086,1,6
2019_Apr_22,110,001,0,recog,4,PHOBIC,LF,lure,-,-,-,liberal,no,m,1,2.39935015183,1,7
2019_Apr_22,110,001,0,recog,5,POSITION,HF,lure,-,-,-,conservative,no,m,1,1.89292499144,3,10
2019_Apr_22,110,001,0,recog,6,APPEARED,HF,lure,-,-,-,conservative,no,z,0,4.43855000928,-3,7
2019_Apr_22,110,001,0,recog,7,AUGMENT,LF,lure,-,-,-,liberal,no,m,1,1.99963962496,1,8
2019_Apr_22,110,001,0,recog,8,SELECTS,LF,target,right,aqua,imageability,conservative,no,z,1,1.30643718509,1,9
2019_Apr_22,110,001,0,recog,9,TURNED,HF,target,left,yellow,pleasantness,liberal,no,z,1,1.55979512515,3,12
2019_Apr_22,110,001,0,recog,10,VIGILANT,LF,target,right,aqua,imageability,liberal,no,z,1,0.99993840995,3,15
2019_Apr_22,110,001,0,recog,11,DEFEATING,LF,target,right,aqua,imageability,liberal,no,z,1,0.773327775532,3,18
2019_Apr_22,110,001,0,recog,12,ANIMAL,HF,lure,-,-,-,conservative,no,m,1,1.0665425334,3,21
2019_Apr_22,110,001,0,recog,13,STOOD,HF,lure,-,-,-,conservative,no,m,1,0.95995731221,3,24
2019_Apr_22,110,001,0,recog,14,SLIGHTLY,HF,target,right,aqua,imageability,conservative,no,z,1,1.02656436857,1,25
2019_Apr_22,110,001,0,recog,15,MUNCH,LF,lure,-,-,-,liberal,no,m,1,2.05282481964,1,26
2019_Apr_22,110,001,0,recog,16,CARRIED,HF,target,left,yellow,pleasantness,conservative,no,z,1,1.4530020376,1,27
2019_Apr_22,110,001,0,recog,17,CLEAR,HF,lure,-,-,-,liberal,no,m,1,1.01322682656,1,28
2019_Apr_22,110,001,0,recog,18,OEDIPAL,LF,target,left,yellow,pleasantness,liberal,no,z,1,0.986538544705,3,31
2019_Apr_22,110,001,0,recog,19,PUFFS,LF,lure,-,-,-,conservative,no,m,1,1.02658269892,3,34
2019_Apr_22,110,001,0,recog,20,EIDERDOWN,LF,target,left,yellow,pleasantness,conservative,no,z,1,1.49307552038,1,35
2019_Apr_22,110,001,0,recog,21,SOUND,HF,target,left,yellow,pleasantness,conservative,no,z,1,1.00003079505,1,36
2019_Apr_22,110,001,0,recog,22,RUGGER,LF,lure,-,-,-,liberal,no,m,1,1.01308604935,1,37
2019_Apr_22,110,001,0,recog,23,VALUE,HF,target,left,yellow,pleasantness,conservative,no,z,1,1.07967074262,1,38
2019_Apr_22,110,001,0,recog,24,POUNDS,HF,lure,-,-,-,conservative,no,m,1,0.959856861795,3,41
2019_Apr_22,110,001,0,recog,25,WATCH,HF,target,right,aqua,imageability,liberal,no,z,1,0.893272168585,3,44
2019_Apr_22,110,001,0,recog,26,GASEOUS,LF,lure,-,-,-,conservative,no,m,1,1.09311276767,3,47
2019_Apr_22,110,001,0,recog,27,DIABETIC,LF,lure,-,-,-,liberal,no,m,1,1.43946799403,1,48
2019_Apr_22,110,001,0,recog,28,FIGURE,HF,target,left,yellow,pleasantness,liberal,no,z,1,0.973261492967,3,51
2019_Apr_22,110,001,0,recog,29,JUDICIOUS,LF,target,left,yellow,pleasantness,liberal,no,z,1,0.893392049125,3,54
2019_Apr_22,110,001,0,recog,30,TUCKER,LF,target,right,aqua,imageability,conservative,no,z,1,1.01331517892,1,55
2019_Apr_22,110,001,0,recog,31,FUDGE,LF,lure,-,-,-,liberal,no,m,1,1.079880442,1,56
2019_Apr_22,110,001,0,recog,32,SEQUEL,LF,target,right,aqua,imageability,liberal,no,z,1,0.906608610763,3,59
2019_Apr_22,110,001,0,recog,33,SCHOOL,HF,lure,-,-,-,liberal,no,m,1,0.853248177795,1,60
2019_Apr_22,110,001,0,recog,34,UNRAVEL,LF,target,left,yellow,pleasantness,conservative,yes,m,0,3.1857159512,-1,59
2019_Apr_22,110,001,0,recog,35,ENMESHED,LF,target,right,aqua,imageability,conservative,no,z,1,2.59927910333,1,60
2019_Apr_22,110,001,0,recog,36,MATERIAL,HF,target,left,yellow,pleasantness,liberal,no,z,1,0.866489668668,3,63
2019_Apr_22,110,001,0,recog,37,WALKED,HF,lure,-,-,-,liberal,no,m,1,0.94636387832,1,64
2019_Apr_22,110,001,0,recog,38,INEDIBLE,LF,lure,-,-,-,conservative,no,m,1,1.66634441883,3,67
2019_Apr_22,110,001,0,recog,39,TRUTH,HF,lure,-,-,-,liberal,no,m,1,1.026497646,1,68
2019_Apr_22,110,001,0,recog,40,QUESTION,HF,lure,-,-,-,conservative,no,m,1,1.14651462727,3,71
2019_Apr_22,110,001,0,recog,41,ENZYME,LF,target,right,aqua,imageability,liberal,no,z,1,0.839973692258,3,74
2019_Apr_22,110,001,0,recog,42,VECTORS,LF,target,left,yellow,pleasantness,liberal,no,z,1,0.759919111792,3,77
2019_Apr_22,110,001,0,recog,43,POOLED,LF,lure,-,-,-,liberal,no,m,1,0.839932265633,1,78
2019_Apr_22,110,001,0,recog,44,SOVIET,HF,lure,-,-,-,liberal,no,m,1,0.879940858926,1,79
2019_Apr_22,110,001,0,recog,45,SEVEN,HF,target,right,aqua,imageability,liberal,no,z,1,0.680037203303,3,82
2019_Apr_22,110,001,0,recog,46,DIETING,LF,target,left,yellow,pleasantness,liberal,no,z,1,0.640142624907,3,85
2019_Apr_22,110,001,0,recog,47,CRONE,LF,lure,-,-,-,conservative,no,m,1,0.893294165027,3,88
2019_Apr_22,110,001,0,recog,48,POINT,HF,lure,-,-,-,conservative,no,m,1,1.0532207556,3,91
2019_Apr_22,110,001,0,recog,49,SAYING,HF,lure,-,-,-,liberal,no,m,1,1.10654306132,1,92
2019_Apr_22,110,001,0,recog,50,KITCHEN,HF,lure,-,-,-,conservative,no,m,1,0.920013975119,3,95
2019_Apr_22,110,001,0,recog,51,SLEEP,HF,target,left,yellow,pleasantness,conservative,no,z,1,0.746692285233,1,96
2019_Apr_22,110,001,0,recog,52,ASPIRED,LF,target,right,aqua,imageability,conservative,no,z,1,0.879728593223,1,97
2019_Apr_22,110,001,0,recog,53,EARLIER,HF,target,right,aqua,imageability,liberal,no,z,1,0.786685480969,3,100
2019_Apr_22,110,001,0,recog,54,FOCUSES,LF,lure,-,-,-,conservative,no,m,1,0.839966360072,3,103
2019_Apr_22,110,001,0,recog,55,SOYBEAN,LF,lure,-,-,-,conservative,no,m,1,0.973285322427,3,106
2019_Apr_22,110,001,0,recog,56,TIMES,HF,target,left,yellow,pleasantness,conservative,no,z,1,0.959922117938,1,107
2019_Apr_22,110,001,0,recog,57,GALACTIC,LF,lure,-,-,-,liberal,no,z,0,0.959910386475,-1,106
2019_Apr_22,110,001,0,recog,58,ROVERS,LF,target,left,yellow,pleasantness,liberal,no,z,1,1.17316478194,3,109
2019_Apr_22,110,001,0,recog,59,PETERED,LF,target,left,yellow,pleasantness,liberal,no,z,1,1.09319892043,3,112
2019_Apr_22,110,001,0,recog,60,EUPHEMISM,LF,lure,-,-,-,liberal,no,z,0,1.19993591704,-1,111
2019_Apr_22,110,001,0,recog,61,MOBILIZE,LF,target,right,aqua,imageability,conservative,no,z,1,0.826419118675,1,112
2019_Apr_22,110,001,0,recog,62,GETTING,HF,lure,-,-,-,conservative,no,z,0,1.2396145637,-3,109
2019_Apr_22,110,001,0,recog,63,SIFTED,LF,lure,-,-,-,liberal,no,m,1,1.2664168604,1,110
2019_Apr_22,110,001,0,recog,64,GATEHOUSE,LF,target,right,aqua,imageability,conservative,no,z,1,0.986599034921,1,111
2019_Apr_22,110,001,0,recog,65,YELLOWED,LF,lure,-,-,-,conservative,no,m,1,1.21298420586,3,114
2019_Apr_22,110,001,0,recog,66,GRIEVE,LF,target,left,yellow,pleasantness,conservative,no,z,1,1.55944574834,1,115
2019_Apr_22,110,001,0,recog,67,HUMAN,HF,lure,-,-,-,liberal,no,m,1,1.09324877901,1,116
2019_Apr_22,110,001,0,recog,68,OUTSIDE,HF,lure,-,-,-,liberal,no,m,1,0.933218438586,1,117
2019_Apr_22,110,001,0,recog,69,WRONG,HF,lure,-,-,-,liberal,no,m,1,1.01324515691,1,118
2019_Apr_22,110,001,0,recog,70,PISTONS,LF,lure,-,-,-,conservative,no,m,1,1.26618993049,3,121
2019_Apr_22,110,001,0,recog,71,WARDROBES,LF,lure,-,-,-,conservative,no,m,1,0.853285938327,3,124
2019_Apr_22,110,001,0,recog,72,TRYING,HF,target,left,yellow,pleasantness,liberal,no,z,1,1.34641864948,3,127
2019_Apr_22,110,001,0,recog,73,OPENED,HF,target,left,yellow,pleasantness,liberal,no,z,1,0.760026894335,3,130
2019_Apr_22,110,001,0,recog,74,SPEAK,HF,lure,-,-,-,liberal,no,m,1,0.786471748899,1,131
2019_Apr_22,110,001,0,recog,75,CHURCH,HF,target,left,yellow,pleasantness,liberal,no,z,1,0.799932104361,3,134
2019_Apr_22,110,001,0,recog,76,REQUIRED,HF,lure,-,-,-,conservative,no,m,1,1.15982284065,3,137
2019_Apr_22,110,001,0,recog,77,ESPECIAL,LF,target,left,yellow,pleasantness,conservative,no,z,1,1.19984756468,1,138
2019_Apr_22,110,001,0,recog,78,MOUTH,HF,target,right,aqua,imageability,conservative,yes,z,1,1.75960016338,1,139
2019_Apr_22,110,001,0,recog,79,OBTAINS,LF,lure,-,-,-,conservative,yes,z,0,0.839965260297,-3,136
2019_Apr_22,110,001,0,recog,80,VEILING,LF,target,right,aqua,imageability,liberal,no,z,1,0.919916457497,3,139
2019_Apr_22,110,001,0,recog,81,WONDROUS,LF,lure,-,-,-,conservative,no,m,1,1.38641551131,3,142
2019_Apr_22,110,001,0,recog,82,AFIELD,LF,lure,-,-,-,conservative,no,m,1,1.05321635626,3,145
2019_Apr_22,110,001,0,recog,83,PEEKED,LF,target,right,aqua,imageability,liberal,no,z,1,0.906643071794,3,148
2019_Apr_22,110,001,0,recog,84,ABOVE,HF,target,right,aqua,imageability,liberal,no,z,1,0.773446556355,3,151
2019_Apr_22,110,001,0,recog,85,PARENTS,HF,lure,-,-,-,liberal,no,m,1,0.773372501659,1,152
2019_Apr_22,110,001,0,recog,86,EXUDED,LF,target,left,yellow,pleasantness,conservative,no,z,1,1.47969288571,1,153
2019_Apr_22,110,001,0,recog,87,LIGHT,HF,target,right,aqua,imageability,conservative,yes,z,1,0.946356912784,1,154
2019_Apr_22,110,001,0,recog,88,CUSTODIAN,LF,lure,-,-,-,liberal,no,m,1,0.94654021645,1,155
2019_Apr_22,110,001,0,recog,89,THING,HF,lure,-,-,-,conservative,no,m,1,1.29315426765,3,158
2019_Apr_22,110,001,0,recog,90,DOING,HF,target,left,yellow,pleasantness,conservative,no,z,1,1.35976572329,1,159
2019_Apr_22,110,001,0,recog,91,LOCAL,HF,target,right,aqua,imageability,conservative,no,z,1,0.720010235673,1,160
2019_Apr_22,110,001,0,recog,92,POWER,HF,target,right,aqua,imageability,liberal,no,z,1,0.853337263339,3,163
2019_Apr_22,110,001,0,recog,93,REACHED,HF,target,right,aqua,imageability,conservative,no,z,1,0.973073056783,1,164
2019_Apr_22,110,001,0,recog,94,PRACTICE,HF,lure,-,-,-,conservative,no,m,1,0.959913685976,3,167
2019_Apr_22,110,001,0,recog,95,FORCE,HF,lure,-,-,-,liberal,no,m,1,1.23980190005,1,168
2019_Apr_22,110,001,1,source,0,PIECE,HF,target,right,aqua,imageability,liberal,no,2,0,2.66590302356,-,-
2019_Apr_22,110,001,1,source,1,SAGES,LF,target,left,yellow,pleasantness,liberal,no,1,1,2.10613246111,-,-
2019_Apr_22,110,001,1,source,2,BEGAN,HF,target,right,aqua,imageability,conservative,no,1,0,1.55985964806,-,-
2019_Apr_22,110,001,1,source,3,BETTER,HF,target,right,aqua,imageability,liberal,no,8,1,2.34605314193,-,-
2019_Apr_22,110,001,1,source,4,DEXTERITY,LF,target,left,yellow,pleasantness,liberal,no,1,1,2.35935952229,-,-
2019_Apr_22,110,001,1,source,5,NIGHT,HF,target,left,yellow,pleasantness,conservative,no,1,1,1.89289089694,-,-
2019_Apr_22,110,001,1,source,6,DIFFERENT,HF,target,right,aqua,imageability,conservative,no,8,1,3.75891717389,-,-
2019_Apr_22,110,001,1,source,7,ATTACK,HF,target,right,aqua,imageability,conservative,no,9,1,1.29284888372,-,-
2019_Apr_22,110,001,1,source,8,NAPPY,LF,target,right,aqua,imageability,liberal,no,9,1,1.59966844029,-,-
2019_Apr_22,110,001,1,source,9,EITHER,HF,target,left,yellow,pleasantness,liberal,no,1,1,2.17281247227,-,-
2019_Apr_22,110,001,1,source,10,IDEAS,HF,target,right,aqua,imageability,liberal,no,9,1,2.01261642535,-,-
2019_Apr_22,110,001,1,source,11,DAUGHTER,HF,target,left,yellow,pleasantness,liberal,no,1,1,1.71937453852,-,-
2019_Apr_22,110,001,1,source,12,VERBALLY,LF,target,left,yellow,pleasantness,liberal,no,2,1,1.09315016167,-,-
2019_Apr_22,110,001,1,source,13,LADDIE,LF,target,left,yellow,pleasantness,conservative,no,1,1,1.01313114201,-,-
2019_Apr_22,110,001,1,source,14,BIDDER,LF,target,left,yellow,pleasantness,conservative,no,8,0,1.43951748603,-,-
2019_Apr_22,110,001,1,source,15,ENOUGH,HF,target,right,aqua,imageability,conservative,no,9,1,1.71966269193,-,-
2019_Apr_22,110,001,1,source,16,LETTER,HF,target,right,aqua,imageability,conservative,no,9,1,1.41306126671,-,-
2019_Apr_22,110,001,1,source,17,DOCTOR,HF,target,right,aqua,imageability,liberal,no,9,1,0.626738726976,-,-
2019_Apr_22,110,001,1,source,18,PERHAPS,HF,target,left,yellow,pleasantness,conservative,no,9,0,1.59968053835,-,-
2019_Apr_22,110,001,1,source,19,JANGLING,LF,target,right,aqua,imageability,conservative,no,9,1,1.0131960315,-,-
2019_Apr_22,110,001,1,source,20,DEBACLE,LF,target,left,yellow,pleasantness,conservative,no,2,1,1.70633944764,-,-
2019_Apr_22,110,001,1,source,21,EFFECT,HF,target,right,aqua,imageability,conservative,no,2,0,0.973027964064,-,-
2019_Apr_22,110,001,1,source,22,AVIDLY,LF,target,left,yellow,pleasantness,liberal,no,1,1,2.02595103445,-,-
2019_Apr_22,110,001,1,source,23,POPES,LF,target,right,aqua,imageability,conservative,no,9,1,0.919769081404,-,-
2019_Apr_22,110,001,1,source,24,CHAIR,HF,target,left,yellow,pleasantness,conservative,no,1,1,1.91948459402,-,-
2019_Apr_22,110,001,1,source,25,RETURN,HF,target,left,yellow,pleasantness,conservative,no,1,1,1.43946616101,-,-
2019_Apr_22,110,001,1,source,26,MARKET,HF,target,right,aqua,imageability,liberal,no,9,1,0.933289927023,-,-
2019_Apr_22,110,001,1,source,27,BOASTS,LF,target,right,aqua,imageability,conservative,yes,8,1,1.41303963686,-,-
2019_Apr_22,110,001,1,source,28,ABBOT,LF,target,left,yellow,pleasantness,liberal,no,2,1,1.69295974576,-,-
2019_Apr_22,110,001,1,source,29,UNSAVOURY,LF,target,left,yellow,pleasantness,liberal,no,2,1,1.87958011724,-,-
2019_Apr_22,110,001,1,source,30,GIBBERISH,LF,target,right,aqua,imageability,liberal,no,8,1,2.03950010892,-,-
2019_Apr_22,110,001,1,source,31,SKYLIGHT,LF,target,right,aqua,imageability,liberal,no,9,1,1.06652310322,-,-
2019_Apr_22,110,001,1,source,32,TREES,HF,target,right,aqua,imageability,liberal,no,9,1,0.853251477238,-,-
2019_Apr_22,110,001,1,source,33,OTHERS,HF,target,left,yellow,pleasantness,liberal,no,1,1,1.33313793159,-,-
2019_Apr_22,110,001,1,source,34,AMONG,HF,target,left,yellow,pleasantness,liberal,no,1,1,1.0262886798,-,-
2019_Apr_22,110,001,1,source,35,JASMINE,LF,target,right,aqua,imageability,conservative,yes,2,0,0.973214200581,-,-
2019_Apr_22,110,001,1,source,36,PUBLIC,HF,target,left,yellow,pleasantness,conservative,no,1,1,1.21310261998,-,-
2019_Apr_22,110,001,1,source,37,CALLED,HF,target,left,yellow,pleasantness,liberal,no,1,1,1.17317614675,-,-
2019_Apr_22,110,001,1,source,38,PAINTWORK,LF,target,left,yellow,pleasantness,conservative,no,8,0,1.67967719492,-,-
2019_Apr_22,110,001,1,source,39,SMALL,HF,target,left,yellow,pleasantness,conservative,no,2,1,2.74570794444,-,-
2019_Apr_22,110,001,1,source,40,PORCHES,LF,target,right,aqua,imageability,liberal,no,9,1,0.93324116827,-,-
2019_Apr_22,110,001,1,source,41,DUGOUTS,LF,target,left,yellow,pleasantness,conservative,no,1,1,1.38641037879,-,-
2019_Apr_22,110,001,1,source,42,HORDE,LF,target,right,aqua,imageability,liberal,yes,2,0,0.840003754012,-,-
2019_Apr_22,110,001,1,source,43,GARDEN,HF,target,left,yellow,pleasantness,liberal,no,1,1,1.54613423551,-,-
2019_Apr_22,110,001,1,source,44,SABLE,LF,target,left,yellow,pleasantness,conservative,yes,2,1,0.999707447307,-,-
2019_Apr_22,110,001,1,source,45,EVADING,LF,target,right,aqua,imageability,conservative,no,8,1,1.30623005197,-,-
2019_Apr_22,110,001,1,source,46,MOISTENED,LF,target,right,aqua,imageability,conservative,no,8,1,2.65263000451,-,-
2019_Apr_22,110,001,1,source,47,NURTURING,LF,target,right,aqua,imageability,liberal,no,9,1,1.94623556576,-,-
2019_Apr_22,110,001,1,recog,0,WINDOW,HF,lure,-,-,-,liberal,no,m,1,3.25238386431,1,169
2019_Apr_22,110,001,1,recog,1,FITFUL,LF,lure,-,-,-,liberal,no,m,1,0.800000293239,1,170
2019_Apr_22,110,001,1,recog,2,DEBACLE,LF,target,left,yellow,pleasantness,conservative,no,z,1,0.85334056284,1,171
2019_Apr_22,110,001,1,recog,3,QUICKLY,HF,lure,-,-,-,liberal,no,z,0,1.34643991268,-1,170
2019_Apr_22,110,001,1,recog,4,DECIDED,HF,lure,-,-,-,conservative,no,m,1,1.11990626587,3,173
2019_Apr_22,110,001,1,recog,5,RUFFLES,LF,lure,-,-,-,conservative,no,m,1,1.07986577769,3,176
2019_Apr_22,110,001,1,recog,6,LABOUR,HF,lure,-,-,-,liberal,no,m,1,0.880037643248,1,177
2019_Apr_22,110,001,1,recog,7,DIFFERENT,HF,target,right,aqua,imageability,conservative,no,z,1,1.19982373517,1,178
2019_Apr_22,110,001,1,recog,8,DUGOUTS,LF,target,left,yellow,pleasantness,conservative,no,z,1,0.826617086714,1,179
2019_Apr_22,110,001,1,recog,9,FINAL,HF,lure,-,-,-,liberal,no,m,1,0.759967137303,1,180
2019_Apr_22,110,001,1,recog,10,TROUBLE,HF,lure,-,-,-,conservative,no,m,1,1.17325276771,3,183
2019_Apr_22,110,001,1,recog,11,MEANS,HF,lure,-,-,-,conservative,no,m,1,1.39973472292,3,186
2019_Apr_22,110,001,1,recog,12,POPES,LF,target,right,aqua,imageability,conservative,no,z,1,0.680061399413,1,187
2019_Apr_22,110,001,1,recog,13,DOSSIERS,LF,lure,-,-,-,liberal,yes,m,1,1.78627927997,1,188
2019_Apr_22,110,001,1,recog,14,AVIDLY,LF,target,left,yellow,pleasantness,liberal,no,z,1,1.06657002901,3,191
2019_Apr_22,110,001,1,recog,15,RETURN,HF,target,left,yellow,pleasantness,conservative,no,z,1,1.95954047964,1,192
2019_Apr_22,110,001,1,recog,16,VETOED,LF,lure,-,-,-,liberal,no,m,1,1.07988887402,1,193
2019_Apr_22,110,001,1,recog,17,PLODDED,LF,lure,-,-,-,liberal,yes,m,1,0.759964204452,1,194
2019_Apr_22,110,001,1,recog,18,MANDARIN,LF,lure,-,-,-,conservative,no,m,1,3.61215875269,3,197
2019_Apr_22,110,001,1,recog,19,BURGH,LF,lure,-,-,-,conservative,no,m,1,0.879951857147,3,200
2019_Apr_22,110,001,1,recog,20,CALLED,HF,target,left,yellow,pleasantness,liberal,no,z,1,0.706456395332,3,203
2019_Apr_22,110,001,1,recog,21,MOTHER,HF,lure,-,-,-,liberal,no,m,1,0.773326675757,1,204
2019_Apr_22,110,001,1,recog,22,GIBBERISH,LF,target,right,aqua,imageability,liberal,no,z,1,0.880070271262,3,207
2019_Apr_22,110,001,1,recog,23,BOASTS,LF,target,right,aqua,imageability,conservative,no,z,1,1.35986764007,1,208
2019_Apr_22,110,001,1,recog,24,ERSTWHILE,LF,lure,-,-,-,liberal,no,m,1,1.70634971262,1,209
2019_Apr_22,110,001,1,recog,25,OTHERS,HF,target,left,yellow,pleasantness,liberal,no,z,1,0.706652896886,3,212
2019_Apr_22,110,001,1,recog,26,HAPPEN,HF,lure,-,-,-,conservative,no,m,1,1.22651788272,3,215
2019_Apr_22,110,001,1,recog,27,BEGAN,HF,target,right,aqua,imageability,conservative,no,z,1,0.933288460597,1,216
2019_Apr_22,110,001,1,recog,28,BEYOND,HF,lure,-,-,-,conservative,no,m,1,1.06653373485,3,219
2019_Apr_22,110,001,1,recog,29,DOCTOR,HF,target,right,aqua,imageability,liberal,no,z,1,0.799976830371,3,222
2019_Apr_22,110,001,1,recog,30,TEDIUM,LF,lure,-,-,-,conservative,no,m,1,0.999890017789,3,225
2019_Apr_22,110,001,1,recog,31,DEXTERITY,LF,target,left,yellow,pleasantness,liberal,no,z,1,0.719965142955,3,228
2019_Apr_22,110,001,1,recog,32,MOISTENED,LF,target,right,aqua,imageability,conservative,no,z,1,0.893271068751,1,229
2019_Apr_22,110,001,1,recog,33,PAPER,HF,lure,-,-,-,conservative,no,m,1,0.839960494428,3,232
2019_Apr_22,110,001,1,recog,34,PAGANISM,LF,lure,-,-,-,liberal,no,m,1,1.05320315837,1,233
2019_Apr_22,110,001,1,recog,35,BABBLED,LF,lure,-,-,-,conservative,no,m,1,1.19993848325,3,236
2019_Apr_22,110,001,1,recog,36,VERBALLY,LF,target,left,yellow,pleasantness,liberal,no,z,1,0.813374862599,3,239
2019_Apr_22,110,001,1,recog,37,QUALITY,HF,lure,-,-,-,liberal,no,m,1,0.973000468512,1,240
2019_Apr_22,110,001,1,recog,38,DAUGHTER,HF,target,left,yellow,pleasantness,liberal,no,z,1,0.73340533505,3,243
2019_Apr_22,110,001,1,recog,39,DUNGEON,LF,lure,-,-,-,conservative,no,m,1,0.946638467198,3,246
2019_Apr_22,110,001,1,recog,40,POLICE,HF,lure,-,-,-,conservative,no,m,1,1.17315854959,3,249
2019_Apr_22,110,001,1,recog,41,UNSAVOURY,LF,target,left,yellow,pleasantness,liberal,no,z,1,0.746608332091,3,252
2019_Apr_22,110,001,1,recog,42,SABLE,LF,target,left,yellow,pleasantness,conservative,no,z,1,0.986387135868,1,253
2019_Apr_22,110,001,1,recog,43,SAFARI,LF,lure,-,-,-,liberal,no,m,1,0.853308667953,1,254
2019_Apr_22,110,001,1,recog,44,NAPPY,LF,target,right,aqua,imageability,liberal,no,z,1,0.759996832523,3,257
2019_Apr_22,110,001,1,recog,45,MEMBERS,HF,lure,-,-,-,liberal,no,m,1,0.999917513342,1,258
2019_Apr_22,110,001,1,recog,46,PRIVATE,HF,lure,-,-,-,liberal,no,m,1,0.919901793182,1,259
2019_Apr_22,110,001,1,recog,47,NIGHT,HF,target,left,yellow,pleasantness,conservative,no,z,1,0.786644054344,1,260
2019_Apr_22,110,001,1,recog,48,BIDDER,LF,target,left,yellow,pleasantness,conservative,no,z,1,0.879957356257,1,261
2019_Apr_22,110,001,1,recog,49,THANK,HF,lure,-,-,-,conservative,no,m,1,0.82667721028,3,264
2019_Apr_22,110,001,1,recog,50,NURTURING,LF,target,right,aqua,imageability,liberal,no,z,1,0.693405173719,3,267
2019_Apr_22,110,001,1,recog,51,WEEKS,HF,lure,-,-,-,liberal,no,m,1,1.13298608287,1,268
2019_Apr_22,110,001,1,recog,52,SKYLIGHT,LF,target,right,aqua,imageability,liberal,no,z,1,1.0132579882,3,271
2019_Apr_22,110,001,1,recog,53,PUBLIC,HF,target,left,yellow,pleasantness,conservative,yes,z,1,1.42636471416,1,272
2019_Apr_22,110,001,1,recog,54,ISOLATING,LF,lure,-,-,-,liberal,no,m,1,2.49266345368,1,273
2019_Apr_22,110,001,1,recog,55,ORDER,HF,lure,-,-,-,liberal,no,m,1,2.02611857402,1,274
2019_Apr_22,110,001,1,recog,56,ACCORDING,HF,lure,-,-,-,liberal,no,m,1,0.866615781561,1,275
2019_Apr_22,110,001,1,recog,57,RAREFIED,LF,lure,-,-,-,conservative,no,m,1,1.43977007852,3,278
2019_Apr_22,110,001,1,recog,58,GARDEN,HF,target,left,yellow,pleasantness,liberal,no,z,1,0.680007508141,3,281
2019_Apr_22,110,001,1,recog,59,ROUND,HF,lure,-,-,-,conservative,no,m,1,1.09318865539,3,284
2019_Apr_22,110,001,1,recog,60,EGOISM,LF,lure,-,-,-,liberal,no,m,1,0.933268663823,1,285
2019_Apr_22,110,001,1,recog,61,BUTCHERED,LF,lure,-,-,-,liberal,no,m,1,1.119845409,1,286
2019_Apr_22,110,001,1,recog,62,ABBOT,LF,target,left,yellow,pleasantness,liberal,no,z,1,0.69335714815,3,289
2019_Apr_22,110,001,1,recog,63,EITHER,HF,target,left,yellow,pleasantness,liberal,no,z,1,0.733114982024,3,292
2019_Apr_22,110,001,1,recog,64,HERSELF,HF,lure,-,-,-,conservative,no,m,1,0.800003592798,3,295
2019_Apr_22,110,001,1,recog,65,PERHAPS,HF,target,left,yellow,pleasantness,conservative,no,z,1,0.653415644018,1,296
2019_Apr_22,110,001,1,recog,66,ATTACK,HF,target,right,aqua,imageability,conservative,yes,z,1,0.86662641319,1,297
2019_Apr_22,110,001,1,recog,67,SMALL,HF,target,left,yellow,pleasantness,conservative,no,z,1,0.733338245889,1,298
2019_Apr_22,110,001,1,recog,68,GIVEN,HF,lure,-,-,-,conservative,no,m,1,0.746768172889,3,301
2019_Apr_22,110,001,1,recog,69,CHAIR,HF,target,left,yellow,pleasantness,conservative,no,z,1,0.799956667004,1,302
2019_Apr_22,110,001,1,recog,70,SAGES,LF,target,left,yellow,pleasantness,liberal,no,z,1,0.733213232772,3,305
2019_Apr_22,110,001,1,recog,71,TREES,HF,target,right,aqua,imageability,liberal,no,z,1,0.77332190983,3,308
2019_Apr_22,110,001,1,recog,72,HUNDRED,HF,lure,-,-,-,conservative,no,m,1,0.799992227927,3,311
2019_Apr_22,110,001,1,recog,73,UDDER,LF,lure,-,-,-,conservative,no,m,1,0.959923217713,3,314
2019_Apr_22,110,001,1,recog,74,GODMOTHER,LF,lure,-,-,-,liberal,no,m,1,0.90664233861,1,315
2019_Apr_22,110,001,1,recog,75,IDEAS,HF,target,right,aqua,imageability,liberal,no,z,1,0.760035692889,3,318
2019_Apr_22,110,001,1,recog,76,EFFECT,HF,target,right,aqua,imageability,conservative,no,z,1,1.05324128555,1,319
2019_Apr_22,110,001,1,recog,77,MARKET,HF,target,right,aqua,imageability,liberal,no,z,1,0.720027099596,3,322
2019_Apr_22,110,001,1,recog,78,UNTIL,HF,lure,-,-,-,liberal,no,m,1,0.720011335507,1,323
2019_Apr_22,110,001,1,recog,79,PORCHES,LF,target,right,aqua,imageability,liberal,no,z,1,0.786619858234,3,326
2019_Apr_22,110,001,1,recog,80,LADDIE,LF,target,left,yellow,pleasantness,conservative,no,z,1,0.733366474684,1,327
2019_Apr_22,110,001,1,recog,81,BETTER,HF,target,right,aqua,imageability,liberal,no,z,1,0.746659290511,3,330
2019_Apr_22,110,001,1,recog,82,JOSTLED,LF,lure,-,-,-,conservative,no,m,1,0.826639449748,3,333
2019_Apr_22,110,001,1,recog,83,PAINTWORK,LF,target,left,yellow,pleasantness,conservative,no,z,1,0.959918085253,1,334
2019_Apr_22,110,001,1,recog,84,ENOUGH,HF,target,right,aqua,imageability,conservative,no,m,0,1.31973733316,-1,333
2019_Apr_22,110,001,1,recog,85,HORDE,LF,target,right,aqua,imageability,liberal,no,z,1,1.05321195698,3,336
2019_Apr_22,110,001,1,recog,86,TAILED,LF,lure,-,-,-,conservative,no,z,0,1.17312188889,-3,333
2019_Apr_22,110,001,1,recog,87,JANGLING,LF,target,right,aqua,imageability,conservative,no,z,1,1.95951811661,1,334
2019_Apr_22,110,001,1,recog,88,CELLO,LF,lure,-,-,-,liberal,no,m,1,1.42616821261,1,335
2019_Apr_22,110,001,1,recog,89,LETTER,HF,target,right,aqua,imageability,conservative,no,z,1,1.41310086031,1,336
2019_Apr_22,110,001,1,recog,90,PACIFISM,LF,lure,-,-,-,conservative,no,m,1,0.906623641669,3,339
2019_Apr_22,110,001,1,recog,91,DISARMED,LF,lure,-,-,-,conservative,no,m,1,1.66628209554,3,342
2019_Apr_22,110,001,1,recog,92,JASMINE,LF,target,right,aqua,imageability,conservative,no,z,1,0.813346633862,1,343
2019_Apr_22,110,001,1,recog,93,AMONG,HF,target,left,yellow,pleasantness,liberal,no,z,1,0.920044403465,3,346
2019_Apr_22,110,001,1,recog,94,PIECE,HF,target,right,aqua,imageability,liberal,no,z,1,0.760116346471,3,349
2019_Apr_22,110,001,1,recog,95,EVADING,LF,target,right,aqua,imageability,conservative,no,z,1,2.46602466388,1,350
2019_Apr_22,110,001,2,source,0,GEOLOGIST,LF,target,right,aqua,imageability,liberal,yes,2,0,1.3331529625,-,-
2019_Apr_22,110,001,2,source,1,TAKEN,HF,target,right,aqua,imageability,liberal,no,8,1,4.19864362612,-,-
2019_Apr_22,110,001,2,source,2,FLYWHEEL,LF,target,left,yellow,pleasantness,conservative,no,1,1,1.23980043363,-,-
2019_Apr_22,110,001,2,source,3,DIPLOMAS,LF,target,left,yellow,pleasantness,conservative,yes,2,1,0.773327042349,-,-
2019_Apr_22,110,001,2,source,4,CEASELESS,LF,target,right,aqua,imageability,liberal,no,8,1,1.82602391602,-,-
2019_Apr_22,110,001,2,source,5,AMBIENCE,LF,target,right,aqua,imageability,conservative,no,9,1,1.66630042589,-,-
2019_Apr_22,110,001,2,source,6,FRIEND,HF,target,left,yellow,pleasantness,conservative,no,1,1,2.33249013644,-,-
2019_Apr_22,110,001,2,source,7,EVIDENCE,HF,target,right,aqua,imageability,liberal,no,8,1,1.41317711462,-,-
2019_Apr_22,110,001,2,source,8,TRADE,HF,target,left,yellow,pleasantness,liberal,no,1,1,3.45207892027,-,-
2019_Apr_22,110,001,2,source,9,OCHRE,LF,target,right,aqua,imageability,conservative,no,8,1,1.54613643512,-,-
2019_Apr_22,110,001,2,source,10,OUGHT,HF,target,right,aqua,imageability,conservative,no,8,1,1.93285953003,-,-
2019_Apr_22,110,001,2,source,11,SEEMED,HF,target,right,aqua,imageability,conservative,no,8,1,2.35937675281,-,-
2019_Apr_22,110,001,2,source,12,UNPACK,LF,target,left,yellow,pleasantness,conservative,no,1,1,1.75973140879,-,-
2019_Apr_22,110,001,2,source,13,GREATER,HF,target,right,aqua,imageability,conservative,no,9,1,1.90625556785,-,-
2019_Apr_22,110,001,2,source,14,LIZARD,LF,target,left,yellow,pleasantness,liberal,no,1,1,0.879928760871,-,-
2019_Apr_22,110,001,2,source,15,ACROSS,HF,target,right,aqua,imageability,liberal,yes,8,1,0.79997426417,-,-
2019_Apr_22,110,001,2,source,16,HARDLY,HF,target,left,yellow,pleasantness,conservative,no,2,1,2.74593634083,-,-
2019_Apr_22,110,001,2,source,17,PHYSICAL,HF,target,left,yellow,pleasantness,conservative,no,1,1,0.813253515575,-,-
2019_Apr_22,110,001,2,source,18,SIESTA,LF,target,left,yellow,pleasantness,conservative,no,1,1,0.759968237136,-,-
2019_Apr_22,110,001,2,source,19,RESEARCH,HF,target,left,yellow,pleasantness,conservative,no,1,1,0.786819659232,-,-
2019_Apr_22,110,001,2,source,20,ITSELF,HF,target,right,aqua,imageability,liberal,no,9,1,3.18582666659,-,-
2019_Apr_22,110,001,2,source,21,AFOOT,LF,target,left,yellow,pleasantness,liberal,no,1,1,0.946587875369,-,-
2019_Apr_22,110,001,2,source,22,MERELY,HF,target,left,yellow,pleasantness,conservative,no,1,1,1.95952618204,-,-
2019_Apr_22,110,001,2,source,23,EXPECT,HF,target,left,yellow,pleasantness,liberal,no,1,1,1.93291892041,-,-
2019_Apr_22,110,001,2,source,24,ENCLOSE,LF,target,right,aqua,imageability,conservative,no,9,1,1.14648896473,-,-
2019_Apr_22,110,001,2,source,25,UNNAMED,LF,target,right,aqua,imageability,liberal,no,8,1,1.07989400649,-,-
2019_Apr_22,110,001,2,source,26,MAJOR,HF,target,left,yellow,pleasantness,liberal,no,1,1,0.973062058561,-,-
2019_Apr_22,110,001,2,source,27,SITTING,HF,target,right,aqua,imageability,conservative,no,1,0,2.75894100335,-,-
2019_Apr_22,110,001,2,source,28,FLOOR,HF,target,left,yellow,pleasantness,liberal,no,1,1,3.73216766864,-,-
2019_Apr_22,110,001,2,source,29,IMPORTANT,HF,target,left,yellow,pleasantness,liberal,no,2,1,2.99919529684,-,-
2019_Apr_22,110,001,2,source,30,BUGGED,LF,target,right,aqua,imageability,conservative,no,9,1,2.07927077397,-,-
2019_Apr_22,110,001,2,source,31,DURING,HF,target,right,aqua,imageability,liberal,no,8,1,1.2531126797,-,-
2019_Apr_22,110,001,2,source,32,ZENITH,LF,target,left,yellow,pleasantness,liberal,no,2,1,2.23937993502,-,-
2019_Apr_22,110,001,2,source,33,IDOLATRY,LF,target,left,yellow,pleasantness,conservative,no,2,1,3.14572898776,-,-
2019_Apr_22,110,001,2,source,34,EQUALLED,LF,target,left,yellow,pleasantness,conservative,no,2,1,1.86623341008,-,-
2019_Apr_22,110,001,2,source,35,COMES,HF,target,right,aqua,imageability,conservative,no,7,1,1.89303497359,-,-
2019_Apr_22,110,001,2,source,36,SUCCESS,HF,target,right,aqua,imageability,conservative,no,8,1,1.25294514012,-,-
2019_Apr_22,110,001,2,source,37,LEFTISTS,LF,target,left,yellow,pleasantness,liberal,no,2,1,2.13275658665,-,-
2019_Apr_22,110,001,2,source,38,TRIED,HF,target,left,yellow,pleasantness,conservative,no,1,1,1.15978801297,-,-
2019_Apr_22,110,001,2,source,39,SAVOURED,LF,target,right,aqua,imageability,liberal,no,8,1,2.22604239301,-,-
2019_Apr_22,110,001,2,source,40,PHANTOMS,LF,target,left,yellow,pleasantness,liberal,no,1,1,0.973209801363,-,-
2019_Apr_22,110,001,2,source,41,OMITTING,LF,target,right,aqua,imageability,conservative,no,8,1,2.77254250261,-,-
2019_Apr_22,110,001,2,source,42,ALMOST,HF,target,right,aqua,imageability,liberal,no,8,1,1.6396825327,-,-
2019_Apr_22,110,001,2,source,43,LAVISHED,LF,target,right,aqua,imageability,liberal,no,9,1,1.46647082502,-,-
2019_Apr_22,110,001,2,source,44,MEETING,HF,target,left,yellow,pleasantness,liberal,no,1,1,1.19961146952,-,-
2019_Apr_22,110,001,2,source,45,WETTER,LF,target,left,yellow,pleasantness,liberal,yes,8,0,0.693362280668,-,-
2019_Apr_22,110,001,2,source,46,FLECKED,LF,target,right,aqua,imageability,conservative,no,8,1,2.18610235531,-,-
2019_Apr_22,110,001,2,source,47,SAMENESS,LF,target,right,aqua,imageability,liberal,no,9,1,1.58632613241,-,-
2019_Apr_22,110,001,2,recog,0,BUGGED,LF,target,right,aqua,imageability,conservative,no,z,1,1.27952380636,1,351
2019_Apr_22,110,001,2,recog,1,PHANTOMS,LF,target,left,yellow,pleasantness,liberal,no,z,1,0.799944935599,3,354
2019_Apr_22,110,001,2,recog,2,PHYSICAL,HF,target,left,yellow,pleasantness,conservative,no,z,1,0.759993899672,1,355
2019_Apr_22,110,001,2,recog,3,SITTING,HF,target,right,aqua,imageability,conservative,no,z,1,0.666819175356,1,356
2019_Apr_22,110,001,2,recog,4,WETTER,LF,target,left,yellow,pleasantness,liberal,no,z,1,0.893282066972,3,359
2019_Apr_22,110,001,2,recog,5,UNPACK,LF,target,left,yellow,pleasantness,conservative,no,z,1,0.746448857884,1,360
2019_Apr_22,110,001,2,recog,6,FUNNILY,LF,lure,-,-,-,conservative,no,m,1,0.773277916946,3,363
2019_Apr_22,110,001,2,recog,7,RESEARCH,HF,target,left,yellow,pleasantness,conservative,no,z,1,0.600018916943,1,364
2019_Apr_22,110,001,2,recog,8,LOWED,LF,lure,-,-,-,liberal,no,m,1,1.14646953461,1,365
2019_Apr_22,110,001,2,recog,9,BECAME,HF,lure,-,-,-,liberal,no,z,0,0.89336162078,-1,364
2019_Apr_22,110,001,2,recog,10,SEEMED,HF,target,right,aqua,imageability,conservative,no,z,1,0.893229275534,1,365
2019_Apr_22,110,001,2,recog,11,ZENITH,LF,target,left,yellow,pleasantness,liberal,no,z,1,0.8132949422,3,368
2019_Apr_22,110,001,2,recog,12,KNOWLEDGE,HF,lure,-,-,-,liberal,no,m,1,0.946568078594,1,369
2019_Apr_22,110,001,2,recog,13,TALKING,HF,lure,-,-,-,conservative,no,m,1,0.91993332142,3,372
2019_Apr_22,110,001,2,recog,14,VILLAGE,HF,lure,-,-,-,liberal,no,m,1,1.11984430917,1,373
2019_Apr_22,110,001,2,recog,15,OUGHT,HF,target,right,aqua,imageability,conservative,no,z,1,0.999894050474,1,374
2019_Apr_22,110,001,2,recog,16,WEDGES,LF,lure,-,-,-,conservative,no,m,1,2.30606764491,3,377
2019_Apr_22,110,001,2,recog,17,DELEGATED,LF,lure,-,-,-,conservative,no,z,0,1.09328287351,-3,374
2019_Apr_22,110,001,2,recog,18,EXPECT,HF,target,left,yellow,pleasantness,liberal,no,z,1,2.98578809947,3,377
2019_Apr_22,110,001,2,recog,19,SAVOURED,LF,target,right,aqua,imageability,liberal,no,z,1,0.719998137618,3,380
2019_Apr_22,110,001,2,recog,20,ITSELF,HF,target,right,aqua,imageability,liberal,no,z,1,0.720010968915,3,383
2019_Apr_22,110,001,2,recog,21,ENCLOSE,LF,target,right,aqua,imageability,conservative,no,z,1,0.839955728501,1,384
2019_Apr_22,110,001,2,recog,22,KOSHER,LF,lure,-,-,-,conservative,no,m,1,0.79997976328,3,387
2019_Apr_22,110,001,2,recog,23,AFOOT,LF,target,left,yellow,pleasantness,liberal,no,z,1,0.67997231381,3,390
2019_Apr_22,110,001,2,recog,24,TAKEN,HF,target,right,aqua,imageability,liberal,no,z,1,0.70666206209,3,393
2019_Apr_22,110,001,2,recog,25,FLECKED,LF,target,right,aqua,imageability,conservative,no,z,1,0.999874986883,1,394
2019_Apr_22,110,001,2,recog,26,HUSBAND,HF,lure,-,-,-,liberal,yes,m,1,1.83959352045,1,395
2019_Apr_22,110,001,2,recog,27,UNDER,HF,lure,-,-,-,conservative,no,m,1,2.10615519073,3,398
2019_Apr_22,110,001,2,recog,28,MAJOR,HF,target,left,yellow,pleasantness,liberal,no,z,1,0.720035164966,3,401
2019_Apr_22,110,001,2,recog,29,GENERAL,HF,lure,-,-,-,liberal,no,m,1,1.18649645819,1,402
2019_Apr_22,110,001,2,recog,30,MEETING,HF,target,left,yellow,pleasantness,liberal,no,z,1,0.61338175484,3,405
2019_Apr_22,110,001,2,recog,31,SUCCESS,HF,target,right,aqua,imageability,conservative,no,z,1,1.23981179844,1,406
2019_Apr_22,110,001,2,recog,32,AEGIS,LF,lure,-,-,-,conservative,no,m,1,0.773351971642,3,409
2019_Apr_22,110,001,2,recog,33,ASKED,HF,lure,-,-,-,liberal,no,m,1,1.03964675183,1,410
2019_Apr_22,110,001,2,recog,34,COGENT,LF,lure,-,-,-,liberal,no,m,1,0.879955889832,1,411
2019_Apr_22,110,001,2,recog,35,CICADAS,LF,lure,-,-,-,conservative,no,m,1,1.23977257148,3,414
2019_Apr_22,110,001,2,recog,36,YANKED,LF,lure,-,-,-,liberal,no,m,1,0.919877597131,1,415
2019_Apr_22,110,001,2,recog,37,BATCHES,LF,lure,-,-,-,liberal,no,m,1,0.959928350232,1,416
2019_Apr_22,110,001,2,recog,38,OCHRE,LF,target,right,aqua,imageability,conservative,no,z,1,0.693350182613,1,417
2019_Apr_22,110,001,2,recog,39,FLOOR,HF,target,left,yellow,pleasantness,liberal,no,z,1,0.733430630935,3,420
2019_Apr_22,110,001,2,recog,40,MERELY,HF,target,left,yellow,pleasantness,conservative,yes,z,1,0.986384936201,1,421
2019_Apr_22,110,001,2,recog,41,IDOLATRY,LF,target,left,yellow,pleasantness,conservative,no,z,1,1.47954367648,1,422
2019_Apr_22,110,001,2,recog,42,FEELING,HF,lure,-,-,-,liberal,no,m,1,1.02659846301,1,423
2019_Apr_22,110,001,2,recog,43,LEFTISTS,LF,target,left,yellow,pleasantness,liberal,no,z,1,0.693360447651,3,426
2019_Apr_22,110,001,2,recog,44,TACITLY,LF,lure,-,-,-,liberal,no,m,1,0.839934831893,1,427
2019_Apr_22,110,001,2,recog,45,LIZARD,LF,target,left,yellow,pleasantness,liberal,no,z,1,0.653369818116,3,430
2019_Apr_22,110,001,2,recog,46,NEITHER,HF,lure,-,-,-,liberal,no,m,1,0.853283372126,1,431
2019_Apr_22,110,001,2,recog,47,ECONOMIC,HF,lure,-,-,-,conservative,no,m,1,1.71962273173,3,434
2019_Apr_22,110,001,2,recog,48,GREATER,HF,target,right,aqua,imageability,conservative,no,z,1,0.759948440362,1,435
2019_Apr_22,110,001,2,recog,49,EQUALLED,LF,target,left,yellow,pleasantness,conservative,no,z,1,2.26613457274,1,436
2019_Apr_22,110,001,2,recog,50,COUNCIL,HF,lure,-,-,-,liberal,no,m,1,0.759856421908,1,437
2019_Apr_22,110,001,2,recog,51,OPULENCE,LF,lure,-,-,-,conservative,no,z,0,1.0932102853,-3,434
2019_Apr_22,110,001,2,recog,52,ANYONE,HF,lure,-,-,-,conservative,no,m,1,1.14650876157,3,437
2019_Apr_22,110,001,2,recog,53,LAVISHED,LF,target,right,aqua,imageability,liberal,no,z,1,0.786396594369,3,440
2019_Apr_22,110,001,2,recog,54,DURING,HF,target,right,aqua,imageability,liberal,no,z,1,1.49305535702,3,443
2019_Apr_22,110,001,2,recog,55,EVENING,HF,lure,-,-,-,conservative,no,m,1,1.42635591561,3,446
2019_Apr_22,110,001,2,recog,56,LATER,HF,lure,-,-,-,liberal,no,m,1,2.11946377077,1,447
2019_Apr_22,110,001,2,recog,57,FLYWHEEL,LF,target,left,yellow,pleasantness,conservative,no,z,1,0.65336798504,1,448
2019_Apr_22,110,001,2,recog,58,AILMENT,LF,lure,-,-,-,conservative,no,m,1,0.839979191369,3,451
2019_Apr_22,110,001,2,recog,59,LAYERED,LF,lure,-,-,-,liberal,no,m,1,1.386438241,1,452
2019_Apr_22,110,001,2,recog,60,SIESTA,LF,target,left,yellow,pleasantness,conservative,no,z,1,0.600107269303,1,453
2019_Apr_22,110,001,2,recog,61,YOGHURT,LF,lure,-,-,-,conservative,no,m,1,1.85270926496,3,456
2019_Apr_22,110,001,2,recog,62,AMBIENCE,LF,target,right,aqua,imageability,conservative,no,z,1,0.733255759231,1,457
2019_Apr_22,110,001,2,recog,63,IMPORTANT,HF,target,left,yellow,pleasantness,liberal,no,z,1,0.879943791777,3,460
2019_Apr_22,110,001,2,recog,64,SPACE,HF,lure,-,-,-,conservative,no,m,1,1.30640235741,3,463
2019_Apr_22,110,001,2,recog,65,TRIED,HF,target,left,yellow,pleasantness,conservative,no,z,1,0.69334908278,1,464
2019_Apr_22,110,001,2,recog,66,NEARLY,HF,lure,-,-,-,conservative,no,m,1,1.25311194645,3,467
2019_Apr_22,110,001,2,recog,67,DIPLOMAS,LF,target,left,yellow,pleasantness,conservative,no,z,1,0.7733512384,1,468
2019_Apr_22,110,001,2,recog,68,ARBITER,LF,lure,-,-,-,liberal,no,m,1,1.11990003352,1,469
2019_Apr_22,110,001,2,recog,69,HYENA,LF,lure,-,-,-,liberal,no,m,1,1.02659149747,1,470
2019_Apr_22,110,001,2,recog,70,TODAY,HF,lure,-,-,-,conservative,no,z,0,0.826672444411,-3,467
2019_Apr_22,110,001,2,recog,71,CLASS,HF,lure,-,-,-,conservative,no,m,1,1.53301922418,3,470
2019_Apr_22,110,001,2,recog,72,EVIDENCE,HF,target,right,aqua,imageability,liberal,no,z,1,0.78670454456,3,473
2019_Apr_22,110,001,2,recog,73,RAFTERS,LF,lure,-,-,-,conservative,no,m,1,1.14645926951,3,476
2019_Apr_22,110,001,2,recog,74,SAMENESS,LF,target,right,aqua,imageability,liberal,no,z,1,0.933229436807,3,479
2019_Apr_22,110,001,2,recog,75,MUSIC,HF,lure,-,-,-,liberal,no,m,1,1.06657589471,1,480
2019_Apr_22,110,001,2,recog,76,GAZELLE,LF,lure,-,-,-,liberal,no,m,1,0.853328464786,1,481
2019_Apr_22,110,001,2,recog,77,ACROSS,HF,target,right,aqua,imageability,liberal,no,z,1,0.786638921825,3,484
2019_Apr_22,110,001,2,recog,78,COMES,HF,target,right,aqua,imageability,conservative,no,z,1,1.13316058792,1,485
2019_Apr_22,110,001,2,recog,79,HARDLY,HF,target,left,yellow,pleasantness,conservative,yes,z,1,1.54641578993,1,486
2019_Apr_22,110,001,2,recog,80,WESTERN,HF,lure,-,-,-,conservative,no,m,1,0.839911002375,3,489
2019_Apr_22,110,001,2,recog,81,SYSTEM,HF,lure,-,-,-,conservative,no,m,1,0.813307773438,3,492
2019_Apr_22,110,001,2,recog,82,ALMOST,HF,target,right,aqua,imageability,liberal,no,z,1,0.786623524327,3,495
2019_Apr_22,110,001,2,recog,83,TRADE,HF,target,left,yellow,pleasantness,liberal,no,z,1,0.666742920992,3,498
2019_Apr_22,110,001,2,recog,84,ERUDITE,LF,lure,-,-,-,liberal,no,m,1,0.746680920362,1,499
2019_Apr_22,110,001,2,recog,85,RALLIED,LF,lure,-,-,-,conservative,no,m,1,1.09314502915,3,502
2019_Apr_22,110,001,2,recog,86,FRIEND,HF,target,left,yellow,pleasantness,conservative,no,z,1,1.05320462486,1,503
2019_Apr_22,110,001,2,recog,87,CEASELESS,LF,target,right,aqua,imageability,liberal,no,z,1,0.826712771202,3,506
2019_Apr_22,110,001,2,recog,88,GEOLOGIST,LF,target,right,aqua,imageability,liberal,no,m,0,0.826617819897,-3,503
2019_Apr_22,110,001,2,recog,89,MYRIADS,LF,lure,-,-,-,liberal,no,m,1,2.61257118598,1,504
2019_Apr_22,110,001,2,recog,90,MIDDLE,HF,lure,-,-,-,conservative,yes,z,0,0.986527546542,-3,501
2019_Apr_22,110,001,2,recog,91,SIMILAR,HF,lure,-,-,-,liberal,no,m,1,3.02577286324,1,502
2019_Apr_22,110,001,2,recog,92,UNNAMED,LF,target,right,aqua,imageability,liberal,no,z,1,0.759949540137,3,505
2019_Apr_22,110,001,2,recog,93,PATCHY,LF,lure,-,-,-,conservative,no,z,0,1.51964538801,-3,502
2019_Apr_22,110,001,2,recog,94,OMITTING,LF,target,right,aqua,imageability,conservative,no,z,1,2.09277622215,1,503
2019_Apr_22,110,001,2,recog,95,IGNOBLE,LF,lure,-,-,-,liberal,no,m,1,1.03991107573,1,504
2019_Apr_22,110,001,3,source,0,YEOMAN,LF,target,right,aqua,imageability,liberal,no,8,1,3.14551158954,-,-
2019_Apr_22,110,001,3,source,1,ACTION,HF,target,right,aqua,imageability,liberal,no,9,1,1.10647743859,-,-
2019_Apr_22,110,001,3,source,2,LULLED,LF,target,left,yellow,pleasantness,liberal,no,1,1,1.0931879222,-,-
2019_Apr_22,110,001,3,source,3,SUPPORT,HF,target,left,yellow,pleasantness,liberal,no,1,1,1.79953066923,-,-
2019_Apr_22,110,001,3,source,4,SEWED,LF,target,left,yellow,pleasantness,liberal,no,1,1,0.89330552984,-,-
2019_Apr_22,110,001,3,source,5,WRITE,HF,target,left,yellow,pleasantness,conservative,no,1,1,1.35954979155,-,-
2019_Apr_22,110,001,3,source,6,ALDER,LF,target,left,yellow,pleasantness,liberal,no,2,1,1.4263691135,-,-
2019_Apr_22,110,001,3,source,7,GROUND,HF,target,left,yellow,pleasantness,liberal,no,1,1,2.90581820527,-,-
2019_Apr_22,110,001,3,source,8,SERIOUS,HF,target,right,aqua,imageability,conservative,yes,8,1,0.973002668179,-,-
2019_Apr_22,110,001,3,source,9,CUPID,LF,target,left,yellow,pleasantness,conservative,yes,8,0,0.386829044379,-,-
2019_Apr_22,110,001,3,source,10,LOITERING,LF,target,right,aqua,imageability,liberal,no,9,1,1.73289978347,-,-
2019_Apr_22,110,001,3,source,11,ADJOURNED,LF,target,left,yellow,pleasantness,conservative,no,1,1,1.47971708176,-,-
2019_Apr_22,110,001,3,source,12,HITCHING,LF,target,right,aqua,imageability,conservative,no,9,1,0.95993641566,-,-
2019_Apr_22,110,001,3,source,13,HOBBLE,LF,target,left,yellow,pleasantness,liberal,no,1,1,1.14623930515,-,-
2019_Apr_22,110,001,3,source,14,OVENS,LF,target,left,yellow,pleasantness,conservative,no,1,1,1.10652839701,-,-
2019_Apr_22,110,001,3,source,15,WHATEVER,HF,target,left,yellow,pleasantness,conservative,no,1,1,0.973027597473,-,-
2019_Apr_22,110,001,3,source,16,WRANGLING,LF,target,right,aqua,imageability,liberal,no,9,1,1.74627435283,-,-
2019_Apr_22,110,001,3,source,17,ALIAS,LF,target,right,aqua,imageability,liberal,yes,8,1,0.639858870825,-,-
2019_Apr_22,110,001,3,source,18,HALLMARK,LF,target,right,aqua,imageability,liberal,no,8,1,1.27990984393,-,-
2019_Apr_22,110,001,3,source,19,KIBBUTZIM,LF,target,left,yellow,pleasantness,conservative,no,2,1,2.81256466039,-,-
2019_Apr_22,110,001,3,source,20,TELEPHONE,HF,target,left,yellow,pleasantness,conservative,no,1,1,0.773310545017,-,-
2019_Apr_22,110,001,3,source,21,YEARN,LF,target,left,yellow,pleasantness,liberal,no,8,0,1.11968483496,-,-
2019_Apr_22,110,001,3,source,22,LOOKED,HF,target,left,yellow,pleasantness,conservative,no,8,0,2.59904264152,-,-
2019_Apr_22,110,001,3,source,23,ANSWER,HF,target,right,aqua,imageability,liberal,no,9,1,1.01323489193,-,-
2019_Apr_22,110,001,3,source,24,LODGERS,LF,target,left,yellow,pleasantness,liberal,no,1,1,1.013236725,-,-
2019_Apr_22,110,001,3,source,25,TERMS,HF,target,right,aqua,imageability,conservative,no,9,1,2.55914842978,-,-
2019_Apr_22,110,001,3,source,26,SLOWLY,HF,target,left,yellow,pleasantness,liberal,no,1,1,1.3862043455,-,-
2019_Apr_22,110,001,3,source,27,ARTIFACTS,LF,target,left,yellow,pleasantness,conservative,no,1,1,1.35970926576,-,-
2019_Apr_22,110,001,3,source,28,VACATED,LF,target,right,aqua,imageability,conservative,no,9,1,1.30643241922,-,-
2019_Apr_22,110,001,3,source,29,BUSINESS,HF,target,right,aqua,imageability,conservative,no,8,1,0.893112694379,-,-
2019_Apr_22,110,001,3,source,30,JADED,LF,target,left,yellow,pleasantness,conservative,no,2,1,1.75964598928,-,-
2019_Apr_22,110,001,3,source,31,TOTAL,HF,target,left,yellow,pleasantness,conservative,no,2,1,1.14643030759,-,-
2019_Apr_22,110,001,3,source,32,THRASH,LF,target,right,aqua,imageability,conservative,no,9,1,0.986526080058,-,-
2019_Apr_22,110,001,3,source,33,TWENTY,HF,target,left,yellow,pleasantness,liberal,no,1,1,1.37289796514,-,-
2019_Apr_22,110,001,3,source,34,MODERN,HF,target,right,aqua,imageability,conservative,no,9,1,0.866645110189,-,-
2019_Apr_22,110,001,3,source,35,NEPHEWS,LF,target,right,aqua,imageability,conservative,no,8,1,3.09243234445,-,-
2019_Apr_22,110,001,3,source,36,ROYALS,LF,target,right,aqua,imageability,conservative,no,9,1,2.01290164585,-,-
2019_Apr_22,110,001,3,source,37,BROUGHT,HF,target,right,aqua,imageability,liberal,no,9,1,1.1731673482,-,-
2019_Apr_22,110,001,3,source,38,CLOSE,HF,target,right,aqua,imageability,liberal,no,8,1,2.0395408023,-,-
2019_Apr_22,110,001,3,source,39,ENERGY,HF,target,right,aqua,imageability,liberal,no,8,1,1.42617994413,-,-
2019_Apr_22,110,001,3,source,40,HISTORY,HF,target,left,yellow,pleasantness,liberal,no,1,1,1.62610596273,-,-
2019_Apr_22,110,001,3,source,41,SUMMER,HF,target,left,yellow,pleasantness,liberal,yes,8,0,0.773321543238,-,-
2019_Apr_22,110,001,3,source,42,CHOICE,HF,target,right,aqua,imageability,liberal,no,2,0,1.2262707894,-,-
2019_Apr_22,110,001,3,source,43,SOCIAL,HF,target,right,aqua,imageability,conservative,no,9,1,2.18589742185,-,-
2019_Apr_22,110,001,3,source,44,HONKING,LF,target,right,aqua,imageability,conservative,no,9,1,0.933249966823,-,-
2019_Apr_22,110,001,3,source,45,SORRY,HF,target,left,yellow,pleasantness,conservative,no,1,1,0.83995279565,-,-
2019_Apr_22,110,001,3,source,46,YOUNG,HF,target,right,aqua,imageability,conservative,no,9,1,1.70608758839,-,-
2019_Apr_22,110,001,3,source,47,ROPED,LF,target,right,aqua,imageability,liberal,no,9,1,0.879995116789,-,-
2019_Apr_22,110,001,3,recog,0,JADED,LF,target,left,yellow,pleasantness,conservative,no,z,1,1.29314106982,1,505
2019_Apr_22,110,001,3,recog,1,SIPHON,LF,lure,-,-,-,conservative,no,m,1,0.773368835624,3,508
2019_Apr_22,110,001,3,recog,2,TERMS,HF,target,right,aqua,imageability,conservative,no,z,1,0.839940697595,1,509
2019_Apr_22,110,001,3,recog,3,TELEPHONE,HF,target,left,yellow,pleasantness,conservative,no,z,1,0.733293153171,1,510
2019_Apr_22,110,001,3,recog,4,ROPED,LF,target,right,aqua,imageability,liberal,no,z,1,0.719965876197,3,513
2019_Apr_22,110,001,3,recog,5,TOTAL,HF,target,left,yellow,pleasantness,conservative,no,z,1,0.759977035748,1,514
2019_Apr_22,110,001,3,recog,6,SUMMER,HF,target,left,yellow,pleasantness,liberal,no,z,1,0.679995776678,3,517
2019_Apr_22,110,001,3,recog,7,SOCIAL,HF,target,right,aqua,imageability,conservative,no,z,1,0.640034109121,1,518
2019_Apr_22,110,001,3,recog,8,FELLS,LF,lure,-,-,-,liberal,no,m,1,0.693382810627,1,519
2019_Apr_22,110,001,3,recog,9,HONKING,LF,target,right,aqua,imageability,conservative,no,z,1,0.600089305546,1,520
2019_Apr_22,110,001,3,recog,10,RANGE,HF,lure,-,-,-,liberal,no,m,1,2.05281675421,1,521
2019_Apr_22,110,001,3,recog,11,LODGERS,LF,target,left,yellow,pleasantness,liberal,no,z,1,0.640071136469,3,524
2019_Apr_22,110,001,3,recog,12,LOOKED,HF,target,left,yellow,pleasantness,conservative,no,z,1,0.906401110988,1,525
2019_Apr_22,110,001,3,recog,13,MINISTER,HF,lure,-,-,-,liberal,no,m,1,1.11988610245,1,526
2019_Apr_22,110,001,3,recog,14,ALIAS,LF,target,right,aqua,imageability,liberal,no,z,1,0.746672121808,3,529
2019_Apr_22,110,001,3,recog,15,HISTORY,HF,target,left,yellow,pleasantness,liberal,no,z,1,0.653314093768,3,532
2019_Apr_22,110,001,3,recog,16,BLOOD,HF,lure,-,-,-,liberal,no,m,1,0.706686991383,1,533
2019_Apr_22,110,001,3,recog,17,GROUND,HF,target,left,yellow,pleasantness,liberal,no,z,1,0.599978956685,3,536
2019_Apr_22,110,001,3,recog,18,SEWED,LF,target,left,yellow,pleasantness,liberal,no,z,1,0.586776692886,3,539
2019_Apr_22,110,001,3,recog,19,COILING,LF,lure,-,-,-,conservative,no,m,1,0.999905415287,3,542
2019_Apr_22,110,001,3,recog,20,ADJOURNED,LF,target,left,yellow,pleasantness,conservative,no,z,1,0.666655301815,1,543
2019_Apr_22,110,001,3,recog,21,WRANGLING,LF,target,right,aqua,imageability,liberal,no,z,1,0.759978135524,3,546
2019_Apr_22,110,001,3,recog,22,CENTRAL,HF,lure,-,-,-,conservative,no,m,1,1.0931728913,3,549
2019_Apr_22,110,001,3,recog,23,FISHY,LF,lure,-,-,-,conservative,no,m,1,0.973218599858,3,552
2019_Apr_22,110,001,3,recog,24,CUPID,LF,target,left,yellow,pleasantness,conservative,no,z,1,0.760031293612,1,553
2019_Apr_22,110,001,3,recog,25,ARTIFACTS,LF,target,left,yellow,pleasantness,conservative,yes,z,1,0.94652958482,1,554
2019_Apr_22,110,001,3,recog,26,SPOKE,HF,lure,-,-,-,conservative,no,m,1,2.31937402528,3,557
2019_Apr_22,110,001,3,recog,27,WADDLED,LF,lure,-,-,-,liberal,no,m,1,1.22624439362,1,558
2019_Apr_22,110,001,3,recog,28,OVARIES,LF,lure,-,-,-,liberal,no,m,1,1.21315504482,1,559
2019_Apr_22,110,001,3,recog,29,LANGUAGE,HF,lure,-,-,-,conservative,no,m,1,0.946588608611,3,562
2019_Apr_22,110,001,3,recog,30,YOUNG,HF,target,right,aqua,imageability,conservative,no,z,1,1.26652207674,1,563
2019_Apr_22,110,001,3,recog,31,ANSWER,HF,target,right,aqua,imageability,liberal,no,z,1,1.57299922203,3,566
2019_Apr_22,110,001,3,recog,32,WHATEVER,HF,target,left,yellow,pleasantness,conservative,yes,z,1,0.879952956981,1,567
2019_Apr_22,110,001,3,recog,33,ANCHORAGE,LF,lure,-,-,-,liberal,no,m,1,0.999911281047,1,568
2019_Apr_22,110,001,3,recog,34,VACATED,LF,target,right,aqua,imageability,conservative,no,z,1,0.853299502807,1,569
2019_Apr_22,110,001,3,recog,35,MODERN,HF,target,right,aqua,imageability,conservative,no,z,1,0.826679409947,1,570
2019_Apr_22,110,001,3,recog,36,ENERGY,HF,target,right,aqua,imageability,liberal,no,z,1,1.29308351246,3,573
2019_Apr_22,110,001,3,recog,37,SUPPORT,HF,target,left,yellow,pleasantness,liberal,no,z,1,1.34642598161,3,576
2019_Apr_22,110,001,3,recog,38,PLEASE,HF,lure,-,-,-,conservative,no,m,1,1.03971640725,3,579
2019_Apr_22,110,001,3,recog,39,HALLMARK,LF,target,right,aqua,imageability,liberal,no,z,1,0.85324927757,3,582
2019_Apr_22,110,001,3,recog,40,PURCHASER,LF,lure,-,-,-,liberal,no,m,1,1.01326825318,1,583
2019_Apr_22,110,001,3,recog,41,BUOYANCY,LF,lure,-,-,-,liberal,no,m,1,1.14657951676,1,584
2019_Apr_22,110,001,3,recog,42,FOUND,HF,lure,-,-,-,liberal,no,m,1,0.773377267527,1,585
2019_Apr_22,110,001,3,recog,43,BUILDING,HF,lure,-,-,-,liberal,no,m,1,0.653485299437,1,586
2019_Apr_22,110,001,3,recog,44,YEARN,LF,target,left,yellow,pleasantness,liberal,yes,m,0,0.773365169531,-3,583
2019_Apr_22,110,001,3,recog,45,BLACK,HF,lure,-,-,-,liberal,no,m,1,2.6792478977,1,584
2019_Apr_22,110,001,3,recog,46,UNLESS,HF,lure,-,-,-,liberal,no,m,1,0.89328389999,1,585
2019_Apr_22,110,001,3,recog,47,BUSINESS,HF,target,right,aqua,imageability,conservative,no,z,1,0.79997426417,1,586
2019_Apr_22,110,001,3,recog,48,FATHER,HF,lure,-,-,-,conservative,no,m,1,1.22642403125,3,589
2019_Apr_22,110,001,3,recog,49,MISFITS,LF,lure,-,-,-,liberal,no,m,1,1.27978923009,1,590
2019_Apr_22,110,001,3,recog,50,DWELT,LF,lure,-,-,-,liberal,no,m,1,0.839913202042,1,591
2019_Apr_22,110,001,3,recog,51,TWENTY,HF,target,left,yellow,pleasantness,liberal,no,z,1,0.66648556263,3,594
2019_Apr_22,110,001,3,recog,52,BRING,HF,lure,-,-,-,liberal,no,z,0,0.799949334876,-1,593
2019_Apr_22,110,001,3,recog,53,SLOWLY,HF,target,left,yellow,pleasantness,liberal,no,z,1,1.51971211057,3,596
2019_Apr_22,110,001,3,recog,54,CLOSE,HF,target,right,aqua,imageability,liberal,yes,m,0,3.19903039688,-3,593
2019_Apr_22,110,001,3,recog,55,SENSE,HF,lure,-,-,-,conservative,no,m,1,2.58599105332,3,596
2019_Apr_22,110,001,3,recog,56,SUBJECT,HF,lure,-,-,-,liberal,no,m,1,1.11987987015,1,597
2019_Apr_22,110,001,3,recog,57,SERIOUS,HF,target,right,aqua,imageability,conservative,no,z,1,1.06628700811,1,598
2019_Apr_22,110,001,3,recog,58,ALREADY,HF,lure,-,-,-,conservative,no,z,0,0.799921839265,-3,595
2019_Apr_22,110,001,3,recog,59,OVENS,LF,target,left,yellow,pleasantness,conservative,no,z,1,0.986547343258,1,596
2019_Apr_22,110,001,3,recog,60,TWINE,LF,lure,-,-,-,conservative,no,m,1,0.85328153905,3,599
2019_Apr_22,110,001,3,recog,61,PUPPETS,LF,lure,-,-,-,conservative,no,m,1,0.959921384696,3,602
2019_Apr_22,110,001,3,recog,62,BODICE,LF,lure,-,-,-,liberal,no,m,1,0.839956461685,1,603
2019_Apr_22,110,001,3,recog,63,ANGERS,LF,lure,-,-,-,conservative,no,m,1,1.39973398973,3,606
2019_Apr_22,110,001,3,recog,64,BIBLES,LF,lure,-,-,-,liberal,no,m,1,0.86662348028,1,607
2019_Apr_22,110,001,3,recog,65,CERTAIN,HF,lure,-,-,-,liberal,no,m,1,1.94619927165,1,608
2019_Apr_22,110,001,3,recog,66,USUAL,HF,lure,-,-,-,conservative,no,m,1,1.37310729793,3,611
2019_Apr_22,110,001,3,recog,67,LEECH,LF,lure,-,-,-,conservative,no,m,1,0.826511503779,3,614
2019_Apr_22,110,001,3,recog,68,SORRY,HF,target,left,yellow,pleasantness,conservative,no,z,1,0.679763714201,1,615
2019_Apr_22,110,001,3,recog,69,HEIFERS,LF,lure,-,-,-,conservative,no,z,0,1.53304268705,-3,612
2019_Apr_22,110,001,3,recog,70,LEDGES,LF,lure,-,-,-,liberal,no,m,1,1.38642577629,1,613
2019_Apr_22,110,001,3,recog,71,NUCLEAR,HF,lure,-,-,-,conservative,no,m,1,1.05324275204,3,616
2019_Apr_22,110,001,3,recog,72,HITCHING,LF,target,right,aqua,imageability,conservative,no,z,1,1.58636792569,1,617
2019_Apr_22,110,001,3,recog,73,EJECTED,LF,lure,-,-,-,conservative,no,m,1,1.03991584165,3,620
2019_Apr_22,110,001,3,recog,74,KIBBUTZIM,LF,target,left,yellow,pleasantness,conservative,no,z,1,0.89306210255,1,621
2019_Apr_22,110,001,3,recog,75,LOITERING,LF,target,right,aqua,imageability,liberal,no,z,1,0.759751572157,3,624
2019_Apr_22,110,001,3,recog,76,TYCOONS,LF,lure,-,-,-,conservative,no,m,1,0.640044007567,3,627
2019_Apr_22,110,001,3,recog,77,YEOMAN,LF,target,right,aqua,imageability,liberal,no,z,1,0.799931371119,3,630
2019_Apr_22,110,001,3,recog,78,CHOICE,HF,target,right,aqua,imageability,liberal,no,z,1,0.773335107719,3,633
2019_Apr_22,110,001,3,recog,79,BROUGHT,HF,target,right,aqua,imageability,liberal,no,z,1,0.693365580169,3,636
2019_Apr_22,110,001,3,recog,80,ACTION,HF,target,right,aqua,imageability,liberal,no,z,1,0.653360286262,3,639
2019_Apr_22,110,001,3,recog,81,ROYALS,LF,target,right,aqua,imageability,conservative,no,z,1,1.5863147676,1,640
2019_Apr_22,110,001,3,recog,82,HOBBLE,LF,target,left,yellow,pleasantness,liberal,no,z,1,1.13315838831,3,643
2019_Apr_22,110,001,3,recog,83,NEPHEWS,LF,target,right,aqua,imageability,conservative,no,z,1,0.906648570963,1,644
2019_Apr_22,110,001,3,recog,84,SLUGS,LF,lure,-,-,-,conservative,no,m,1,0.919972548436,3,647
2019_Apr_22,110,001,3,recog,85,MOVED,HF,lure,-,-,-,conservative,no,z,0,2.79921135423,-3,644
2019_Apr_22,110,001,3,recog,86,INVOLVED,HF,lure,-,-,-,conservative,no,m,1,1.02653540653,3,647
2019_Apr_22,110,001,3,recog,87,PROBABLY,HF,lure,-,-,-,liberal,no,m,1,1.812923569,1,648
2019_Apr_22,110,001,3,recog,88,THRASH,LF,target,right,aqua,imageability,conservative,no,z,1,1.01322352712,1,649
2019_Apr_22,110,001,3,recog,89,LULLED,LF,target,left,yellow,pleasantness,liberal,no,z,1,0.813200357486,3,652
2019_Apr_22,110,001,3,recog,90,HIMSELF,HF,lure,-,-,-,conservative,no,m,1,0.946658630623,3,655
2019_Apr_22,110,001,3,recog,91,MAKES,HF,lure,-,-,-,liberal,no,m,1,0.840006686922,1,656
2019_Apr_22,110,001,3,recog,92,ALDER,LF,target,left,yellow,pleasantness,liberal,no,z,1,0.733289487136,3,659
2019_Apr_22,110,001,3,recog,93,URCHIN,LF,lure,-,-,-,liberal,no,m,1,1.25314017525,1,660
2019_Apr_22,110,001,3,recog,94,WRITE,HF,target,left,yellow,pleasantness,conservative,no,z,1,0.826657413505,1,661
2019_Apr_22,110,001,3,recog,95,LOVELIEST,LF,lure,-,-,-,conservative,no,m,1,0.9199868461,3,664
2019_Apr_22,110,001,4,source,0,LAUNCHER,LF,target,right,aqua,imageability,liberal,yes,8,1,1.70604799472,-,-
2019_Apr_22,110,001,4,source,1,OBVIOUSLY,HF,target,left,yellow,pleasantness,liberal,no,1,1,2.78584485035,-,-
2019_Apr_22,110,001,4,source,2,MOSAICS,LF,target,right,aqua,imageability,liberal,no,9,1,0.919932221645,-,-
2019_Apr_22,110,001,4,source,3,DONATE,LF,target,right,aqua,imageability,conservative,no,1,0,1.27958612959,-,-
2019_Apr_22,110,001,4,source,4,PIQUE,LF,target,left,yellow,pleasantness,liberal,no,2,1,0.973205035436,-,-
2019_Apr_22,110,001,4,source,5,CAPITAL,HF,target,right,aqua,imageability,liberal,no,9,1,1.06658762612,-,-
2019_Apr_22,110,001,4,source,6,BLIGHTED,LF,target,right,aqua,imageability,liberal,no,8,1,1.1466909654,-,-
2019_Apr_22,110,001,4,source,7,BLEACH,LF,target,right,aqua,imageability,liberal,no,9,1,0.78668804717,-,-
2019_Apr_22,110,001,4,source,8,AREAS,HF,target,right,aqua,imageability,liberal,no,9,1,0.773235023895,-,-
2019_Apr_22,110,001,4,source,9,OPTIC,LF,target,left,yellow,pleasantness,conservative,no,1,1,0.85329730314,-,-
2019_Apr_22,110,001,4,source,10,DEVELOPED,HF,target,left,yellow,pleasantness,liberal,no,1,1,1.42640467442,-,-
2019_Apr_22,110,001,4,source,11,OOZED,LF,target,right,aqua,imageability,liberal,no,9,1,1.01325322228,-,-
2019_Apr_22,110,001,4,source,12,MAYBE,HF,target,right,aqua,imageability,liberal,no,9,1,0.959930183308,-,-
2019_Apr_22,110,001,4,source,13,FIANCE,LF,target,left,yellow,pleasantness,conservative,no,1,1,0.826607554918,-,-
2019_Apr_22,110,001,4,source,14,INDEED,HF,target,left,yellow,pleasantness,liberal,no,1,1,2.30610100616,-,-
2019_Apr_22,110,001,4,source,15,TOYED,LF,target,right,aqua,imageability,conservative,no,9,1,0.893279134121,-,-
2019_Apr_22,110,001,4,source,16,THEORY,HF,target,right,aqua,imageability,conservative,no,8,1,1.15997278306,-,-
2019_Apr_22,110,001,4,source,17,NUMBER,HF,target,left,yellow,pleasantness,conservative,no,1,1,1.01324955624,-,-
2019_Apr_22,110,001,4,source,18,CASES,HF,target,right,aqua,imageability,conservative,no,9,1,0.853280439216,-,-
2019_Apr_22,110,001,4,source,19,HOWEVER,HF,target,left,yellow,pleasantness,liberal,no,1,1,1.11985860683,-,-
2019_Apr_22,110,001,4,source,20,FICKLE,LF,target,right,aqua,imageability,liberal,yes,8,1,0.706682225515,-,-
2019_Apr_22,110,001,4,source,21,LARGE,HF,target,right,aqua,imageability,liberal,no,9,1,1.10625967383,-,-
2019_Apr_22,110,001,4,source,22,SWEARS,LF,target,right,aqua,imageability,conservative,no,9,1,2.23940266465,-,-
2019_Apr_22,110,001,4,source,23,AIDING,LF,target,left,yellow,pleasantness,conservative,no,1,1,0.95970875246,-,-
2019_Apr_22,110,001,4,source,24,HOEING,LF,target,right,aqua,imageability,conservative,yes,8,1,0.653428841848,-,-
2019_Apr_22,110,001,4,source,25,SODDING,LF,target,left,yellow,pleasantness,liberal,no,1,1,0.973222999193,-,-
2019_Apr_22,110,001,4,source,26,QUOTAS,LF,target,left,yellow,pleasantness,liberal,no,1,1,1.03978716244,-,-
2019_Apr_22,110,001,4,source,27,SUDDENLY,HF,target,right,aqua,imageability,liberal,no,8,1,0.999637791945,-,-
2019_Apr_22,110,001,4,source,28,WITHIN,HF,target,right,aqua,imageability,conservative,no,8,1,1.17316074925,-,-
2019_Apr_22,110,001,4,source,29,TICKLE,LF,target,left,yellow,pleasantness,liberal,no,1,1,0.680020705971,-,-
2019_Apr_22,110,001,4,source,30,RUNNING,HF,target,right,aqua,imageability,liberal,no,9,1,0.773424559913,-,-
2019_Apr_22,110,001,4,source,31,FOLLOWED,HF,target,left,yellow,pleasantness,liberal,no,2,1,1.61298068642,-,-
2019_Apr_22,110,001,4,source,32,SINCE,HF,target,left,yellow,pleasantness,conservative,no,8,0,1.07981885201,-,-
2019_Apr_22,110,001,4,source,33,FANATICS,LF,target,left,yellow,pleasantness,liberal,yes,2,1,0.720016467967,-,-
2019_Apr_22,110,001,4,source,34,GNOMES,LF,target,left,yellow,pleasantness,conservative,no,1,1,1.29312750528,-,-
2019_Apr_22,110,001,4,source,35,ROCKER,LF,target,left,yellow,pleasantness,liberal,no,1,1,2.03950487479,-,-
2019_Apr_22,110,001,4,source,36,INTEREST,HF,target,left,yellow,pleasantness,liberal,no,2,1,1.46642829862,-,-
2019_Apr_22,110,001,4,source,37,EXACTLY,HF,target,right,aqua,imageability,conservative,no,8,1,0.813090008742,-,-
2019_Apr_22,110,001,4,source,38,WHITE,HF,target,right,aqua,imageability,conservative,no,9,1,0.933341985277,-,-
2019_Apr_22,110,001,4,source,39,SHALL,HF,target,right,aqua,imageability,conservative,no,2,0,0.986521680781,-,-
2019_Apr_22,110,001,4,source,40,HEALTH,HF,target,left,yellow,pleasantness,conservative,no,1,1,0.746506048657,-,-
2019_Apr_22,110,001,4,source,41,PESTERED,LF,target,left,yellow,pleasantness,conservative,no,1,1,1.41307116509,-,-
2019_Apr_22,110,001,4,source,42,GLASS,HF,target,left,yellow,pleasantness,conservative,no,1,1,0.666438270302,-,-
2019_Apr_22,110,001,4,source,43,FILAMENTS,LF,target,right,aqua,imageability,conservative,no,9,1,0.999949408171,-,-
2019_Apr_22,110,001,4,source,44,NORTH,HF,target,left,yellow,pleasantness,conservative,no,1,1,1.41307409795,-,-
2019_Apr_22,110,001,4,source,45,GEYSER,LF,target,right,aqua,imageability,conservative,no,9,1,0.933300192002,-,-
2019_Apr_22,110,001,4,source,46,FAMILY,HF,target,left,yellow,pleasantness,conservative,no,1,1,0.759916912124,-,-
2019_Apr_22,110,001,4,source,47,DOLPHIN,LF,target,left,yellow,pleasantness,conservative,no,1,1,0.799961799523,-,-
2019_Apr_22,110,001,4,recog,0,SINCE,HF,target,left,yellow,pleasantness,conservative,no,z,1,1.50635110575,1,665
2019_Apr_22,110,001,4,recog,1,DEVELOPED,HF,target,left,yellow,pleasantness,liberal,no,z,1,0.680027671566,3,668
2019_Apr_22,110,001,4,recog,2,AFRAID,HF,lure,-,-,-,conservative,no,m,1,0.773345739348,3,671
2019_Apr_22,110,001,4,recog,3,CRACKLE,LF,lure,-,-,-,liberal,no,m,1,0.799931737711,1,672
2019_Apr_22,110,001,4,recog,4,PIQUE,LF,target,left,yellow,pleasantness,liberal,no,z,1,0.640063804341,3,675
2019_Apr_22,110,001,4,recog,5,SECOND,HF,lure,-,-,-,conservative,no,m,1,0.813291642757,3,678
2019_Apr_22,110,001,4,recog,6,GLASS,HF,target,left,yellow,pleasantness,conservative,no,z,1,0.613431246835,1,679
2019_Apr_22,110,001,4,recog,7,GEYSER,LF,target,right,aqua,imageability,conservative,no,z,1,0.81331107294,1,680
2019_Apr_22,110,001,4,recog,8,LAUNCHER,LF,target,right,aqua,imageability,liberal,no,z,1,0.680073130818,3,683
2019_Apr_22,110,001,4,recog,9,OPTIC,LF,target,left,yellow,pleasantness,conservative,no,z,1,0.773285249074,1,684
2019_Apr_22,110,001,4,recog,10,SUDDENLY,HF,target,right,aqua,imageability,liberal,no,z,1,0.639989383053,3,687
2019_Apr_22,110,001,4,recog,11,ANAEMIC,LF,lure,-,-,-,liberal,no,m,1,1.30625681434,1,688
2019_Apr_22,110,001,4,recog,12,TICKLE,LF,target,left,yellow,pleasantness,liberal,no,z,1,0.560189228039,3,691
2019_Apr_22,110,001,4,recog,13,AIDING,LF,target,left,yellow,pleasantness,conservative,no,z,1,0.746661856829,1,692
2019_Apr_22,110,001,4,recog,14,MAYBE,HF,target,right,aqua,imageability,liberal,no,z,1,0.666770049953,3,695
2019_Apr_22,110,001,4,recog,15,INCLUDING,HF,lure,-,-,-,liberal,no,m,1,0.786647353787,1,696
2019_Apr_22,110,001,4,recog,16,WREATH,LF,lure,-,-,-,conservative,no,m,1,0.879936092999,3,699
2019_Apr_22,110,001,4,recog,17,BELIEVE,HF,lure,-,-,-,liberal,yes,m,1,1.14634965395,1,700
2019_Apr_22,110,001,4,recog,18,FAMILY,HF,target,left,yellow,pleasantness,conservative,no,z,1,0.626752658107,1,701
2019_Apr_22,110,001,4,recog,19,FOOLHARDY,LF,lure,-,-,-,liberal,no,m,1,1.06653226842,1,702
2019_Apr_22,110,001,4,recog,20,SOJOURN,LF,lure,-,-,-,liberal,no,m,1,0.879911896889,1,703
2019_Apr_22,110,001,4,recog,21,MILES,HF,lure,-,-,-,conservative,no,m,1,0.813309606456,3,706
2019_Apr_22,110,001,4,recog,22,APART,HF,lure,-,-,-,conservative,yes,z,0,0.799708473845,-3,703
2019_Apr_22,110,001,4,recog,23,EASILY,HF,lure,-,-,-,conservative,no,m,1,2.63926350052,3,706
2019_Apr_22,110,001,4,recog,24,HEALTH,HF,target,left,yellow,pleasantness,conservative,no,z,1,0.586762761814,1,707
2019_Apr_22,110,001,4,recog,25,MOSAICS,LF,target,right,aqua,imageability,liberal,no,z,1,0.906603844778,3,710
2019_Apr_22,110,001,4,recog,26,OOZED,LF,target,right,aqua,imageability,liberal,no,z,1,0.746690085507,3,713
2019_Apr_22,110,001,4,recog,27,NATIONAL,HF,lure,-,-,-,liberal,no,m,1,1.01322755974,1,714
2019_Apr_22,110,001,4,recog,28,INDEED,HF,target,left,yellow,pleasantness,liberal,yes,m,0,2.70589988539,-3,711
2019_Apr_22,110,001,4,recog,29,MYSELF,HF,lure,-,-,-,conservative,no,m,1,3.06572316599,3,714
2019_Apr_22,110,001,4,recog,30,CAUGHT,HF,lure,-,-,-,liberal,no,m,1,0.813309606514,1,715
2019_Apr_22,110,001,4,recog,31,HOWEVER,HF,target,left,yellow,pleasantness,liberal,no,z,1,0.573458947649,3,718
2019_Apr_22,110,001,4,recog,32,PNEUMATIC,LF,lure,-,-,-,conservative,no,m,1,0.719997037842,3,721
2019_Apr_22,110,001,4,recog,33,INTEREST,HF,target,left,yellow,pleasantness,liberal,no,z,1,0.573484243592,3,724
2019_Apr_22,110,001,4,recog,34,THEORY,HF,target,right,aqua,imageability,conservative,no,z,1,0.66668353061,1,725
2019_Apr_22,110,001,4,recog,35,STRAIGHT,HF,lure,-,-,-,conservative,no,m,1,0.759994999447,3,728
2019_Apr_22,110,001,4,recog,36,FIANCE,LF,target,left,yellow,pleasantness,conservative,no,z,1,0.786610693031,1,729
2019_Apr_22,110,001,4,recog,37,EXACTLY,HF,target,right,aqua,imageability,conservative,no,z,1,0.640122828132,1,730
2019_Apr_22,110,001,4,recog,38,CASES,HF,target,right,aqua,imageability,conservative,no,z,1,1.39978678117,1,731
2019_Apr_22,110,001,4,recog,39,STAFF,HF,lure,-,-,-,conservative,no,m,1,1.14625286963,3,734
2019_Apr_22,110,001,4,recog,40,FICKLE,LF,target,right,aqua,imageability,liberal,no,z,1,0.679825670843,3,737
2019_Apr_22,110,001,4,recog,41,UPROOTED,LF,lure,-,-,-,conservative,no,m,1,1.0531492671,3,740
2019_Apr_22,110,001,4,recog,42,TANGIER,LF,lure,-,-,-,conservative,no,m,1,2.1594419356,3,743
2019_Apr_22,110,001,4,recog,43,OBVIOUSLY,HF,target,left,yellow,pleasantness,liberal,no,z,1,0.626768788788,3,746
2019_Apr_22,110,001,4,recog,44,EAVES,LF,lure,-,-,-,liberal,no,m,1,0.839978824777,1,747
2019_Apr_22,110,001,4,recog,45,BESOTTED,LF,lure,-,-,-,liberal,no,m,1,0.706486090552,1,748
2019_Apr_22,110,001,4,recog,46,CORNER,HF,lure,-,-,-,conservative,no,m,1,0.786630856455,3,751
2019_Apr_22,110,001,4,recog,47,TULIPS,LF,lure,-,-,-,conservative,no,m,1,1.5463897608,3,754
2019_Apr_22,110,001,4,recog,48,ROCKER,LF,target,left,yellow,pleasantness,liberal,no,z,1,0.760113047028,3,757
2019_Apr_22,110,001,4,recog,49,FILAMENTS,LF,target,right,aqua,imageability,conservative,no,z,1,0.746671021916,1,758
2019_Apr_22,110,001,4,recog,50,HURDLES,LF,lure,-,-,-,liberal,no,m,1,0.760019562149,1,759
2019_Apr_22,110,001,4,recog,51,CAPITAL,HF,target,right,aqua,imageability,liberal,no,z,1,0.613415849337,3,762
2019_Apr_22,110,001,4,recog,52,TOUSLED,LF,lure,-,-,-,liberal,no,m,1,0.706836200552,1,763
2019_Apr_22,110,001,4,recog,53,HOEING,LF,target,right,aqua,imageability,conservative,no,z,1,0.799964732374,1,764
2019_Apr_22,110,001,4,recog,54,JOCKEYS,LF,lure,-,-,-,conservative,no,m,1,0.853318199748,3,767
2019_Apr_22,110,001,4,recog,55,BLIGHTED,LF,target,right,aqua,imageability,liberal,no,z,1,0.799745134544,3,770
2019_Apr_22,110,001,4,recog,56,VEGAN,LF,lure,-,-,-,conservative,no,m,1,0.773296613945,3,773
2019_Apr_22,110,001,4,recog,57,TOYED,LF,target,right,aqua,imageability,conservative,no,z,1,0.866570688901,1,774
2019_Apr_22,110,001,4,recog,58,SODDING,LF,target,left,yellow,pleasantness,liberal,no,z,1,0.946392473707,3,777
2019_Apr_22,110,001,4,recog,59,RUNNING,HF,target,right,aqua,imageability,liberal,no,z,1,0.720051662298,3,780
2019_Apr_22,110,001,4,recog,60,DOLPHIN,LF,target,left,yellow,pleasantness,conservative,no,z,1,0.733607335656,1,781
2019_Apr_22,110,001,4,recog,61,FAILINGS,LF,lure,-,-,-,conservative,no,m,1,0.773350505217,3,784
2019_Apr_22,110,001,4,recog,62,NORTH,HF,target,left,yellow,pleasantness,conservative,no,z,1,0.733329813869,1,785
2019_Apr_22,110,001,4,recog,63,WITHIN,HF,target,right,aqua,imageability,conservative,no,z,1,0.786652852898,1,786
2019_Apr_22,110,001,4,recog,64,ORCHARDS,LF,lure,-,-,-,conservative,no,m,1,0.906586614263,3,789
2019_Apr_22,110,001,4,recog,65,BUCKED,LF,lure,-,-,-,liberal,no,m,1,1.10655919206,1,790
2019_Apr_22,110,001,4,recog,66,WHOLE,HF,lure,-,-,-,liberal,no,m,1,0.786657252174,1,791
2019_Apr_22,110,001,4,recog,67,PESTERED,LF,target,left,yellow,pleasantness,conservative,yes,z,1,2.21283059736,1,792
2019_Apr_22,110,001,4,recog,68,AVAILABLE,HF,lure,-,-,-,liberal,no,m,1,0.919996377954,1,793
2019_Apr_22,110,001,4,recog,69,ADDED,HF,lure,-,-,-,liberal,no,m,1,0.746776971442,1,794
2019_Apr_22,110,001,4,recog,70,SHALL,HF,target,right,aqua,imageability,conservative,no,z,1,1.09315786039,1,795
2019_Apr_22,110,001,4,recog,71,ALLOWED,HF,lure,-,-,-,liberal,no,m,1,0.733357309422,1,796
2019_Apr_22,110,001,4,recog,72,BREAK,HF,lure,-,-,-,conservative,no,m,1,0.773296247353,3,799
2019_Apr_22,110,001,4,recog,73,RIVER,HF,lure,-,-,-,liberal,no,m,1,1.23968238605,1,800
2019_Apr_22,110,001,4,recog,74,NUMBER,HF,target,left,yellow,pleasantness,conservative,no,z,1,0.759970070154,1,801
2019_Apr_22,110,001,4,recog,75,LARGE,HF,target,right,aqua,imageability,liberal,no,z,1,2.06612900033,3,804
2019_Apr_22,110,001,4,recog,76,LIKELY,HF,lure,-,-,-,conservative,no,m,1,0.733336412872,3,807
2019_Apr_22,110,001,4,recog,77,WHITE,HF,target,right,aqua,imageability,conservative,no,z,1,0.759951006621,1,808
2019_Apr_22,110,001,4,recog,78,COVER,HF,lure,-,-,-,liberal,no,m,1,1.61299315107,1,809
2019_Apr_22,110,001,4,recog,79,SHORT,HF,lure,-,-,-,conservative,no,z,0,0.986555408686,-3,806
2019_Apr_22,110,001,4,recog,80,WAITING,HF,lure,-,-,-,liberal,no,m,1,2.11946230428,1,807
2019_Apr_22,110,001,4,recog,81,DONATE,LF,target,right,aqua,imageability,conservative,no,z,1,0.800003226148,1,808
2019_Apr_22,110,001,4,recog,82,FABLE,LF,lure,-,-,-,liberal,no,m,1,0.799978663505,1,809
2019_Apr_22,110,001,4,recog,83,ASTERN,LF,lure,-,-,-,liberal,no,m,1,1.2797884969,1,810
2019_Apr_22,110,001,4,recog,84,FANATICS,LF,target,left,yellow,pleasantness,liberal,no,z,1,0.7199963046,3,813
2019_Apr_22,110,001,4,recog,85,BLEACH,LF,target,right,aqua,imageability,liberal,no,z,1,0.613379555172,3,816
2019_Apr_22,110,001,4,recog,86,HAVING,HF,lure,-,-,-,liberal,no,m,1,0.666707726719,1,817
2019_Apr_22,110,001,4,recog,87,BIRCHES,LF,lure,-,-,-,conservative,no,m,1,1.62637211964,3,820
2019_Apr_22,110,001,4,recog,88,QUOTAS,LF,target,left,yellow,pleasantness,liberal,no,z,1,0.786602261069,3,823
2019_Apr_22,110,001,4,recog,89,FOLLOWED,HF,target,left,yellow,pleasantness,liberal,no,z,1,0.64003154292,3,826
2019_Apr_22,110,001,4,recog,90,MOCCASINS,LF,lure,-,-,-,liberal,no,m,1,0.759966770711,1,827
2019_Apr_22,110,001,4,recog,91,GNOMES,LF,target,left,yellow,pleasantness,conservative,no,z,1,0.746415129979,1,828
2019_Apr_22,110,001,4,recog,92,ABATED,LF,lure,-,-,-,conservative,no,z,0,1.25317646936,-3,825
2019_Apr_22,110,001,4,recog,93,SWEARS,LF,target,right,aqua,imageability,conservative,no,z,1,1.43969712366,1,826
2019_Apr_22,110,001,4,recog,94,OBSCURELY,LF,lure,-,-,-,conservative,no,m,1,0.986540744372,3,829
2019_Apr_22,110,001,4,recog,95,AREAS,HF,target,right,aqua,imageability,liberal,no,z,1,0.986578138312,3,832
