date,subj,session,cycle,task,trial,item,wf,type,source,colour,encoding,bias,null,response,corr,rt,points,total
2019_Apr_22,111,001,0,source,0,FATHER,HF,target,right,yellow,pleasantness,liberal,no,9,1,7.68274509171,-,-
2019_Apr_22,111,001,0,source,1,HOURS,HF,target,left,aqua,imageability,conservative,no,9,0,3.65926699598,-,-
2019_Apr_22,111,001,0,source,2,WAITING,HF,target,right,yellow,pleasantness,conservative,no,9,1,2.88272426857,-,-
2019_Apr_22,111,001,0,source,3,PUNCTUAL,LF,target,left,aqua,imageability,liberal,no,9,0,2.18859280267,-,-
2019_Apr_22,111,001,0,source,4,AROUND,HF,target,left,aqua,imageability,conservative,no,1,1,4.68281621302,-,-
2019_Apr_22,111,001,0,source,5,LAGER,LF,target,left,aqua,imageability,conservative,no,1,1,1.78863848161,-,-
2019_Apr_22,111,001,0,source,6,QUESTION,HF,target,left,aqua,imageability,conservative,yes,9,0,4.36483726052,-,-
2019_Apr_22,111,001,0,source,7,THANK,HF,target,left,aqua,imageability,conservative,no,9,0,4.21215961674,-,-
2019_Apr_22,111,001,0,source,8,FIELD,HF,target,right,yellow,pleasantness,conservative,yes,9,1,1.75306133223,-,-
2019_Apr_22,111,001,0,source,9,SIGNPOST,LF,target,right,yellow,pleasantness,conservative,no,9,1,2.02386779649,-,-
2019_Apr_22,111,001,0,source,10,WRITE,HF,target,right,yellow,pleasantness,liberal,no,9,1,1.10615807846,-,-
2019_Apr_22,111,001,0,source,11,FURTHER,HF,target,left,aqua,imageability,conservative,no,9,0,2.03561307664,-,-
2019_Apr_22,111,001,0,source,12,ANTELOPES,LF,target,right,yellow,pleasantness,liberal,no,9,1,0.753270663488,-,-
2019_Apr_22,111,001,0,source,13,EXPECT,HF,target,right,yellow,pleasantness,liberal,no,9,1,1.3647096821,-,-
2019_Apr_22,111,001,0,source,14,LODGERS,LF,target,left,aqua,imageability,liberal,no,1,1,2.08261289407,-,-
2019_Apr_22,111,001,0,source,15,UNION,HF,target,right,yellow,pleasantness,liberal,no,9,1,1.16503442051,-,-
2019_Apr_22,111,001,0,source,16,MOVED,HF,target,right,yellow,pleasantness,conservative,no,9,1,0.906162037794,-,-
2019_Apr_22,111,001,0,source,17,COVER,HF,target,left,aqua,imageability,liberal,no,9,0,0.694504669444,-,-
2019_Apr_22,111,001,0,source,18,DOCTOR,HF,target,left,aqua,imageability,liberal,no,1,1,2.56491798687,-,-
2019_Apr_22,111,001,0,source,19,WOMAN,HF,target,right,yellow,pleasantness,conservative,no,1,0,3.32978582222,-,-
2019_Apr_22,111,001,0,source,20,CUPID,LF,target,right,yellow,pleasantness,liberal,no,9,1,1.68243384436,-,-
2019_Apr_22,111,001,0,source,21,PHOBIC,LF,target,right,yellow,pleasantness,conservative,no,9,1,1.49449909705,-,-
2019_Apr_22,111,001,0,source,22,EITHER,HF,target,right,yellow,pleasantness,liberal,no,9,1,0.741236498867,-,-
2019_Apr_22,111,001,0,source,23,YEARN,LF,target,right,yellow,pleasantness,liberal,no,9,1,0.659121820529,-,-
2019_Apr_22,111,001,0,source,24,CANNOT,HF,target,left,aqua,imageability,liberal,no,1,1,1.94143600512,-,-
2019_Apr_22,111,001,0,source,25,GOVERNS,LF,target,right,yellow,pleasantness,conservative,no,3,0,3.89452600583,-,-
2019_Apr_22,111,001,0,source,26,ALTHOUGH,HF,target,left,aqua,imageability,liberal,yes,9,0,2.28273064749,-,-
2019_Apr_22,111,001,0,source,27,RAPACIOUS,LF,target,left,aqua,imageability,liberal,no,1,1,3.1884296636,-,-
2019_Apr_22,111,001,0,source,28,UDDER,LF,target,left,aqua,imageability,liberal,no,1,1,1.3059077608,-,-
2019_Apr_22,111,001,0,source,29,ODDER,LF,target,left,aqua,imageability,conservative,no,1,1,1.10615221279,-,-
2019_Apr_22,111,001,0,source,30,ABLAZE,LF,target,right,yellow,pleasantness,liberal,no,9,1,2.60034409514,-,-
2019_Apr_22,111,001,0,source,31,HOMESTEAD,LF,target,left,aqua,imageability,liberal,no,1,1,1.74157230874,-,-
2019_Apr_22,111,001,0,source,32,SPACE,HF,target,left,aqua,imageability,conservative,no,1,1,2.34155163223,-,-
2019_Apr_22,111,001,0,source,33,TERMS,HF,target,left,aqua,imageability,liberal,no,1,1,2.44747801655,-,-
2019_Apr_22,111,001,0,source,34,HERSELF,HF,target,right,yellow,pleasantness,conservative,no,9,1,1.55318113863,-,-
2019_Apr_22,111,001,0,source,35,EJECTED,LF,target,left,aqua,imageability,conservative,no,1,1,1.44743622362,-,-
2019_Apr_22,111,001,0,source,36,DILATED,LF,target,left,aqua,imageability,liberal,no,1,1,1.90627128598,-,-
2019_Apr_22,111,001,0,source,37,ASPIRED,LF,target,left,aqua,imageability,conservative,no,9,0,1.62388561348,-,-
2019_Apr_22,111,001,0,source,38,TRUTH,HF,target,left,aqua,imageability,liberal,no,1,1,1.64752978113,-,-
2019_Apr_22,111,001,0,source,39,HOODLUMS,LF,target,right,yellow,pleasantness,liberal,no,9,1,1.23566520782,-,-
2019_Apr_22,111,001,0,source,40,AHEAD,HF,target,right,yellow,pleasantness,conservative,no,2,0,3.28278087233,-,-
2019_Apr_22,111,001,0,source,41,GUSHED,LF,target,right,yellow,pleasantness,conservative,no,9,1,1.27092267794,-,-
2019_Apr_22,111,001,0,source,42,AMEND,LF,target,right,yellow,pleasantness,conservative,yes,9,1,1.18851801532,-,-
2019_Apr_22,111,001,0,source,43,BESOTTED,LF,target,left,aqua,imageability,conservative,no,1,1,3.7886300497,-,-
2019_Apr_22,111,001,0,source,44,CALLED,HF,target,right,yellow,pleasantness,liberal,no,3,0,2.41185944084,-,-
2019_Apr_22,111,001,0,source,45,VANDALS,LF,target,right,yellow,pleasantness,conservative,no,9,1,3.423904237,-,-
2019_Apr_22,111,001,0,source,46,HASSLE,LF,target,right,yellow,pleasantness,liberal,no,7,1,4.50625134269,-,-
2019_Apr_22,111,001,0,source,47,AUBURN,LF,target,left,aqua,imageability,conservative,no,7,0,2.21211929022,-,-
2019_Apr_22,111,001,0,recog,0,GANGWAY,LF,lure,-,-,-,liberal,no,m,1,3.81207111837,1,1
2019_Apr_22,111,001,0,recog,1,DAFFODILS,LF,lure,-,-,-,liberal,no,m,1,1.5532339297,1,2
2019_Apr_22,111,001,0,recog,2,BUNGALOWS,LF,lure,-,-,-,liberal,no,m,1,1.8121990634,1,3
2019_Apr_22,111,001,0,recog,3,CUPID,LF,target,right,yellow,pleasantness,liberal,no,z,1,1.76495692029,3,6
2019_Apr_22,111,001,0,recog,4,OPENED,HF,lure,-,-,-,conservative,no,m,1,1.49440487965,3,9
2019_Apr_22,111,001,0,recog,5,DOCTOR,HF,target,left,aqua,imageability,liberal,no,z,1,1.08269171407,3,12
2019_Apr_22,111,001,0,recog,6,MOGUL,LF,lure,-,-,-,liberal,no,m,1,1.10626659344,1,13
2019_Apr_22,111,001,0,recog,7,TRUTH,HF,target,left,aqua,imageability,liberal,no,z,1,1.12966037011,3,16
2019_Apr_22,111,001,0,recog,8,EXPECT,HF,target,right,yellow,pleasantness,liberal,no,z,1,0.788503204491,3,19
2019_Apr_22,111,001,0,recog,9,HIMSELF,HF,lure,-,-,-,conservative,no,m,1,1.57687553112,3,22
2019_Apr_22,111,001,0,recog,10,EMACIATED,LF,lure,-,-,-,conservative,no,m,1,2.63561402981,3,25
2019_Apr_22,111,001,0,recog,11,AUBURN,LF,target,left,aqua,imageability,conservative,no,z,1,1.08263599017,1,26
2019_Apr_22,111,001,0,recog,12,CHIEF,HF,lure,-,-,-,liberal,no,m,1,0.835544814854,1,27
2019_Apr_22,111,001,0,recog,13,CUISINE,LF,lure,-,-,-,conservative,no,m,1,2.03556065218,3,30
2019_Apr_22,111,001,0,recog,14,ABLAZE,LF,target,right,yellow,pleasantness,liberal,no,z,1,1.04734625884,3,33
2019_Apr_22,111,001,0,recog,15,HERSELF,HF,target,right,yellow,pleasantness,conservative,no,z,1,1.30612882341,1,34
2019_Apr_22,111,001,0,recog,16,COVER,HF,target,left,aqua,imageability,liberal,no,z,1,1.56497920985,3,37
2019_Apr_22,111,001,0,recog,17,FIELD,HF,target,right,yellow,pleasantness,conservative,no,z,1,2.10625632851,1,38
2019_Apr_22,111,001,0,recog,18,HOURS,HF,target,left,aqua,imageability,conservative,no,z,1,1.71802712435,1,39
2019_Apr_22,111,001,0,recog,19,SADDER,LF,lure,-,-,-,liberal,no,m,1,0.882860645503,1,40
2019_Apr_22,111,001,0,recog,20,KNUCKLE,LF,lure,-,-,-,conservative,no,m,1,1.05925137862,3,43
2019_Apr_22,111,001,0,recog,21,DURING,HF,lure,-,-,-,conservative,no,m,1,1.27091461264,3,46
2019_Apr_22,111,001,0,recog,22,FURTHER,HF,target,left,aqua,imageability,conservative,no,z,1,1.90614774021,1,47
2019_Apr_22,111,001,0,recog,23,SCHOOL,HF,lure,-,-,-,conservative,no,m,1,4.12996061933,3,50
2019_Apr_22,111,001,0,recog,24,UDDER,LF,target,left,aqua,imageability,liberal,no,z,1,1.28289341996,3,53
2019_Apr_22,111,001,0,recog,25,NECESSARY,HF,lure,-,-,-,liberal,no,m,1,2.12970766211,1,54
2019_Apr_22,111,001,0,recog,26,YACHTING,LF,lure,-,-,-,conservative,no,m,1,0.670592880391,3,57
2019_Apr_22,111,001,0,recog,27,EJECTED,LF,target,left,aqua,imageability,conservative,no,z,1,1.01200153681,1,58
2019_Apr_22,111,001,0,recog,28,FATHER,HF,target,right,yellow,pleasantness,liberal,no,z,1,0.894372031877,3,61
2019_Apr_22,111,001,0,recog,29,EITHER,HF,target,right,yellow,pleasantness,liberal,no,z,1,0.729751874633,3,64
2019_Apr_22,111,001,0,recog,30,FEIGNED,LF,lure,-,-,-,conservative,no,m,1,0.694347396044,3,67
2019_Apr_22,111,001,0,recog,31,LODGERS,LF,target,left,aqua,imageability,liberal,no,z,1,0.906177801794,3,70
2019_Apr_22,111,001,0,recog,32,SIGNPOST,LF,target,right,yellow,pleasantness,conservative,no,z,1,0.729639327002,1,71
2019_Apr_22,111,001,0,recog,33,NEBULOUS,LF,lure,-,-,-,conservative,no,m,1,0.600456642766,3,74
2019_Apr_22,111,001,0,recog,34,FUTURE,HF,lure,-,-,-,liberal,no,m,1,0.964999886353,1,75
2019_Apr_22,111,001,0,recog,35,TERMS,HF,target,left,aqua,imageability,liberal,no,z,1,0.729686252399,3,78
2019_Apr_22,111,001,0,recog,36,SEEMED,HF,lure,-,-,-,conservative,no,m,1,0.788531066446,3,81
2019_Apr_22,111,001,0,recog,37,FOUND,HF,lure,-,-,-,conservative,no,m,1,1.23559555294,3,84
2019_Apr_22,111,001,0,recog,38,GUSHED,LF,target,right,yellow,pleasantness,conservative,no,z,1,0.988447920508,1,85
2019_Apr_22,111,001,0,recog,39,YEARN,LF,target,right,yellow,pleasantness,liberal,no,z,1,0.917925281571,3,88
2019_Apr_22,111,001,0,recog,40,PUNCTUAL,LF,target,left,aqua,imageability,liberal,no,z,1,1.75321787242,3,91
2019_Apr_22,111,001,0,recog,41,CANNOT,HF,target,left,aqua,imageability,liberal,no,z,1,0.753267364047,3,94
2019_Apr_22,111,001,0,recog,42,RAPACIOUS,LF,target,left,aqua,imageability,liberal,no,z,1,0.682621545943,3,97
2019_Apr_22,111,001,0,recog,43,DOUBT,HF,lure,-,-,-,liberal,no,m,1,0.835628767321,1,98
2019_Apr_22,111,001,0,recog,44,RETURN,HF,lure,-,-,-,conservative,no,m,1,1.15332983348,3,101
2019_Apr_22,111,001,0,recog,45,AHEAD,HF,target,right,yellow,pleasantness,conservative,no,z,1,1.77672676295,1,102
2019_Apr_22,111,001,0,recog,46,WRITE,HF,target,right,yellow,pleasantness,liberal,yes,z,1,4.21215008502,3,105
2019_Apr_22,111,001,0,recog,47,HOODLUMS,LF,target,right,yellow,pleasantness,liberal,no,z,1,2.29425083238,3,108
2019_Apr_22,111,001,0,recog,48,EXACTLY,HF,lure,-,-,-,liberal,no,z,0,2.8592282092,-1,107
2019_Apr_22,111,001,0,recog,49,HARDLY,HF,lure,-,-,-,liberal,no,m,1,1.1060033713,1,108
2019_Apr_22,111,001,0,recog,50,HEMMED,LF,lure,-,-,-,liberal,yes,z,0,1.15319455636,-1,107
2019_Apr_22,111,001,0,recog,51,HELICAL,LF,lure,-,-,-,liberal,no,m,1,2.09442562948,1,108
2019_Apr_22,111,001,0,recog,52,WAITING,HF,target,right,yellow,pleasantness,conservative,no,z,1,1.89458832863,1,109
2019_Apr_22,111,001,0,recog,53,HASSLE,LF,target,right,yellow,pleasantness,liberal,no,z,1,0.964706602623,3,112
2019_Apr_22,111,001,0,recog,54,ANTELOPES,LF,target,right,yellow,pleasantness,liberal,no,z,1,0.753209807115,3,115
2019_Apr_22,111,001,0,recog,55,MILES,HF,lure,-,-,-,liberal,no,m,1,0.611900573883,1,116
2019_Apr_22,111,001,0,recog,56,MUMBLES,LF,lure,-,-,-,conservative,no,m,1,0.576920623492,3,119
2019_Apr_22,111,001,0,recog,57,PHOBIC,LF,target,right,yellow,pleasantness,conservative,no,z,1,0.706112106239,1,120
2019_Apr_22,111,001,0,recog,58,MOVED,HF,target,right,yellow,pleasantness,conservative,no,z,1,0.811770135944,1,121
2019_Apr_22,111,001,0,recog,59,SLOWLY,HF,lure,-,-,-,conservative,no,m,1,0.647331814612,3,124
2019_Apr_22,111,001,0,recog,60,CHURCH,HF,lure,-,-,-,liberal,no,m,1,1.61213226803,1,125
2019_Apr_22,111,001,0,recog,61,LAGER,LF,target,left,aqua,imageability,conservative,no,z,1,0.706142901031,1,126
2019_Apr_22,111,001,0,recog,62,ZOOLOGY,LF,lure,-,-,-,liberal,no,m,1,0.635649223861,1,127
2019_Apr_22,111,001,0,recog,63,ENTIRELY,HF,lure,-,-,-,conservative,no,m,1,0.953228210669,3,130
2019_Apr_22,111,001,0,recog,64,SPRATS,LF,lure,-,-,-,liberal,no,m,1,1.0003226121,1,131
2019_Apr_22,111,001,0,recog,65,VANDALS,LF,target,right,yellow,pleasantness,conservative,no,z,1,0.859140590688,1,132
2019_Apr_22,111,001,0,recog,66,ASPIRED,LF,target,left,aqua,imageability,conservative,yes,m,0,1.51801018721,-1,131
2019_Apr_22,111,001,0,recog,67,ITSELF,HF,lure,-,-,-,liberal,no,m,1,1.35330571089,1,132
2019_Apr_22,111,001,0,recog,68,SNOBBISH,LF,lure,-,-,-,conservative,no,m,1,4.03569336306,3,135
2019_Apr_22,111,001,0,recog,69,AMEND,LF,target,right,yellow,pleasantness,conservative,no,z,1,0.988515742371,1,136
2019_Apr_22,111,001,0,recog,70,CALLED,HF,target,right,yellow,pleasantness,liberal,no,m,0,1.35298713144,-3,133
2019_Apr_22,111,001,0,recog,71,GOVERNS,LF,target,right,yellow,pleasantness,conservative,no,z,1,1.30616805011,1,134
2019_Apr_22,111,001,0,recog,72,PACIFISM,LF,lure,-,-,-,conservative,no,m,1,0.706245916941,3,137
2019_Apr_22,111,001,0,recog,73,GAZELLE,LF,lure,-,-,-,liberal,no,m,1,0.659080394203,1,138
2019_Apr_22,111,001,0,recog,74,BATCHES,LF,lure,-,-,-,conservative,no,m,1,0.635280052967,3,141
2019_Apr_22,111,001,0,recog,75,HIGHER,HF,lure,-,-,-,conservative,no,m,1,0.765153420385,3,144
2019_Apr_22,111,001,0,recog,76,THANK,HF,target,left,aqua,imageability,conservative,no,z,1,0.765069101313,1,145
2019_Apr_22,111,001,0,recog,77,QUESTION,HF,target,left,aqua,imageability,conservative,yes,z,1,1.812057554,1,146
2019_Apr_22,111,001,0,recog,78,ADDED,HF,lure,-,-,-,liberal,no,m,1,2.21182600649,1,147
2019_Apr_22,111,001,0,recog,79,BESOTTED,LF,target,left,aqua,imageability,conservative,no,z,1,0.847514457055,1,148
2019_Apr_22,111,001,0,recog,80,ALTHOUGH,HF,target,left,aqua,imageability,liberal,no,m,0,0.670906327377,-3,145
2019_Apr_22,111,001,0,recog,81,SLEEP,HF,lure,-,-,-,liberal,no,m,1,1.43559415984,1,146
2019_Apr_22,111,001,0,recog,82,INMATE,LF,lure,-,-,-,liberal,no,m,1,1.3179635551,1,147
2019_Apr_22,111,001,0,recog,83,ODDER,LF,target,left,aqua,imageability,conservative,no,z,1,0.788637015193,1,148
2019_Apr_22,111,001,0,recog,84,KETCHUP,LF,lure,-,-,-,conservative,no,m,1,0.953168087504,3,151
2019_Apr_22,111,001,0,recog,85,HOMESTEAD,LF,target,left,aqua,imageability,liberal,no,z,1,0.776745459785,3,154
2019_Apr_22,111,001,0,recog,86,DIZZINESS,LF,lure,-,-,-,conservative,no,m,1,0.729637860583,3,157
2019_Apr_22,111,001,0,recog,87,ENZYME,LF,lure,-,-,-,liberal,no,m,1,0.623766466965,1,158
2019_Apr_22,111,001,0,recog,88,UNION,HF,target,right,yellow,pleasantness,liberal,no,z,1,0.753204308045,3,161
2019_Apr_22,111,001,0,recog,89,QUALITY,HF,lure,-,-,-,conservative,no,m,1,0.529651351635,3,164
2019_Apr_22,111,001,0,recog,90,SPACE,HF,target,left,aqua,imageability,conservative,no,z,1,0.741402937383,1,165
2019_Apr_22,111,001,0,recog,91,DILATED,LF,target,left,aqua,imageability,liberal,no,z,1,0.67086490105,3,168
2019_Apr_22,111,001,0,recog,92,ALMOST,HF,lure,-,-,-,liberal,no,m,1,2.2473892249,1,169
2019_Apr_22,111,001,0,recog,93,AROUND,HF,target,left,aqua,imageability,conservative,no,z,1,0.953266337553,1,170
2019_Apr_22,111,001,0,recog,94,WOMAN,HF,target,right,yellow,pleasantness,conservative,no,z,1,0.847440769518,1,171
2019_Apr_22,111,001,0,recog,95,TIMES,HF,lure,-,-,-,conservative,no,m,1,0.870921064884,3,174
2019_Apr_22,111,001,1,source,0,STOOD,HF,target,right,yellow,pleasantness,liberal,no,9,1,5.36486402266,-,-
2019_Apr_22,111,001,1,source,1,SLIGHTLY,HF,target,right,yellow,pleasantness,conservative,no,9,1,1.18861223272,-,-
2019_Apr_22,111,001,1,source,2,LIGHT,HF,target,left,aqua,imageability,liberal,no,1,1,3.07107401235,-,-
2019_Apr_22,111,001,1,source,3,LOCAL,HF,target,right,yellow,pleasantness,conservative,no,9,1,0.906229859656,-,-
2019_Apr_22,111,001,1,source,4,LABOUR,HF,target,right,yellow,pleasantness,liberal,no,9,1,0.964989621422,-,-
2019_Apr_22,111,001,1,source,5,TEETERED,LF,target,right,yellow,pleasantness,conservative,no,9,1,0.706018988655,-,-
2019_Apr_22,111,001,1,source,6,QUICKLY,HF,target,left,aqua,imageability,conservative,no,1,1,1.38848142817,-,-
2019_Apr_22,111,001,1,source,7,POLICE,HF,target,right,yellow,pleasantness,liberal,yes,9,1,1.24743211765,-,-
2019_Apr_22,111,001,1,source,8,TICKLE,LF,target,right,yellow,pleasantness,liberal,no,9,1,1.77679165197,-,-
2019_Apr_22,111,001,1,source,9,AMBIENCE,LF,target,left,aqua,imageability,liberal,no,1,1,1.16482288962,-,-
2019_Apr_22,111,001,1,source,10,UNHEEDED,LF,target,right,yellow,pleasantness,liberal,no,9,1,1.70596069851,-,-
2019_Apr_22,111,001,1,source,11,DEGREE,HF,target,right,yellow,pleasantness,conservative,no,9,1,1.08260592858,-,-
2019_Apr_22,111,001,1,source,12,NIMBLE,LF,target,left,aqua,imageability,liberal,no,9,0,1.94150309378,-,-
2019_Apr_22,111,001,1,source,13,EIDERDOWN,LF,target,right,yellow,pleasantness,liberal,yes,9,1,0.753277262372,-,-
2019_Apr_22,111,001,1,source,14,DISARMED,LF,target,right,yellow,pleasantness,conservative,no,9,1,0.953260838484,-,-
2019_Apr_22,111,001,1,source,15,ACROSS,HF,target,left,aqua,imageability,liberal,no,9,0,1.77684370983,-,-
2019_Apr_22,111,001,1,source,16,VEERED,LF,target,left,aqua,imageability,conservative,no,1,1,2.05916962578,-,-
2019_Apr_22,111,001,1,source,17,CHEEKBONE,LF,target,right,yellow,pleasantness,liberal,no,9,1,1.95339758202,-,-
2019_Apr_22,111,001,1,source,18,ZEALOTS,LF,target,right,yellow,pleasantness,conservative,no,9,1,2.07090317458,-,-
2019_Apr_22,111,001,1,source,19,FOAMING,LF,target,left,aqua,imageability,conservative,no,1,1,1.36498206937,-,-
2019_Apr_22,111,001,1,source,20,BUILDING,HF,target,left,aqua,imageability,liberal,no,1,1,0.635606331116,-,-
2019_Apr_22,111,001,1,source,21,PAPER,HF,target,left,aqua,imageability,conservative,no,9,0,1.51780232237,-,-
2019_Apr_22,111,001,1,source,22,DEVELOPED,HF,target,left,aqua,imageability,liberal,no,9,0,2.16506888135,-,-
2019_Apr_22,111,001,1,source,23,SNEAKED,LF,target,left,aqua,imageability,liberal,no,1,1,1.12985210435,-,-
2019_Apr_22,111,001,1,source,24,ACTION,HF,target,right,yellow,pleasantness,conservative,no,9,1,2.60033786286,-,-
2019_Apr_22,111,001,1,source,25,MAYBE,HF,target,left,aqua,imageability,liberal,no,1,1,2.32975759367,-,-
2019_Apr_22,111,001,1,source,26,CLICKS,LF,target,left,aqua,imageability,liberal,yes,1,1,1.16500362572,-,-
2019_Apr_22,111,001,1,source,27,STEADFAST,LF,target,left,aqua,imageability,conservative,no,1,1,1.14148447026,-,-
2019_Apr_22,111,001,1,source,28,BIKINI,LF,target,left,aqua,imageability,liberal,no,1,1,0.78854793026,-,-
2019_Apr_22,111,001,1,source,29,BLACK,HF,target,right,yellow,pleasantness,liberal,no,9,1,0.882584225588,-,-
2019_Apr_22,111,001,1,source,30,KINDEST,LF,target,right,yellow,pleasantness,conservative,no,9,1,0.9179747732,-,-
2019_Apr_22,111,001,1,source,31,LETTER,HF,target,right,yellow,pleasantness,conservative,no,9,1,0.658994608712,-,-
2019_Apr_22,111,001,1,source,32,BECAME,HF,target,left,aqua,imageability,conservative,no,1,1,1.72964812551,-,-
2019_Apr_22,111,001,1,source,33,VAULTED,LF,target,right,yellow,pleasantness,conservative,no,9,1,0.906143707561,-,-
2019_Apr_22,111,001,1,source,34,SNAGS,LF,target,right,yellow,pleasantness,liberal,no,9,1,1.70594090186,-,-
2019_Apr_22,111,001,1,source,35,BOWER,LF,target,left,aqua,imageability,liberal,no,1,1,1.05908970596,-,-
2019_Apr_22,111,001,1,source,36,WINDOW,HF,target,right,yellow,pleasantness,liberal,no,9,1,4.68247013822,-,-
2019_Apr_22,111,001,1,source,37,TABLE,HF,target,left,aqua,imageability,conservative,no,1,1,0.835676792532,-,-
2019_Apr_22,111,001,1,source,38,REOPEN,LF,target,right,yellow,pleasantness,conservative,no,9,1,0.717920442389,-,-
2019_Apr_22,111,001,1,source,39,PARENTS,HF,target,left,aqua,imageability,liberal,no,1,1,0.788644713891,-,-
2019_Apr_22,111,001,1,source,40,SEQUEL,LF,target,right,yellow,pleasantness,liberal,no,9,1,1.58879934774,-,-
2019_Apr_22,111,001,1,source,41,MATERIAL,HF,target,left,aqua,imageability,conservative,no,1,1,2.70592147182,-,-
2019_Apr_22,111,001,1,source,42,BOGEY,LF,target,left,aqua,imageability,conservative,no,1,1,0.717952703599,-,-
2019_Apr_22,111,001,1,source,43,ENHANCES,LF,target,left,aqua,imageability,conservative,yes,9,0,0.917924181757,-,-
2019_Apr_22,111,001,1,source,44,HUMAN,HF,target,right,yellow,pleasantness,liberal,no,9,1,2.00033324364,-,-
2019_Apr_22,111,001,1,source,45,RECENT,HF,target,left,aqua,imageability,conservative,no,9,0,1.84717498114,-,-
2019_Apr_22,111,001,1,source,46,EXHALED,LF,target,left,aqua,imageability,conservative,no,1,1,2.23564614438,-,-
2019_Apr_22,111,001,1,source,47,LEARN,HF,target,right,yellow,pleasantness,conservative,no,9,1,0.859102830408,-,-
2019_Apr_22,111,001,1,recog,0,TAVERNS,LF,lure,-,-,-,liberal,no,m,1,2.92976037986,1,175
2019_Apr_22,111,001,1,recog,1,EXHALED,LF,target,left,aqua,imageability,conservative,no,z,1,1.37671708458,1,176
2019_Apr_22,111,001,1,recog,2,ZEALOTS,LF,target,right,yellow,pleasantness,conservative,no,z,1,1.76499688019,1,177
2019_Apr_22,111,001,1,recog,3,SLIGHTLY,HF,target,right,yellow,pleasantness,conservative,no,z,1,0.72966828877,1,178
2019_Apr_22,111,001,1,recog,4,ACROSS,HF,target,left,aqua,imageability,liberal,no,m,0,1.97675983069,-3,175
2019_Apr_22,111,001,1,recog,5,MERELY,HF,lure,-,-,-,liberal,no,m,1,1.35322799071,1,176
2019_Apr_22,111,001,1,recog,6,REJOICED,LF,lure,-,-,-,liberal,no,m,1,2.49453319129,1,177
2019_Apr_22,111,001,1,recog,7,MOTHER,HF,lure,-,-,-,liberal,no,m,1,1.7062191548,1,178
2019_Apr_22,111,001,1,recog,8,DEITIES,LF,lure,-,-,-,conservative,no,m,1,0.764687832465,3,181
2019_Apr_22,111,001,1,recog,9,MAKES,HF,lure,-,-,-,conservative,no,m,1,1.01211151821,3,184
2019_Apr_22,111,001,1,recog,10,DISARMED,LF,target,right,yellow,pleasantness,conservative,no,z,1,1.57658004776,1,185
2019_Apr_22,111,001,1,recog,11,DEGREE,HF,target,right,yellow,pleasantness,conservative,yes,z,1,2.28241793371,1,186
2019_Apr_22,111,001,1,recog,12,MAYBE,HF,target,left,aqua,imageability,liberal,no,z,1,1.16503478712,3,189
2019_Apr_22,111,001,1,recog,13,STOOD,HF,target,right,yellow,pleasantness,liberal,no,z,1,0.623586097471,3,192
2019_Apr_22,111,001,1,recog,14,STEADFAST,LF,target,left,aqua,imageability,conservative,no,z,1,0.553233196492,1,193
2019_Apr_22,111,001,1,recog,15,SNAGS,LF,target,right,yellow,pleasantness,liberal,no,z,1,0.788366460953,3,196
2019_Apr_22,111,001,1,recog,16,NERVY,LF,lure,-,-,-,liberal,no,m,1,0.706222087638,1,197
2019_Apr_22,111,001,1,recog,17,ESPECIAL,LF,lure,-,-,-,conservative,no,m,1,0.9768001572,3,200
2019_Apr_22,111,001,1,recog,18,ENHANCES,LF,target,left,aqua,imageability,conservative,no,z,1,0.83552171876,1,201
2019_Apr_22,111,001,1,recog,19,INVOLVED,HF,lure,-,-,-,conservative,no,m,1,0.706132269496,3,204
2019_Apr_22,111,001,1,recog,20,ACTION,HF,target,right,yellow,pleasantness,conservative,no,z,1,0.753287527303,1,205
2019_Apr_22,111,001,1,recog,21,MIMICKED,LF,lure,-,-,-,liberal,no,m,1,0.764977816752,1,206
2019_Apr_22,111,001,1,recog,22,VAULTED,LF,target,right,yellow,pleasantness,conservative,no,z,1,0.976803823247,1,207
2019_Apr_22,111,001,1,recog,23,CHEEKBONE,LF,target,right,yellow,pleasantness,liberal,no,z,1,0.706071413122,3,210
2019_Apr_22,111,001,1,recog,24,EXCEPT,HF,lure,-,-,-,liberal,no,z,0,1.85920328009,-1,209
2019_Apr_22,111,001,1,recog,25,OUSTED,LF,lure,-,-,-,liberal,no,m,1,1.05918575638,1,210
2019_Apr_22,111,001,1,recog,26,FLOOR,HF,lure,-,-,-,liberal,no,m,1,1.63573977521,1,211
2019_Apr_22,111,001,1,recog,27,SOMEONE,HF,lure,-,-,-,conservative,no,m,1,0.706240051266,3,214
2019_Apr_22,111,001,1,recog,28,HUMAN,HF,target,right,yellow,pleasantness,liberal,no,z,1,1.23537009107,3,217
2019_Apr_22,111,001,1,recog,29,TOXICITY,LF,lure,-,-,-,conservative,no,m,1,0.623936571528,3,220
2019_Apr_22,111,001,1,recog,30,EASILY,HF,lure,-,-,-,liberal,no,m,1,2.12967136825,1,221
2019_Apr_22,111,001,1,recog,31,WINDOW,HF,target,right,yellow,pleasantness,liberal,no,z,1,0.764997246799,3,224
2019_Apr_22,111,001,1,recog,32,STAFF,HF,lure,-,-,-,liberal,no,m,1,0.92968009344,1,225
2019_Apr_22,111,001,1,recog,33,RECENT,HF,target,left,aqua,imageability,conservative,no,m,0,0.717973600065,-1,224
2019_Apr_22,111,001,1,recog,34,UNTIL,HF,lure,-,-,-,liberal,no,m,1,3.96511646663,1,225
2019_Apr_22,111,001,1,recog,35,BEYOND,HF,lure,-,-,-,liberal,no,z,0,1.20032708468,-1,224
2019_Apr_22,111,001,1,recog,36,TABLE,HF,target,left,aqua,imageability,conservative,no,z,1,0.670941521424,1,225
2019_Apr_22,111,001,1,recog,37,ACACIA,LF,lure,-,-,-,liberal,no,m,1,0.647485421966,1,226
2019_Apr_22,111,001,1,recog,38,PRIVATE,HF,lure,-,-,-,conservative,no,m,1,0.694385522929,3,229
2019_Apr_22,111,001,1,recog,39,REOPEN,LF,target,right,yellow,pleasantness,conservative,no,z,1,0.623774165663,1,230
2019_Apr_22,111,001,1,recog,40,ZIGZAG,LF,lure,-,-,-,conservative,no,m,1,0.741495688363,3,233
2019_Apr_22,111,001,1,recog,41,FRIEND,HF,lure,-,-,-,conservative,no,m,1,1.03537808305,3,236
2019_Apr_22,111,001,1,recog,42,PAPER,HF,target,left,aqua,imageability,conservative,no,z,1,0.741440331059,1,237
2019_Apr_22,111,001,1,recog,43,FOAMING,LF,target,left,aqua,imageability,conservative,no,z,1,0.57669002916,1,238
2019_Apr_22,111,001,1,recog,44,MEMBERS,HF,lure,-,-,-,liberal,no,m,1,0.62391787469,1,239
2019_Apr_22,111,001,1,recog,45,DEVELOPED,HF,target,left,aqua,imageability,liberal,no,z,1,0.823752242704,3,242
2019_Apr_22,111,001,1,recog,46,LOCAL,HF,target,right,yellow,pleasantness,conservative,no,z,1,0.717878649458,1,243
2019_Apr_22,111,001,1,recog,47,SPICED,LF,lure,-,-,-,conservative,no,m,1,0.588550056567,3,246
2019_Apr_22,111,001,1,recog,48,AMBIENCE,LF,target,left,aqua,imageability,liberal,no,z,1,0.706204857219,3,249
2019_Apr_22,111,001,1,recog,49,CORNER,HF,lure,-,-,-,conservative,no,m,1,0.788474975932,3,252
2019_Apr_22,111,001,1,recog,50,REREAD,LF,lure,-,-,-,liberal,no,m,1,0.917995669666,1,253
2019_Apr_22,111,001,1,recog,51,TOGETHER,HF,lure,-,-,-,liberal,no,m,1,0.7649580201,1,254
2019_Apr_22,111,001,1,recog,52,DEJECTED,LF,lure,-,-,-,liberal,no,m,1,0.600223482202,1,255
2019_Apr_22,111,001,1,recog,53,LETTER,HF,target,right,yellow,pleasantness,conservative,no,z,1,2.28267748981,1,256
2019_Apr_22,111,001,1,recog,54,VEERED,LF,target,left,aqua,imageability,conservative,no,z,1,1.14150573333,1,257
2019_Apr_22,111,001,1,recog,55,QUICKLY,HF,target,left,aqua,imageability,conservative,no,z,1,1.28273871279,1,258
2019_Apr_22,111,001,1,recog,56,ISOLATING,LF,lure,-,-,-,liberal,no,m,1,0.670791580117,1,259
2019_Apr_22,111,001,1,recog,57,BETTER,HF,lure,-,-,-,conservative,no,m,1,1.41207757061,3,262
2019_Apr_22,111,001,1,recog,58,BECAME,HF,target,left,aqua,imageability,conservative,no,z,1,0.811984966276,1,263
2019_Apr_22,111,001,1,recog,59,NIBBLE,LF,lure,-,-,-,liberal,no,z,0,0.929677527208,-1,262
2019_Apr_22,111,001,1,recog,60,LABOUR,HF,target,right,yellow,pleasantness,liberal,no,z,1,0.882611720938,3,265
2019_Apr_22,111,001,1,recog,61,ALONE,HF,lure,-,-,-,conservative,no,m,1,2.11790739126,3,268
2019_Apr_22,111,001,1,recog,62,WESTERN,HF,lure,-,-,-,conservative,yes,m,1,1.24736502899,3,271
2019_Apr_22,111,001,1,recog,63,NIMBLE,LF,target,left,aqua,imageability,liberal,no,z,1,1.9298417661,3,274
2019_Apr_22,111,001,1,recog,64,JACKALS,LF,lure,-,-,-,liberal,no,m,1,1.32983934651,1,275
2019_Apr_22,111,001,1,recog,65,LEARN,HF,target,right,yellow,pleasantness,conservative,no,z,1,1.36473497782,1,276
2019_Apr_22,111,001,1,recog,66,BIKINI,LF,target,left,aqua,imageability,liberal,no,z,1,0.717903945179,3,279
2019_Apr_22,111,001,1,recog,67,BUILDING,HF,target,left,aqua,imageability,liberal,no,z,1,0.670907060586,3,282
2019_Apr_22,111,001,1,recog,68,KINDEST,LF,target,right,yellow,pleasantness,conservative,no,z,1,0.576800010558,1,283
2019_Apr_22,111,001,1,recog,69,POLICE,HF,target,right,yellow,pleasantness,liberal,yes,m,0,1.97694056679,-3,280
2019_Apr_22,111,001,1,recog,70,CAMPANILE,LF,lure,-,-,-,conservative,no,m,1,2.49423404188,3,283
2019_Apr_22,111,001,1,recog,71,SOAPY,LF,lure,-,-,-,conservative,no,m,1,0.764992847543,3,286
2019_Apr_22,111,001,1,recog,72,PERHAPS,HF,lure,-,-,-,conservative,no,m,1,1.3414937087,3,289
2019_Apr_22,111,001,1,recog,73,NOTHING,HF,lure,-,-,-,liberal,no,m,1,0.588523661032,1,290
2019_Apr_22,111,001,1,recog,74,LIGHT,HF,target,left,aqua,imageability,liberal,no,z,1,0.647471857593,3,293
2019_Apr_22,111,001,1,recog,75,BLACK,HF,target,right,yellow,pleasantness,liberal,no,z,1,1.25906704979,3,296
2019_Apr_22,111,001,1,recog,76,LAUNCHER,LF,lure,-,-,-,conservative,no,m,1,1.17672727619,3,299
2019_Apr_22,111,001,1,recog,77,SEQUEL,LF,target,right,yellow,pleasantness,liberal,no,z,1,1.37677097547,3,302
2019_Apr_22,111,001,1,recog,78,UNHEEDED,LF,target,right,yellow,pleasantness,liberal,no,z,1,0.706174795636,3,305
2019_Apr_22,111,001,1,recog,79,TREES,HF,lure,-,-,-,liberal,no,m,1,1.42408020723,1,306
2019_Apr_22,111,001,1,recog,80,SNEAKED,LF,target,left,aqua,imageability,liberal,no,z,1,1.0591402974,3,309
2019_Apr_22,111,001,1,recog,81,PUTTS,LF,lure,-,-,-,conservative,no,m,1,0.612051981608,3,312
2019_Apr_22,111,001,1,recog,82,AUSPICES,LF,lure,-,-,-,liberal,no,m,1,0.800255450128,1,313
2019_Apr_22,111,001,1,recog,83,NOBLEMAN,LF,lure,-,-,-,conservative,no,m,1,0.659025770108,3,316
2019_Apr_22,111,001,1,recog,84,BOGEY,LF,target,left,aqua,imageability,conservative,no,m,0,0.412036144287,-1,315
2019_Apr_22,111,001,1,recog,85,BOWER,LF,target,left,aqua,imageability,liberal,no,z,1,0.68262924464,3,318
2019_Apr_22,111,001,1,recog,86,HADJI,LF,lure,-,-,-,conservative,no,m,1,0.611987459188,3,321
2019_Apr_22,111,001,1,recog,87,TRYING,HF,lure,-,-,-,conservative,no,m,1,0.635583235022,3,324
2019_Apr_22,111,001,1,recog,88,PARENTS,HF,target,left,aqua,imageability,liberal,no,z,1,1.04739501726,3,327
2019_Apr_22,111,001,1,recog,89,CHAIR,HF,lure,-,-,-,conservative,no,m,1,0.835560945459,3,330
2019_Apr_22,111,001,1,recog,90,EIDERDOWN,LF,target,right,yellow,pleasantness,liberal,no,m,0,1.1531974892,-3,327
2019_Apr_22,111,001,1,recog,91,MATERIAL,HF,target,left,aqua,imageability,conservative,no,z,1,1.988486414,1,328
2019_Apr_22,111,001,1,recog,92,DIGESTING,LF,lure,-,-,-,conservative,no,m,1,0.788521901329,3,331
2019_Apr_22,111,001,1,recog,93,TEETERED,LF,target,right,yellow,pleasantness,conservative,no,z,1,0.553252993144,1,332
2019_Apr_22,111,001,1,recog,94,CLICKS,LF,target,left,aqua,imageability,liberal,yes,z,1,0.894439853739,3,335
2019_Apr_22,111,001,1,recog,95,TICKLE,LF,target,right,yellow,pleasantness,liberal,no,z,1,0.812037024138,3,338
2019_Apr_22,111,001,2,source,0,HAWKED,LF,target,left,aqua,imageability,liberal,no,1,1,3.83573141663,-,-
2019_Apr_22,111,001,2,source,1,BILATERAL,LF,target,left,aqua,imageability,conservative,no,9,0,2.200195107,-,-
2019_Apr_22,111,001,2,source,2,APPEARED,HF,target,left,aqua,imageability,conservative,no,1,1,2.29449095843,-,-
2019_Apr_22,111,001,2,source,3,VACATED,LF,target,right,yellow,pleasantness,conservative,no,9,1,1.15332506762,-,-
2019_Apr_22,111,001,2,source,4,BEHIND,HF,target,left,aqua,imageability,liberal,no,9,0,0.929798506746,-,-
2019_Apr_22,111,001,2,source,5,FOLLOWED,HF,target,right,yellow,pleasantness,liberal,no,1,0,1.1294869661,-,-
2019_Apr_22,111,001,2,source,6,FLUFF,LF,target,left,aqua,imageability,conservative,no,1,1,0.859141690502,-,-
2019_Apr_22,111,001,2,source,7,UNWARY,LF,target,right,yellow,pleasantness,conservative,no,9,1,1.65915224872,-,-
2019_Apr_22,111,001,2,source,8,CELLO,LF,target,left,aqua,imageability,liberal,no,3,1,2.45909681809,-,-
2019_Apr_22,111,001,2,source,9,NIGHT,HF,target,left,aqua,imageability,conservative,no,1,1,2.24736942825,-,-
2019_Apr_22,111,001,2,source,10,GENERAL,HF,target,right,yellow,pleasantness,conservative,no,9,1,2.81211621074,-,-
2019_Apr_22,111,001,2,source,11,HUBBUB,LF,target,right,yellow,pleasantness,liberal,yes,9,1,0.988570366465,-,-
2019_Apr_22,111,001,2,source,12,JINGLE,LF,target,right,yellow,pleasantness,conservative,no,9,1,0.800024855796,-,-
2019_Apr_22,111,001,2,source,13,PIECE,HF,target,right,yellow,pleasantness,liberal,no,9,1,1.65907746137,-,-
2019_Apr_22,111,001,2,source,14,JUBILANT,LF,target,left,aqua,imageability,liberal,no,9,0,0.882406422327,-,-
2019_Apr_22,111,001,2,source,15,ATTACK,HF,target,left,aqua,imageability,liberal,no,1,1,3.92952391985,-,-
2019_Apr_22,111,001,2,source,16,BLOOD,HF,target,right,yellow,pleasantness,liberal,no,9,1,2.25916310021,-,-
2019_Apr_22,111,001,2,source,17,ENERGY,HF,target,right,yellow,pleasantness,liberal,no,9,1,1.7059911267,-,-
2019_Apr_22,111,001,2,source,18,INTEREST,HF,target,right,yellow,pleasantness,liberal,no,1,0,2.27091241301,-,-
2019_Apr_22,111,001,2,source,19,YANKED,LF,target,right,yellow,pleasantness,liberal,no,9,1,1.10618960646,-,-
2019_Apr_22,111,001,2,source,20,GASEOUS,LF,target,left,aqua,imageability,conservative,yes,9,0,0.870885504232,-,-
2019_Apr_22,111,001,2,source,21,THING,HF,target,left,aqua,imageability,conservative,no,9,0,0.564955380547,-,-
2019_Apr_22,111,001,2,source,22,BIGNESS,LF,target,right,yellow,pleasantness,liberal,no,9,1,2.37656201081,-,-
2019_Apr_22,111,001,2,source,23,MOUTH,HF,target,left,aqua,imageability,conservative,no,1,1,1.78854389761,-,-
2019_Apr_22,111,001,2,source,24,RIPEN,LF,target,left,aqua,imageability,conservative,no,9,0,1.27091644567,-,-
2019_Apr_22,111,001,2,source,25,VARIOUS,HF,target,left,aqua,imageability,liberal,no,1,1,3.83558697439,-,-
2019_Apr_22,111,001,2,source,26,COMES,HF,target,left,aqua,imageability,liberal,no,1,1,0.929665429254,-,-
2019_Apr_22,111,001,2,source,27,BUSINESS,HF,target,left,aqua,imageability,conservative,no,1,1,0.658982877363,-,-
2019_Apr_22,111,001,2,source,28,POOLED,LF,target,left,aqua,imageability,liberal,no,1,1,1.08262682505,-,-
2019_Apr_22,111,001,2,source,29,BAUXITE,LF,target,right,yellow,pleasantness,liberal,no,1,0,1.72978633547,-,-
2019_Apr_22,111,001,2,source,30,NATIONAL,HF,target,right,yellow,pleasantness,conservative,no,9,1,1.34137456218,-,-
2019_Apr_22,111,001,2,source,31,WRONG,HF,target,left,aqua,imageability,liberal,no,9,0,0.917930047431,-,-
2019_Apr_22,111,001,2,source,32,DECIDED,HF,target,right,yellow,pleasantness,liberal,no,9,1,1.71775986955,-,-
2019_Apr_22,111,001,2,source,33,SPUDS,LF,target,right,yellow,pleasantness,conservative,yes,9,1,0.69451933363,-,-
2019_Apr_22,111,001,2,source,34,GAPED,LF,target,right,yellow,pleasantness,conservative,no,1,0,3.71777673336,-,-
2019_Apr_22,111,001,2,source,35,HOTEL,HF,target,right,yellow,pleasantness,conservative,no,9,1,0.847383212586,-,-
2019_Apr_22,111,001,2,source,36,INDEED,HF,target,right,yellow,pleasantness,conservative,no,9,1,1.55331824877,-,-
2019_Apr_22,111,001,2,source,37,ELUDE,LF,target,left,aqua,imageability,liberal,no,1,1,5.40020727828,-,-
2019_Apr_22,111,001,2,source,38,SUSPEND,LF,target,right,yellow,pleasantness,liberal,no,9,1,0.859120427432,-,-
2019_Apr_22,111,001,2,source,39,LUXURIANT,LF,target,right,yellow,pleasantness,liberal,no,9,1,2.17666312038,-,-
2019_Apr_22,111,001,2,source,40,LONGER,HF,target,right,yellow,pleasantness,conservative,yes,9,1,4.18863569542,-,-
2019_Apr_22,111,001,2,source,41,ONCOMING,LF,target,right,yellow,pleasantness,conservative,no,9,1,2.4003982793,-,-
2019_Apr_22,111,001,2,source,42,SILENCER,LF,target,left,aqua,imageability,conservative,no,9,0,3.36506162258,-,-
2019_Apr_22,111,001,2,source,43,HUSBAND,HF,target,left,aqua,imageability,liberal,no,1,1,0.988548370186,-,-
2019_Apr_22,111,001,2,source,44,AFRAID,HF,target,right,yellow,pleasantness,conservative,no,9,1,2.45910341698,-,-
2019_Apr_22,111,001,2,source,45,ANIMAL,HF,target,left,aqua,imageability,conservative,no,1,1,1.11802580457,-,-
2019_Apr_22,111,001,2,source,46,MYRIADS,LF,target,left,aqua,imageability,liberal,no,9,0,1.23566924048,-,-
2019_Apr_22,111,001,2,source,47,ENMESHED,LF,target,left,aqua,imageability,conservative,no,9,0,0.741495321758,-,-
2019_Apr_22,111,001,2,recog,0,MYRIADS,LF,target,left,aqua,imageability,liberal,no,z,1,2.61217406096,3,341
2019_Apr_22,111,001,2,recog,1,ANIMAL,HF,target,left,aqua,imageability,conservative,no,z,1,1.0120165676,1,342
2019_Apr_22,111,001,2,recog,2,RUSSET,LF,lure,-,-,-,conservative,no,m,1,0.753311356606,3,345
2019_Apr_22,111,001,2,recog,3,THYROID,LF,lure,-,-,-,conservative,yes,m,1,1.04732132972,3,348
2019_Apr_22,111,001,2,recog,4,LUXURIANT,LF,target,right,yellow,pleasantness,liberal,no,z,1,0.811921177065,3,351
2019_Apr_22,111,001,2,recog,5,TESTIFIES,LF,lure,-,-,-,conservative,no,m,1,0.988575865535,3,354
2019_Apr_22,111,001,2,recog,6,BIGNESS,LF,target,right,yellow,pleasantness,liberal,no,z,1,0.670834106258,3,357
2019_Apr_22,111,001,2,recog,7,CHOICE,HF,lure,-,-,-,conservative,no,m,1,0.812024192975,3,360
2019_Apr_22,111,001,2,recog,8,JUBILANT,LF,target,left,aqua,imageability,liberal,no,z,1,0.800273780361,3,363
2019_Apr_22,111,001,2,recog,9,JOVIAL,LF,lure,-,-,-,liberal,no,m,1,1.43565904887,1,364
2019_Apr_22,111,001,2,recog,10,UNWARY,LF,target,right,yellow,pleasantness,conservative,no,m,0,2.65912585318,-1,363
2019_Apr_22,111,001,2,recog,11,NARRATOR,LF,lure,-,-,-,liberal,no,m,1,2.76499064792,1,364
2019_Apr_22,111,001,2,recog,12,ONCOMING,LF,target,right,yellow,pleasantness,conservative,no,z,1,0.788533266074,1,365
2019_Apr_22,111,001,2,recog,13,FOLLOWED,HF,target,right,yellow,pleasantness,liberal,no,m,0,2.72980209947,-3,362
2019_Apr_22,111,001,2,recog,14,SIDED,LF,lure,-,-,-,conservative,no,m,1,0.88270630494,3,365
2019_Apr_22,111,001,2,recog,15,RIPEN,LF,target,left,aqua,imageability,conservative,no,z,1,0.765020709497,1,366
2019_Apr_22,111,001,2,recog,16,CELLO,LF,target,left,aqua,imageability,liberal,no,z,1,0.812089815209,3,369
2019_Apr_22,111,001,2,recog,17,USUAL,HF,lure,-,-,-,liberal,no,z,0,3.70626974624,-1,368
2019_Apr_22,111,001,2,recog,18,SUDDENLY,HF,lure,-,-,-,liberal,yes,m,1,0.564983609106,1,369
2019_Apr_22,111,001,2,recog,19,RESEARCH,HF,lure,-,-,-,liberal,no,m,1,0.776786886111,1,370
2019_Apr_22,111,001,2,recog,20,SAFARI,LF,lure,-,-,-,liberal,no,m,1,0.553296619098,1,371
2019_Apr_22,111,001,2,recog,21,CATALYST,LF,lure,-,-,-,liberal,no,m,1,0.541235325732,1,372
2019_Apr_22,111,001,2,recog,22,PIECE,HF,target,right,yellow,pleasantness,liberal,no,m,0,1.4708234014,-3,369
2019_Apr_22,111,001,2,recog,23,POOLED,LF,target,left,aqua,imageability,liberal,no,z,1,4.74126546064,3,372
2019_Apr_22,111,001,2,recog,24,DECIDED,HF,target,right,yellow,pleasantness,liberal,no,z,1,0.670991746263,3,375
2019_Apr_22,111,001,2,recog,25,PIVOT,LF,lure,-,-,-,liberal,no,m,1,1.29416431368,1,376
2019_Apr_22,111,001,2,recog,26,ORDER,HF,lure,-,-,-,conservative,no,m,1,0.682693400456,3,379
2019_Apr_22,111,001,2,recog,27,HUNDRED,HF,lure,-,-,-,conservative,no,m,1,0.541421194295,3,382
2019_Apr_22,111,001,2,recog,28,SONAR,LF,lure,-,-,-,conservative,no,m,1,0.588523294427,3,385
2019_Apr_22,111,001,2,recog,29,WRONG,HF,target,left,aqua,imageability,liberal,no,m,0,0.882608421496,-3,382
2019_Apr_22,111,001,2,recog,30,YANKED,LF,target,right,yellow,pleasantness,liberal,no,m,0,3.27088895032,-3,379
2019_Apr_22,111,001,2,recog,31,GLASS,HF,lure,-,-,-,conservative,no,m,1,3.18852571402,3,382
2019_Apr_22,111,001,2,recog,32,CERTAIN,HF,lure,-,-,-,conservative,no,m,1,1.50615712529,3,385
2019_Apr_22,111,001,2,recog,33,ENMESHED,LF,target,left,aqua,imageability,conservative,no,z,1,2.71796003569,1,386
2019_Apr_22,111,001,2,recog,34,LONGER,HF,target,right,yellow,pleasantness,conservative,no,m,0,2.35335996838,-1,385
2019_Apr_22,111,001,2,recog,35,GASEOUS,LF,target,left,aqua,imageability,conservative,no,z,1,1.64745499378,1,386
2019_Apr_22,111,001,2,recog,36,PULSAR,LF,lure,-,-,-,liberal,yes,z,0,0.776700000806,-1,385
2019_Apr_22,111,001,2,recog,37,VARIOUS,HF,target,left,aqua,imageability,liberal,no,z,1,1.15319089031,3,388
2019_Apr_22,111,001,2,recog,38,SILENCER,LF,target,left,aqua,imageability,conservative,no,z,1,1.85941334456,1,389
2019_Apr_22,111,001,2,recog,39,BEHIND,HF,target,left,aqua,imageability,liberal,no,z,1,6.70626718001,3,392
2019_Apr_22,111,001,2,recog,40,BREAK,HF,lure,-,-,-,conservative,no,m,1,0.74145536185,3,395
2019_Apr_22,111,001,2,recog,41,SHIELDING,LF,lure,-,-,-,liberal,no,m,1,0.95323224332,1,396
2019_Apr_22,111,001,2,recog,42,MONEY,HF,lure,-,-,-,liberal,no,m,1,0.600352527043,1,397
2019_Apr_22,111,001,2,recog,43,HUBBUB,LF,target,right,yellow,pleasantness,liberal,no,z,1,0.682666638316,3,400
2019_Apr_22,111,001,2,recog,44,SYRINGE,LF,lure,-,-,-,conservative,no,m,1,0.706185427171,3,403
2019_Apr_22,111,001,2,recog,45,GENERAL,HF,target,right,yellow,pleasantness,conservative,no,z,1,0.753255632697,1,404
2019_Apr_22,111,001,2,recog,46,WHATEVER,HF,lure,-,-,-,liberal,no,m,1,0.517770427762,1,405
2019_Apr_22,111,001,2,recog,47,COMES,HF,target,left,aqua,imageability,liberal,no,z,1,0.835619602205,3,408
2019_Apr_22,111,001,2,recog,48,LIQUEUR,LF,lure,-,-,-,conservative,no,m,1,0.482620006203,3,411
2019_Apr_22,111,001,2,recog,49,SUSPEND,LF,target,right,yellow,pleasantness,liberal,no,z,1,0.623833189013,3,414
2019_Apr_22,111,001,2,recog,50,SICKENED,LF,lure,-,-,-,conservative,no,m,1,1.01182739959,3,417
2019_Apr_22,111,001,2,recog,51,BEGAN,HF,lure,-,-,-,conservative,no,z,0,1.0002907175,-3,414
2019_Apr_22,111,001,2,recog,52,GAPED,LF,target,right,yellow,pleasantness,conservative,no,z,1,0.611983059932,1,415
2019_Apr_22,111,001,2,recog,53,JAMMING,LF,lure,-,-,-,conservative,no,m,1,0.588462071448,3,418
2019_Apr_22,111,001,2,recog,54,APPEARED,HF,target,left,aqua,imageability,conservative,no,m,0,1.23561461638,-1,417
2019_Apr_22,111,001,2,recog,55,PILGRIM,LF,lure,-,-,-,conservative,no,z,0,0.788594122447,-3,414
2019_Apr_22,111,001,2,recog,56,DAUGHTER,HF,lure,-,-,-,liberal,no,m,1,2.03564350483,1,415
2019_Apr_22,111,001,2,recog,57,FREEDOM,HF,lure,-,-,-,liberal,no,m,1,0.859082667152,1,416
2019_Apr_22,111,001,2,recog,58,BAIZE,LF,lure,-,-,-,liberal,no,m,1,0.623865816828,1,417
2019_Apr_22,111,001,2,recog,59,FORCE,HF,lure,-,-,-,conservative,no,m,1,1.42387197579,3,420
2019_Apr_22,111,001,2,recog,60,MOUTH,HF,target,left,aqua,imageability,conservative,no,z,1,0.600250244342,1,421
2019_Apr_22,111,001,2,recog,61,BILATERAL,LF,target,left,aqua,imageability,conservative,no,z,1,0.917742345845,1,422
2019_Apr_22,111,001,2,recog,62,FLUFF,LF,target,left,aqua,imageability,conservative,no,z,1,1.24744788165,1,423
2019_Apr_22,111,001,2,recog,63,FUELLED,LF,lure,-,-,-,liberal,no,m,1,0.612034384585,1,424
2019_Apr_22,111,001,2,recog,64,PEWTER,LF,lure,-,-,-,conservative,yes,m,1,0.929629868602,3,427
2019_Apr_22,111,001,2,recog,65,SPUDS,LF,target,right,yellow,pleasantness,conservative,no,m,0,2.30620251095,-1,426
2019_Apr_22,111,001,2,recog,66,NAUGHT,LF,lure,-,-,-,liberal,no,m,1,1.45909571828,1,427
2019_Apr_22,111,001,2,recog,67,JINGLE,LF,target,right,yellow,pleasantness,conservative,no,m,0,2.74147369208,-1,426
2019_Apr_22,111,001,2,recog,68,ATTACK,HF,target,left,aqua,imageability,liberal,no,z,1,0.717980565554,3,429
2019_Apr_22,111,001,2,recog,69,TALKING,HF,lure,-,-,-,liberal,no,m,1,0.635524944881,1,430
2019_Apr_22,111,001,2,recog,70,NEITHER,HF,lure,-,-,-,liberal,no,z,0,2.17677750103,-1,429
2019_Apr_22,111,001,2,recog,71,THING,HF,target,left,aqua,imageability,conservative,no,m,0,0.670885797515,-1,428
2019_Apr_22,111,001,2,recog,72,INDEED,HF,target,right,yellow,pleasantness,conservative,no,z,1,0.718045454579,1,429
2019_Apr_22,111,001,2,recog,73,WHOLE,HF,lure,-,-,-,liberal,no,m,1,0.765006411915,1,430
2019_Apr_22,111,001,2,recog,74,BLOOD,HF,target,right,yellow,pleasantness,liberal,no,z,1,0.682736293202,3,433
2019_Apr_22,111,001,2,recog,75,MAJOR,HF,lure,-,-,-,liberal,no,m,1,0.67096241789,1,434
2019_Apr_22,111,001,2,recog,76,OUTSIDE,HF,lure,-,-,-,conservative,no,m,1,2.23565714252,3,437
2019_Apr_22,111,001,2,recog,77,BYPASS,LF,lure,-,-,-,liberal,no,m,1,3.31797088719,1,438
2019_Apr_22,111,001,2,recog,78,VACATED,LF,target,right,yellow,pleasantness,conservative,no,z,1,0.729769838261,1,439
2019_Apr_22,111,001,2,recog,79,ELUDE,LF,target,left,aqua,imageability,liberal,no,z,1,0.835600905367,3,442
2019_Apr_22,111,001,2,recog,80,ENERGY,HF,target,right,yellow,pleasantness,liberal,no,z,1,0.588323861491,3,445
2019_Apr_22,111,001,2,recog,81,NATIONAL,HF,target,right,yellow,pleasantness,conservative,no,z,1,0.70617589545,1,446
2019_Apr_22,111,001,2,recog,82,EUPHEMISM,LF,lure,-,-,-,conservative,no,m,1,0.61203951705,3,449
2019_Apr_22,111,001,2,recog,83,BAUXITE,LF,target,right,yellow,pleasantness,liberal,no,m,0,1.43553916914,-3,446
2019_Apr_22,111,001,2,recog,84,HANDS,HF,lure,-,-,-,conservative,no,m,1,0.835661028531,3,449
2019_Apr_22,111,001,2,recog,85,NIGHT,HF,target,left,aqua,imageability,conservative,no,m,0,0.917898519431,-1,448
2019_Apr_22,111,001,2,recog,86,INTEREST,HF,target,right,yellow,pleasantness,liberal,no,m,0,1.43563961882,-3,445
2019_Apr_22,111,001,2,recog,87,WALKED,HF,lure,-,-,-,liberal,no,m,1,1.90624159101,1,446
2019_Apr_22,111,001,2,recog,88,UNRAVEL,LF,lure,-,-,-,liberal,no,m,1,1.09441426473,1,447
2019_Apr_22,111,001,2,recog,89,HUSBAND,HF,target,left,aqua,imageability,liberal,no,z,1,0.576742087022,3,450
2019_Apr_22,111,001,2,recog,90,HOTEL,HF,target,right,yellow,pleasantness,conservative,no,z,1,1.4003663847,1,451
2019_Apr_22,111,001,2,recog,91,HAWKED,LF,target,left,aqua,imageability,liberal,no,z,1,0.682643175618,3,454
2019_Apr_22,111,001,2,recog,92,AFRAID,HF,target,right,yellow,pleasantness,conservative,no,z,1,1.87095442591,1,455
2019_Apr_22,111,001,2,recog,93,NEARLY,HF,lure,-,-,-,conservative,no,z,0,1.40031359363,-3,452
2019_Apr_22,111,001,2,recog,94,COUNCIL,HF,lure,-,-,-,conservative,no,m,1,2.14149180235,3,455
2019_Apr_22,111,001,2,recog,95,BUSINESS,HF,target,left,aqua,imageability,conservative,no,z,1,0.706179194892,1,456
2019_Apr_22,111,001,3,source,0,OFFER,HF,target,left,aqua,imageability,conservative,yes,9,0,1.58834255833,-,-
2019_Apr_22,111,001,3,source,1,LIKELY,HF,target,left,aqua,imageability,liberal,no,9,0,2.16505715,-,-
2019_Apr_22,111,001,3,source,2,LIVED,HF,target,right,yellow,pleasantness,conservative,no,9,1,1.77679861746,-,-
2019_Apr_22,111,001,3,source,3,OBVIOUSLY,HF,target,right,yellow,pleasantness,liberal,no,9,1,0.988520508231,-,-
2019_Apr_22,111,001,3,source,4,HISTORY,HF,target,right,yellow,pleasantness,liberal,no,9,1,0.776591852431,-,-
2019_Apr_22,111,001,3,source,5,THOUSAND,HF,target,left,aqua,imageability,liberal,no,1,1,1.54153117569,-,-
2019_Apr_22,111,001,3,source,6,CUBED,LF,target,left,aqua,imageability,conservative,no,1,1,1.70623748503,-,-
2019_Apr_22,111,001,3,source,7,OCHRE,LF,target,left,aqua,imageability,conservative,no,1,1,1.54148058425,-,-
2019_Apr_22,111,001,3,source,8,NUTSHELL,LF,target,left,aqua,imageability,liberal,no,9,0,2.00050848067,-,-
2019_Apr_22,111,001,3,source,9,REQUIRED,HF,target,right,yellow,pleasantness,liberal,no,9,1,2.15322425134,-,-
2019_Apr_22,111,001,3,source,10,INSIDE,HF,target,right,yellow,pleasantness,liberal,no,1,0,2.28267785642,-,-
2019_Apr_22,111,001,3,source,11,JOLLITY,LF,target,left,aqua,imageability,conservative,no,None,-1,-1,-,-
2019_Apr_22,111,001,3,source,12,LARGE,HF,target,right,yellow,pleasantness,conservative,no,9,1,1.23572166494,-,-
2019_Apr_22,111,001,3,source,13,KNOWLEDGE,HF,target,left,aqua,imageability,conservative,no,1,1,1.98858576386,-,-
2019_Apr_22,111,001,3,source,14,THEORY,HF,target,right,yellow,pleasantness,conservative,no,9,1,2.45923722768,-,-
2019_Apr_22,111,001,3,source,15,RUINOUS,LF,target,right,yellow,pleasantness,conservative,no,9,1,0.988596395397,-,-
2019_Apr_22,111,001,3,source,16,GREATER,HF,target,left,aqua,imageability,conservative,no,9,0,1.58856398754,-,-
2019_Apr_22,111,001,3,source,17,PLIABLE,LF,target,left,aqua,imageability,liberal,no,1,1,1.00043149369,-,-
2019_Apr_22,111,001,3,source,18,RODENTS,LF,target,right,yellow,pleasantness,liberal,no,9,1,1.35334677062,-,-
2019_Apr_22,111,001,3,source,19,NOSTRIL,LF,target,right,yellow,pleasantness,liberal,yes,9,1,0.694382956696,-,-
2019_Apr_22,111,001,3,source,20,CYNIC,LF,target,right,yellow,pleasantness,conservative,no,9,1,0.65928862565,-,-
2019_Apr_22,111,001,3,source,21,SWAGGER,LF,target,left,aqua,imageability,conservative,no,1,1,0.776715764807,-,-
2019_Apr_22,111,001,3,source,22,TINGLING,LF,target,right,yellow,pleasantness,liberal,no,9,1,0.87093572907,-,-
2019_Apr_22,111,001,3,source,23,ALDER,LF,target,right,yellow,pleasantness,liberal,no,1,0,0.905938408951,-,-
2019_Apr_22,111,001,3,source,24,RATHER,HF,target,left,aqua,imageability,conservative,no,1,1,1.32968573915,-,-
2019_Apr_22,111,001,3,source,25,BUMBLING,LF,target,right,yellow,pleasantness,liberal,no,9,1,0.706167463543,-,-
2019_Apr_22,111,001,3,source,26,KITCHEN,HF,target,left,aqua,imageability,liberal,no,9,0,1.85895362231,-,-
2019_Apr_22,111,001,3,source,27,INITIATES,LF,target,left,aqua,imageability,liberal,no,9,0,1.03559841246,-,-
2019_Apr_22,111,001,3,source,28,GYMKHANA,LF,target,left,aqua,imageability,liberal,no,9,0,1.11797411331,-,-
2019_Apr_22,111,001,3,source,29,SOUND,HF,target,left,aqua,imageability,conservative,yes,9,0,0.576759684046,-,-
2019_Apr_22,111,001,3,source,30,TROUBLE,HF,target,left,aqua,imageability,liberal,no,9,0,0.494232575464,-,-
2019_Apr_22,111,001,3,source,31,ENOUGH,HF,target,right,yellow,pleasantness,conservative,yes,1,0,0.906087983652,-,-
2019_Apr_22,111,001,3,source,32,SUMMER,HF,target,left,aqua,imageability,liberal,no,1,1,0.776715398202,-,-
2019_Apr_22,111,001,3,source,33,CASES,HF,target,left,aqua,imageability,conservative,no,9,0,0.917669024912,-,-
2019_Apr_22,111,001,3,source,34,SMIRK,LF,target,right,yellow,pleasantness,conservative,no,1,0,3.20053568273,-,-
2019_Apr_22,111,001,3,source,35,JAILS,LF,target,left,aqua,imageability,liberal,no,1,1,2.61206957863,-,-
2019_Apr_22,111,001,3,source,36,NEOLITHIC,LF,target,right,yellow,pleasantness,conservative,no,9,1,1.01204772899,-,-
2019_Apr_22,111,001,3,source,37,AVAILABLE,HF,target,right,yellow,pleasantness,liberal,no,9,1,0.976772661851,-,-
2019_Apr_22,111,001,3,source,38,PHYSICAL,HF,target,left,aqua,imageability,liberal,no,9,0,0.82378890317,-,-
2019_Apr_22,111,001,3,source,39,ALABASTER,LF,target,left,aqua,imageability,conservative,no,9,0,0.612048315561,-,-
2019_Apr_22,111,001,3,source,40,VETOED,LF,target,right,yellow,pleasantness,conservative,no,9,1,0.682624112175,-,-
2019_Apr_22,111,001,3,source,41,ALREADY,HF,target,right,yellow,pleasantness,conservative,no,9,1,0.741240531518,-,-
2019_Apr_22,111,001,3,source,42,PYJAMA,LF,target,right,yellow,pleasantness,conservative,no,9,1,0.576815407954,-,-
2019_Apr_22,111,001,3,source,43,ATHEIST,LF,target,left,aqua,imageability,liberal,no,9,0,0.541549505927,-,-
2019_Apr_22,111,001,3,source,44,LOPSIDED,LF,target,right,yellow,pleasantness,liberal,no,1,0,1.55340146803,-,-
2019_Apr_22,111,001,3,source,45,ACCORDING,HF,target,right,yellow,pleasantness,conservative,no,9,1,1.50599691905,-,-
2019_Apr_22,111,001,3,source,46,ROUND,HF,target,right,yellow,pleasantness,liberal,no,9,1,0.74144436371,-,-
2019_Apr_22,111,001,3,source,47,BACHELORS,LF,target,left,aqua,imageability,conservative,no,9,0,0.659073428714,-,-
2019_Apr_22,111,001,3,recog,0,MOMENT,HF,lure,-,-,-,liberal,no,m,1,2.16508977782,1,457
2019_Apr_22,111,001,3,recog,1,BUMBLING,LF,target,right,yellow,pleasantness,liberal,no,z,1,2.45922659614,3,460
2019_Apr_22,111,001,3,recog,2,PHYSICAL,HF,target,left,aqua,imageability,liberal,no,z,1,0.776712098761,3,463
2019_Apr_22,111,001,3,recog,3,SMIRK,LF,target,right,yellow,pleasantness,conservative,no,z,1,3.43571403957,1,464
2019_Apr_22,111,001,3,recog,4,ALDER,LF,target,right,yellow,pleasantness,liberal,no,z,1,0.941532055545,3,467
2019_Apr_22,111,001,3,recog,5,CAUGHT,HF,lure,-,-,-,conservative,no,m,1,3.49455152152,3,470
2019_Apr_22,111,001,3,recog,6,LADDIE,LF,lure,-,-,-,liberal,no,m,1,0.88279355685,1,471
2019_Apr_22,111,001,3,recog,7,PRACTICE,HF,lure,-,-,-,conservative,no,m,1,0.718154336163,3,474
2019_Apr_22,111,001,3,recog,8,SUGARY,LF,lure,-,-,-,conservative,no,m,1,0.552993803648,3,477
2019_Apr_22,111,001,3,recog,9,TROUBLE,HF,target,left,aqua,imageability,liberal,no,z,1,2.729655091,3,480
2019_Apr_22,111,001,3,recog,10,JAILS,LF,target,left,aqua,imageability,liberal,no,z,1,0.682680935898,3,483
2019_Apr_22,111,001,3,recog,11,RODENTS,LF,target,right,yellow,pleasantness,liberal,no,z,1,1.02378860989,3,486
2019_Apr_22,111,001,3,recog,12,OBVIOUSLY,HF,target,right,yellow,pleasantness,liberal,no,z,1,1.0473752206,3,489
2019_Apr_22,111,001,3,recog,13,SIFTED,LF,lure,-,-,-,liberal,no,m,1,0.729802832681,1,490
2019_Apr_22,111,001,3,recog,14,REQUIRED,HF,target,right,yellow,pleasantness,liberal,no,z,1,0.635556106277,3,493
2019_Apr_22,111,001,3,recog,15,COACHED,LF,lure,-,-,-,liberal,no,m,1,1.0708969423,1,494
2019_Apr_22,111,001,3,recog,16,SYSTEM,HF,lure,-,-,-,liberal,no,m,1,0.823901450801,1,495
2019_Apr_22,111,001,3,recog,17,PLIABLE,LF,target,left,aqua,imageability,liberal,no,z,1,1.04744890814,3,498
2019_Apr_22,111,001,3,recog,18,LINEAGE,LF,lure,-,-,-,conservative,no,m,1,0.788595588866,3,501
2019_Apr_22,111,001,3,recog,19,ABOVE,HF,lure,-,-,-,conservative,no,m,1,1.60036829104,3,504
2019_Apr_22,111,001,3,recog,20,ALABASTER,LF,target,left,aqua,imageability,conservative,no,z,1,0.682682035711,1,505
2019_Apr_22,111,001,3,recog,21,RATHER,HF,target,left,aqua,imageability,conservative,no,z,1,2.27092341115,1,506
2019_Apr_22,111,001,3,recog,22,JOLLITY,LF,target,left,aqua,imageability,conservative,no,z,1,1.23568097182,1,507
2019_Apr_22,111,001,3,recog,23,INITIATES,LF,target,left,aqua,imageability,liberal,no,z,1,1.14150060087,3,510
2019_Apr_22,111,001,3,recog,24,FIDDLED,LF,lure,-,-,-,liberal,no,m,1,3.2474126876,1,511
2019_Apr_22,111,001,3,recog,25,CLEAR,HF,lure,-,-,-,liberal,no,m,1,0.812036290929,1,512
2019_Apr_22,111,001,3,recog,26,CASES,HF,target,left,aqua,imageability,conservative,no,z,1,0.835673859695,1,513
2019_Apr_22,111,001,3,recog,27,THEORY,HF,target,right,yellow,pleasantness,conservative,no,z,1,0.635561238742,1,514
2019_Apr_22,111,001,3,recog,28,AVAILABLE,HF,target,right,yellow,pleasantness,liberal,no,z,1,1.65916361346,3,517
2019_Apr_22,111,001,3,recog,29,NUTSHELL,LF,target,left,aqua,imageability,liberal,no,z,1,2.8121517714,3,520
2019_Apr_22,111,001,3,recog,30,LULLED,LF,lure,-,-,-,conservative,yes,m,1,1.02386962952,3,523
2019_Apr_22,111,001,3,recog,31,TINGLING,LF,target,right,yellow,pleasantness,liberal,no,z,1,0.72970054998,3,526
2019_Apr_22,111,001,3,recog,32,BOTANIST,LF,lure,-,-,-,liberal,no,m,1,0.859188615899,1,527
2019_Apr_22,111,001,3,recog,33,NICETIES,LF,lure,-,-,-,conservative,no,m,1,0.835412470571,3,530
2019_Apr_22,111,001,3,recog,34,ANNALS,LF,lure,-,-,-,liberal,no,m,1,1.29451368792,1,531
2019_Apr_22,111,001,3,recog,35,SPEAK,HF,lure,-,-,-,liberal,no,m,1,0.635623561535,1,532
2019_Apr_22,111,001,3,recog,36,ALREADY,HF,target,right,yellow,pleasantness,conservative,no,z,1,0.6708374057,1,533
2019_Apr_22,111,001,3,recog,37,ACCORDING,HF,target,right,yellow,pleasantness,conservative,yes,m,0,0.870915932419,-1,532
2019_Apr_22,111,001,3,recog,38,VETOED,LF,target,right,yellow,pleasantness,conservative,no,m,0,0.800352600364,-1,531
2019_Apr_22,111,001,3,recog,39,LARGE,HF,target,right,yellow,pleasantness,conservative,no,m,0,0.576739887394,-1,530
2019_Apr_22,111,001,3,recog,40,HOWEVER,HF,lure,-,-,-,liberal,no,z,0,1.50599691905,-1,529
2019_Apr_22,111,001,3,recog,41,MYSELF,HF,lure,-,-,-,liberal,no,z,0,4.09445459125,-1,528
2019_Apr_22,111,001,3,recog,42,UNLESS,HF,lure,-,-,-,liberal,no,m,1,0.906180734632,1,529
2019_Apr_22,111,001,3,recog,43,PEGGED,LF,lure,-,-,-,liberal,no,m,1,0.717396564328,1,530
2019_Apr_22,111,001,3,recog,44,GREATER,HF,target,left,aqua,imageability,conservative,no,z,1,4.27102312762,1,531
2019_Apr_22,111,001,3,recog,45,FAILINGS,LF,lure,-,-,-,conservative,no,m,1,0.623754002407,3,534
2019_Apr_22,111,001,3,recog,46,SUING,LF,lure,-,-,-,conservative,no,m,1,0.670868567096,3,537
2019_Apr_22,111,001,3,recog,47,ENLIGHTEN,LF,lure,-,-,-,conservative,no,z,0,0.859212445202,-3,534
2019_Apr_22,111,001,3,recog,48,INSIDE,HF,target,right,yellow,pleasantness,liberal,no,m,0,1.05915312857,-3,531
2019_Apr_22,111,001,3,recog,49,REPORT,HF,lure,-,-,-,conservative,no,m,1,3.05933533108,3,534
2019_Apr_22,111,001,3,recog,50,ATHEIST,LF,target,left,aqua,imageability,liberal,no,z,1,0.635540708881,3,537
2019_Apr_22,111,001,3,recog,51,SOVIET,HF,lure,-,-,-,liberal,no,m,1,0.847360849702,1,538
2019_Apr_22,111,001,3,recog,52,SQUADRONS,LF,lure,-,-,-,liberal,no,m,1,0.635560872138,1,539
2019_Apr_22,111,001,3,recog,53,THOUSAND,HF,target,left,aqua,imageability,liberal,no,z,1,0.659188909182,3,542
2019_Apr_22,111,001,3,recog,54,OCHRE,LF,target,left,aqua,imageability,conservative,yes,m,0,0.882608421496,-1,541
2019_Apr_22,111,001,3,recog,55,KNOWLEDGE,HF,target,left,aqua,imageability,conservative,yes,z,1,0.917920882315,1,542
2019_Apr_22,111,001,3,recog,56,APART,HF,lure,-,-,-,conservative,no,m,1,0.764946288751,3,545
2019_Apr_22,111,001,3,recog,57,SWAGGER,LF,target,left,aqua,imageability,conservative,no,z,1,0.74150338706,1,546
2019_Apr_22,111,001,3,recog,58,LIKELY,HF,target,left,aqua,imageability,liberal,no,m,0,0.870952592885,-3,543
2019_Apr_22,111,001,3,recog,59,HISTORY,HF,target,right,yellow,pleasantness,liberal,no,z,1,0.91794251199,3,546
2019_Apr_22,111,001,3,recog,60,OFFER,HF,target,left,aqua,imageability,conservative,no,z,1,3.2474676783,1,547
2019_Apr_22,111,001,3,recog,61,DETACH,LF,lure,-,-,-,conservative,no,z,0,4.09459646725,-3,544
2019_Apr_22,111,001,3,recog,62,EARLIER,HF,lure,-,-,-,conservative,no,m,1,1.55321266663,3,547
2019_Apr_22,111,001,3,recog,63,MAGGOT,LF,lure,-,-,-,conservative,no,m,1,0.694339330741,3,550
2019_Apr_22,111,001,3,recog,64,YOUNG,HF,lure,-,-,-,liberal,no,m,1,0.929500457156,1,551
2019_Apr_22,111,001,3,recog,65,BACHELORS,LF,target,left,aqua,imageability,conservative,no,m,0,1.85910063078,-1,550
2019_Apr_22,111,001,3,recog,66,ENOUGH,HF,target,right,yellow,pleasantness,conservative,no,z,1,1.0475163634,1,551
2019_Apr_22,111,001,3,recog,67,RAMBLE,LF,lure,-,-,-,liberal,no,z,0,4.32990790158,-1,550
2019_Apr_22,111,001,3,recog,68,RUINOUS,LF,target,right,yellow,pleasantness,conservative,no,z,1,0.988653952328,1,551
2019_Apr_22,111,001,3,recog,69,KITCHEN,HF,target,left,aqua,imageability,liberal,no,z,1,0.68243971003,3,554
2019_Apr_22,111,001,3,recog,70,SHORT,HF,lure,-,-,-,conservative,no,m,1,0.929721153163,3,557
2019_Apr_22,111,001,3,recog,71,CUBED,LF,target,left,aqua,imageability,conservative,no,z,1,0.776790552158,1,558
2019_Apr_22,111,001,3,recog,72,SPOKE,HF,lure,-,-,-,conservative,no,m,1,0.764948854984,3,561
2019_Apr_22,111,001,3,recog,73,SOUND,HF,target,left,aqua,imageability,conservative,no,m,0,1.54159349849,-1,560
2019_Apr_22,111,001,3,recog,74,GURGLE,LF,lure,-,-,-,conservative,no,m,1,0.906227660028,3,563
2019_Apr_22,111,001,3,recog,75,ROUND,HF,target,right,yellow,pleasantness,liberal,no,z,1,0.941517024754,3,566
2019_Apr_22,111,001,3,recog,76,CYNIC,LF,target,right,yellow,pleasantness,conservative,no,z,1,1.51791706963,1,567
2019_Apr_22,111,001,3,recog,77,PYJAMA,LF,target,right,yellow,pleasantness,conservative,no,z,1,2.15341085311,1,568
2019_Apr_22,111,001,3,recog,78,GARDEN,HF,lure,-,-,-,conservative,no,z,0,4.80042005562,-3,565
2019_Apr_22,111,001,3,recog,79,SUMMER,HF,target,left,aqua,imageability,liberal,no,z,1,0.741456828268,3,568
2019_Apr_22,111,001,3,recog,80,ZEBRA,LF,lure,-,-,-,conservative,no,m,1,1.20051075361,3,571
2019_Apr_22,111,001,3,recog,81,TWINE,LF,lure,-,-,-,liberal,no,m,1,0.541164571032,1,572
2019_Apr_22,111,001,3,recog,82,ENSCONCED,LF,lure,-,-,-,liberal,no,m,1,0.470877658892,1,573
2019_Apr_22,111,001,3,recog,83,FEELING,HF,lure,-,-,-,conservative,no,m,1,0.494466102633,3,576
2019_Apr_22,111,001,3,recog,84,FUDGE,LF,lure,-,-,-,liberal,no,m,1,0.635605597907,1,577
2019_Apr_22,111,001,3,recog,85,NEOLITHIC,LF,target,right,yellow,pleasantness,conservative,no,m,0,0.765045638614,-1,576
2019_Apr_22,111,001,3,recog,86,BRING,HF,lure,-,-,-,conservative,no,z,0,2.77675169206,-3,573
2019_Apr_22,111,001,3,recog,87,SIMILAR,HF,lure,-,-,-,liberal,no,m,1,0.741424567058,1,574
2019_Apr_22,111,001,3,recog,88,MARKET,HF,lure,-,-,-,liberal,no,m,1,0.435533303467,1,575
2019_Apr_22,111,001,3,recog,89,FINAL,HF,lure,-,-,-,liberal,no,m,1,1.41203761071,1,576
2019_Apr_22,111,001,3,recog,90,GYMKHANA,LF,target,left,aqua,imageability,liberal,no,z,1,4.88279319025,3,579
2019_Apr_22,111,001,3,recog,91,PAVILIONS,LF,lure,-,-,-,conservative,no,m,1,0.776768189274,3,582
2019_Apr_22,111,001,3,recog,92,LOPSIDED,LF,target,right,yellow,pleasantness,liberal,no,z,1,0.706192026055,3,585
2019_Apr_22,111,001,3,recog,93,BEAUTIFUL,HF,lure,-,-,-,conservative,no,m,1,0.659283493185,3,588
2019_Apr_22,111,001,3,recog,94,LIVED,HF,target,right,yellow,pleasantness,conservative,no,m,0,2.03560647776,-1,587
2019_Apr_22,111,001,3,recog,95,NOSTRIL,LF,target,right,yellow,pleasantness,liberal,no,z,1,1.03537771645,3,590
2019_Apr_22,111,001,4,source,0,POSITION,HF,target,right,yellow,pleasantness,conservative,no,9,1,3.70621255592,-,-
2019_Apr_22,111,001,4,source,1,GIVEN,HF,target,left,aqua,imageability,conservative,no,9,0,0.894442419972,-,-
2019_Apr_22,111,001,4,source,2,EQUALLED,LF,target,left,aqua,imageability,conservative,no,1,1,1.47096637722,-,-
2019_Apr_22,111,001,4,source,3,YEOMAN,LF,target,right,yellow,pleasantness,conservative,no,9,1,0.823633096189,-,-
2019_Apr_22,111,001,4,source,4,ROLLERS,LF,target,left,aqua,imageability,conservative,no,1,1,0.835584408157,-,-
2019_Apr_22,111,001,4,source,5,POUNDS,HF,target,left,aqua,imageability,conservative,no,9,0,1.70622502047,-,-
2019_Apr_22,111,001,4,source,6,RANGE,HF,target,left,aqua,imageability,liberal,no,1,1,3.97665278213,-,-
2019_Apr_22,111,001,4,source,7,CRUCIALLY,LF,target,right,yellow,pleasantness,conservative,no,1,0,0.706167096938,-,-
2019_Apr_22,111,001,4,source,8,RUNNING,HF,target,left,aqua,imageability,conservative,no,1,1,1.20020757156,-,-
2019_Apr_22,111,001,4,source,9,USING,HF,target,right,yellow,pleasantness,liberal,no,9,1,3.36475990694,-,-
2019_Apr_22,111,001,4,source,10,THUDDING,LF,target,right,yellow,pleasantness,liberal,no,9,1,1.56504189925,-,-
2019_Apr_22,111,001,4,source,11,FAMILY,HF,target,left,aqua,imageability,conservative,no,1,1,2.24747024453,-,-
2019_Apr_22,111,001,4,source,12,POWER,HF,target,left,aqua,imageability,conservative,no,1,1,0.800254716919,-,-
2019_Apr_22,111,001,4,source,13,REACHED,HF,target,right,yellow,pleasantness,conservative,no,9,1,0.753312823024,-,-
2019_Apr_22,111,001,4,source,14,PICTURE,HF,target,right,yellow,pleasantness,conservative,no,1,0,1.15307101059,-,-
2019_Apr_22,111,001,4,source,15,RUGGER,LF,target,right,yellow,pleasantness,conservative,no,9,1,0.753059499204,-,-
2019_Apr_22,111,001,4,source,16,SPLASHES,LF,target,left,aqua,imageability,liberal,no,1,1,0.694435014558,-,-
2019_Apr_22,111,001,4,source,17,BINDINGS,LF,target,right,yellow,pleasantness,liberal,no,9,1,0.553233563096,-,-
2019_Apr_22,111,001,4,source,18,GESTURING,LF,target,left,aqua,imageability,conservative,no,1,1,1.64733694708,-,-
2019_Apr_22,111,001,4,source,19,BELIEVE,HF,target,right,yellow,pleasantness,liberal,no,9,1,0.694418883953,-,-
2019_Apr_22,111,001,4,source,20,BLIGHTED,LF,target,left,aqua,imageability,liberal,yes,9,0,2.8709379287,-,-
2019_Apr_22,111,001,4,source,21,PRYING,LF,target,left,aqua,imageability,liberal,no,9,0,1.11799354336,-,-
2019_Apr_22,111,001,4,source,22,EDUCATION,HF,target,left,aqua,imageability,liberal,no,9,0,0.706191292846,-,-
2019_Apr_22,111,001,4,source,23,ARSENALS,LF,target,right,yellow,pleasantness,liberal,no,9,1,0.753370379956,-,-
2019_Apr_22,111,001,4,source,24,NUMBER,HF,target,right,yellow,pleasantness,liberal,no,9,1,0.482642735692,-,-
2019_Apr_22,111,001,4,source,25,SHALL,HF,target,right,yellow,pleasantness,liberal,no,9,1,0.400060636411,-,-
2019_Apr_22,111,001,4,source,26,LIFEBOAT,LF,target,right,yellow,pleasantness,liberal,no,9,1,1.58834695758,-,-
2019_Apr_22,111,001,4,source,27,OTHERS,HF,target,right,yellow,pleasantness,conservative,no,9,1,4.04765933922,-,-
2019_Apr_22,111,001,4,source,28,AREAS,HF,target,left,aqua,imageability,liberal,no,9,0,0.611843383556,-,-
2019_Apr_22,111,001,4,source,29,TOMBSTONE,LF,target,left,aqua,imageability,liberal,yes,9,0,0.459204599862,-,-
2019_Apr_22,111,001,4,source,30,DEEPEN,LF,target,right,yellow,pleasantness,conservative,no,9,1,0.659140883972,-,-
2019_Apr_22,111,001,4,source,31,SCENARIOS,LF,target,left,aqua,imageability,conservative,no,1,1,0.74145536185,-,-
2019_Apr_22,111,001,4,source,32,MUGGING,LF,target,left,aqua,imageability,liberal,no,1,1,1.00031711303,-,-
2019_Apr_22,111,001,4,source,33,WETTER,LF,target,left,aqua,imageability,liberal,no,1,1,2.50595622594,-,-
2019_Apr_22,111,001,4,source,34,WHETHER,HF,target,left,aqua,imageability,liberal,no,1,1,3.31795988905,-,-
2019_Apr_22,111,001,4,source,35,JOTTED,LF,target,right,yellow,pleasantness,conservative,no,9,1,0.976708506035,-,-
2019_Apr_22,111,001,4,source,36,WATCH,HF,target,right,yellow,pleasantness,liberal,no,9,1,1.01208622248,-,-
2019_Apr_22,111,001,4,source,37,TUMBLER,LF,target,left,aqua,imageability,conservative,no,1,1,0.776829045647,-,-
2019_Apr_22,111,001,4,source,38,TODAY,HF,target,right,yellow,pleasantness,conservative,no,1,0,0.95305847271,-,-
2019_Apr_22,111,001,4,source,39,LEFTISTS,LF,target,right,yellow,pleasantness,conservative,no,9,1,3.12981251104,-,-
2019_Apr_22,111,001,4,source,40,UNDER,HF,target,left,aqua,imageability,liberal,no,1,1,2.8121360074,-,-
2019_Apr_22,111,001,4,source,41,TAPER,LF,target,left,aqua,imageability,conservative,no,1,1,1.3532276241,-,-
2019_Apr_22,111,001,4,source,42,SERIOUS,HF,target,left,aqua,imageability,liberal,no,1,1,0.894439487135,-,-
2019_Apr_22,111,001,4,source,43,AFTERNOON,HF,target,right,yellow,pleasantness,conservative,no,1,0,0.717712944151,-,-
2019_Apr_22,111,001,4,source,44,MORNING,HF,target,left,aqua,imageability,conservative,no,9,0,3.18858473737,-,-
2019_Apr_22,111,001,4,source,45,PISTONS,LF,target,right,yellow,pleasantness,liberal,no,9,1,0.823850126148,-,-
2019_Apr_22,111,001,4,source,46,EVENING,HF,target,right,yellow,pleasantness,liberal,yes,9,1,0.564714887888,-,-
2019_Apr_22,111,001,4,source,47,SYMBOLIZE,LF,target,right,yellow,pleasantness,liberal,yes,9,1,0.506140261477,-,-
2019_Apr_22,111,001,4,recog,0,ROPED,LF,lure,-,-,-,liberal,no,m,1,1.2590831804,1,591
2019_Apr_22,111,001,4,recog,1,MODERN,HF,lure,-,-,-,liberal,no,m,1,0.906222894168,1,592
2019_Apr_22,111,001,4,recog,2,PRYING,LF,target,left,aqua,imageability,liberal,no,z,1,0.612099273609,3,595
2019_Apr_22,111,001,4,recog,3,GESTURING,LF,target,left,aqua,imageability,conservative,no,z,1,0.682767821203,1,596
2019_Apr_22,111,001,4,recog,4,SIPHON,LF,lure,-,-,-,conservative,no,m,1,0.518052713351,3,599
2019_Apr_22,111,001,4,recog,5,TODAY,HF,target,right,yellow,pleasantness,conservative,no,m,0,1.31795548979,-1,598
2019_Apr_22,111,001,4,recog,6,SEVEN,HF,lure,-,-,-,conservative,no,m,1,0.635571870278,3,601
2019_Apr_22,111,001,4,recog,7,ROBBERIES,LF,lure,-,-,-,liberal,no,m,1,0.753301824885,1,602
2019_Apr_22,111,001,4,recog,8,ROLLERS,LF,target,left,aqua,imageability,conservative,no,z,1,0.635710813444,1,603
2019_Apr_22,111,001,4,recog,9,SOCIAL,HF,lure,-,-,-,liberal,no,m,1,0.812076984046,1,604
2019_Apr_22,111,001,4,recog,10,NADIR,LF,lure,-,-,-,liberal,no,m,1,0.729721079841,1,605
2019_Apr_22,111,001,4,recog,11,PICTURE,HF,target,right,yellow,pleasantness,conservative,no,m,0,1.30623403895,-1,604
2019_Apr_22,111,001,4,recog,12,INCLUDING,HF,lure,-,-,-,conservative,no,m,1,1.90629804812,3,607
2019_Apr_22,111,001,4,recog,13,UNDER,HF,target,left,aqua,imageability,liberal,no,z,1,0.635539609067,3,610
2019_Apr_22,111,001,4,recog,14,EDUCATION,HF,target,left,aqua,imageability,liberal,no,z,1,0.517922568697,3,613
2019_Apr_22,111,001,4,recog,15,ANSWER,HF,lure,-,-,-,liberal,no,z,0,1.09441536455,-1,612
2019_Apr_22,111,001,4,recog,16,FLYWHEEL,LF,lure,-,-,-,conservative,no,m,1,0.929685959115,3,615
2019_Apr_22,111,001,4,recog,17,HAVING,HF,lure,-,-,-,conservative,no,m,1,0.835660661926,3,618
2019_Apr_22,111,001,4,recog,18,NORTH,HF,lure,-,-,-,liberal,no,m,1,1.6353852685,1,619
2019_Apr_22,111,001,4,recog,19,GROUND,HF,lure,-,-,-,liberal,no,m,1,1.15324808064,1,620
2019_Apr_22,111,001,4,recog,20,GIVEN,HF,target,left,aqua,imageability,conservative,no,z,1,0.929775044048,1,621
2019_Apr_22,111,001,4,recog,21,DRINK,HF,lure,-,-,-,conservative,yes,m,1,1.3412499166,3,624
2019_Apr_22,111,001,4,recog,22,HEALTH,HF,lure,-,-,-,conservative,no,m,1,1.30623513876,3,627
2019_Apr_22,111,001,4,recog,23,POSITION,HF,target,right,yellow,pleasantness,conservative,no,z,1,0.729697617143,1,628
2019_Apr_22,111,001,4,recog,24,BINDINGS,LF,target,right,yellow,pleasantness,liberal,no,z,1,1.52977306438,3,631
2019_Apr_22,111,001,4,recog,25,BLIGHTED,LF,target,left,aqua,imageability,liberal,no,z,1,0.659069029458,3,634
2019_Apr_22,111,001,4,recog,26,SHALL,HF,target,right,yellow,pleasantness,liberal,no,z,1,0.706131902891,3,637
2019_Apr_22,111,001,4,recog,27,ENCLOSE,LF,lure,-,-,-,conservative,no,m,1,0.600354726671,3,640
2019_Apr_22,111,001,4,recog,28,SITTING,HF,lure,-,-,-,liberal,no,z,0,1.63565838898,-1,639
2019_Apr_22,111,001,4,recog,29,TRADE,HF,lure,-,-,-,conservative,no,m,1,1.1884930862,3,642
2019_Apr_22,111,001,4,recog,30,GETTING,HF,lure,-,-,-,conservative,no,m,1,0.729722912864,3,645
2019_Apr_22,111,001,4,recog,31,POWER,HF,target,left,aqua,imageability,conservative,no,z,1,3.1647583672,1,646
2019_Apr_22,111,001,4,recog,32,JOTTED,LF,target,right,yellow,pleasantness,conservative,no,z,1,0.659157381182,1,647
2019_Apr_22,111,001,4,recog,33,TURNED,HF,lure,-,-,-,liberal,no,m,1,0.70617039638,1,648
2019_Apr_22,111,001,4,recog,34,SYMBOLIZE,LF,target,right,yellow,pleasantness,liberal,no,m,0,0.623860317758,-3,645
2019_Apr_22,111,001,4,recog,35,USING,HF,target,right,yellow,pleasantness,liberal,no,z,1,1.25914733621,3,648
2019_Apr_22,111,001,4,recog,36,BELIEVE,HF,target,right,yellow,pleasantness,liberal,no,z,1,1.23560251843,3,651
2019_Apr_22,111,001,4,recog,37,EQUALLED,LF,target,left,aqua,imageability,conservative,no,z,1,0.682590017941,1,652
2019_Apr_22,111,001,4,recog,38,VOYAGES,LF,lure,-,-,-,liberal,no,m,1,0.765039039731,1,653
2019_Apr_22,111,001,4,recog,39,HAPPEN,HF,lure,-,-,-,liberal,no,z,0,1.07095779867,-1,652
2019_Apr_22,111,001,4,recog,40,YEOMAN,LF,target,right,yellow,pleasantness,conservative,no,z,1,0.741526849759,1,653
2019_Apr_22,111,001,4,recog,41,ARSENALS,LF,target,right,yellow,pleasantness,liberal,no,m,0,0.965072474075,-3,650
2019_Apr_22,111,001,4,recog,42,LEFTISTS,LF,target,right,yellow,pleasantness,conservative,no,z,1,1.22366367102,1,651
2019_Apr_22,111,001,4,recog,43,WETTER,LF,target,left,aqua,imageability,liberal,no,z,1,0.729696517329,3,654
2019_Apr_22,111,001,4,recog,44,SERIOUS,HF,target,left,aqua,imageability,liberal,no,z,1,1.15327081013,3,657
2019_Apr_22,111,001,4,recog,45,MUGGING,LF,target,left,aqua,imageability,liberal,no,z,1,0.659101290668,3,660
2019_Apr_22,111,001,4,recog,46,HAMLETS,LF,lure,-,-,-,liberal,no,m,1,0.529747035451,1,661
2019_Apr_22,111,001,4,recog,47,PISTONS,LF,target,right,yellow,pleasantness,liberal,no,z,1,3.16517116405,3,664
2019_Apr_22,111,001,4,recog,48,AFTERNOON,HF,target,right,yellow,pleasantness,conservative,no,m,0,2.67095068654,-1,663
2019_Apr_22,111,001,4,recog,49,THUDDING,LF,target,right,yellow,pleasantness,liberal,no,z,1,1.60038662128,3,666
2019_Apr_22,111,001,4,recog,50,OPTIC,LF,lure,-,-,-,liberal,no,m,1,0.882606221868,1,667
2019_Apr_22,111,001,4,recog,51,PSEUDONYM,LF,lure,-,-,-,liberal,no,m,1,1.15320958715,1,668
2019_Apr_22,111,001,4,recog,52,STUDENT,HF,lure,-,-,-,conservative,no,m,1,1.07091600574,3,671
2019_Apr_22,111,001,4,recog,53,TEXTURES,LF,lure,-,-,-,conservative,no,m,1,0.859077534687,3,674
2019_Apr_22,111,001,4,recog,54,TUMBLER,LF,target,left,aqua,imageability,conservative,no,z,1,1.61184631639,1,675
2019_Apr_22,111,001,4,recog,55,CLOSE,HF,lure,-,-,-,liberal,no,m,1,0.635322212503,1,676
2019_Apr_22,111,001,4,recog,56,SPLASHES,LF,target,left,aqua,imageability,liberal,no,m,0,1.20027136077,-3,673
2019_Apr_22,111,001,4,recog,57,SAMENESS,LF,lure,-,-,-,liberal,no,m,1,0.859153788456,1,674
2019_Apr_22,111,001,4,recog,58,AREAS,HF,target,left,aqua,imageability,liberal,no,z,1,0.647395603823,3,677
2019_Apr_22,111,001,4,recog,59,RANGE,HF,target,left,aqua,imageability,liberal,no,z,1,0.706153532566,3,680
2019_Apr_22,111,001,4,recog,60,EVENING,HF,target,right,yellow,pleasantness,liberal,no,z,1,0.965009418074,3,683
2019_Apr_22,111,001,4,recog,61,RADIAL,LF,lure,-,-,-,conservative,no,m,1,0.847352784399,3,686
2019_Apr_22,111,001,4,recog,62,WEAKENS,LF,lure,-,-,-,conservative,no,m,1,1.58854529071,3,689
2019_Apr_22,111,001,4,recog,63,FRONT,HF,lure,-,-,-,conservative,no,m,1,1.12975128807,3,692
2019_Apr_22,111,001,4,recog,64,SCENARIOS,LF,target,left,aqua,imageability,conservative,no,z,1,0.682560689569,1,693
2019_Apr_22,111,001,4,recog,65,TAPER,LF,target,left,aqua,imageability,conservative,no,z,1,0.588542357869,1,694
2019_Apr_22,111,001,4,recog,66,VICEREGAL,LF,lure,-,-,-,liberal,no,m,1,0.48278021244,1,695
2019_Apr_22,111,001,4,recog,67,WHETHER,HF,target,left,aqua,imageability,liberal,no,m,0,0.78861795175,-3,692
2019_Apr_22,111,001,4,recog,68,EMULATION,LF,lure,-,-,-,liberal,no,m,1,0.65917057895,1,693
2019_Apr_22,111,001,4,recog,69,MORNING,HF,target,left,aqua,imageability,conservative,no,z,1,0.600280305925,1,694
2019_Apr_22,111,001,4,recog,70,EVIDENCE,HF,lure,-,-,-,conservative,no,m,1,0.623792862501,3,697
2019_Apr_22,111,001,4,recog,71,WATCH,HF,target,right,yellow,pleasantness,liberal,no,z,1,0.741477358129,3,700
2019_Apr_22,111,001,4,recog,72,POUNDS,HF,target,left,aqua,imageability,conservative,no,m,0,0.600233747132,-1,699
2019_Apr_22,111,001,4,recog,73,METABOLIC,LF,lure,-,-,-,conservative,no,m,1,0.623774898872,3,702
2019_Apr_22,111,001,4,recog,74,TOMBSTONE,LF,target,left,aqua,imageability,liberal,yes,z,1,1.11811415629,3,705
2019_Apr_22,111,001,4,recog,75,RUNNING,HF,target,left,aqua,imageability,conservative,no,m,0,1.18852241458,-1,704
2019_Apr_22,111,001,4,recog,76,FAMILY,HF,target,left,aqua,imageability,conservative,yes,m,0,1.28259353735,-1,703
2019_Apr_22,111,001,4,recog,77,RIOTERS,LF,lure,-,-,-,liberal,no,m,1,0.812086882372,1,704
2019_Apr_22,111,001,4,recog,78,VILLAGE,HF,lure,-,-,-,conservative,no,m,1,0.753327120606,3,707
2019_Apr_22,111,001,4,recog,79,MEETING,HF,lure,-,-,-,liberal,no,m,1,1.32966777552,1,708
2019_Apr_22,111,001,4,recog,80,DEEPEN,LF,target,right,yellow,pleasantness,conservative,no,m,0,1.56504079943,-1,707
2019_Apr_22,111,001,4,recog,81,FIGURE,HF,lure,-,-,-,liberal,no,m,1,2.52975803359,1,708
2019_Apr_22,111,001,4,recog,82,COPIOUSLY,LF,lure,-,-,-,conservative,no,m,1,0.611885176487,3,711
2019_Apr_22,111,001,4,recog,83,REACHED,HF,target,right,yellow,pleasantness,conservative,no,z,1,0.682674337014,1,712
2019_Apr_22,111,001,4,recog,84,PUBLIC,HF,lure,-,-,-,conservative,no,m,1,0.553153276676,3,715
2019_Apr_22,111,001,4,recog,85,SECOND,HF,lure,-,-,-,liberal,no,m,1,0.98851097651,1,716
2019_Apr_22,111,001,4,recog,86,RUGGER,LF,target,right,yellow,pleasantness,conservative,no,z,1,0.811988265718,1,717
2019_Apr_22,111,001,4,recog,87,OTHERS,HF,target,right,yellow,pleasantness,conservative,no,z,1,1.4708549294,1,718
2019_Apr_22,111,001,4,recog,88,DEPARTS,LF,lure,-,-,-,liberal,yes,z,0,1.15326384464,-1,717
2019_Apr_22,111,001,4,recog,89,PECKED,LF,lure,-,-,-,conservative,no,m,1,2.4708314667,3,720
2019_Apr_22,111,001,4,recog,90,LIFEBOAT,LF,target,right,yellow,pleasantness,liberal,no,z,1,0.776768189273,3,723
2019_Apr_22,111,001,4,recog,91,BAGGY,LF,lure,-,-,-,conservative,no,m,1,1.56510385543,3,726
2019_Apr_22,111,001,4,recog,92,NUMBER,HF,target,right,yellow,pleasantness,liberal,no,m,0,1.02389932449,-3,723
2019_Apr_22,111,001,4,recog,93,CRUCIALLY,LF,target,right,yellow,pleasantness,conservative,no,z,1,0.882723168755,1,724
2019_Apr_22,111,001,4,recog,94,NURTURING,LF,lure,-,-,-,conservative,no,m,1,0.729758106912,3,727
2019_Apr_22,111,001,4,recog,95,CAFETERIA,LF,lure,-,-,-,conservative,no,m,1,2.00030134903,3,730
