date,subj,session,cycle,task,trial,item,wf,type,source,colour,encoding,bias,null,response,corr,rt,points,total
2019_Apr_23,112,001,0,source,0,LETTER,HF,target,left,yellow,imageability,liberal,no,None,-1,-1,-,-
2019_Apr_23,112,001,0,source,1,DOUBT,HF,target,right,aqua,pleasantness,conservative,no,9,1,4.81172439631,-,-
2019_Apr_23,112,001,0,source,2,DYNAMISM,LF,target,left,yellow,imageability,liberal,yes,7,0,1.23983012885,-,-
2019_Apr_23,112,001,0,source,3,AFTERNOON,HF,target,right,aqua,pleasantness,conservative,no,8,1,3.19882069743,-,-
2019_Apr_23,112,001,0,source,4,JOTTED,LF,target,left,yellow,imageability,liberal,no,2,1,2.47933324391,-,-
2019_Apr_23,112,001,0,source,5,PIVOT,LF,target,left,yellow,imageability,conservative,no,1,1,3.1054692684,-,-
2019_Apr_23,112,001,0,source,6,TRYING,HF,target,right,aqua,pleasantness,liberal,no,9,1,2.47927568655,-,-
2019_Apr_23,112,001,0,source,7,AMONG,HF,target,right,aqua,pleasantness,liberal,no,9,1,2.65266813163,-,-
2019_Apr_23,112,001,0,source,8,AIRBED,LF,target,left,yellow,imageability,liberal,no,1,1,1.57298089168,-,-
2019_Apr_23,112,001,0,source,9,REACHED,HF,target,left,yellow,imageability,liberal,yes,7,0,1.01328071789,-,-
2019_Apr_23,112,001,0,source,10,NOMAD,LF,target,right,aqua,pleasantness,conservative,no,9,1,2.99922682508,-,-
2019_Apr_23,112,001,0,source,11,SUDDENLY,HF,target,left,yellow,imageability,conservative,yes,2,1,1.27983945532,-,-
2019_Apr_23,112,001,0,source,12,INSIDE,HF,target,left,yellow,imageability,liberal,no,1,1,2.97225002327,-,-
2019_Apr_23,112,001,0,source,13,ABUSING,LF,target,right,aqua,pleasantness,liberal,yes,2,0,0.933302025078,-,-
2019_Apr_23,112,001,0,source,14,LUMBER,LF,target,right,aqua,pleasantness,liberal,no,9,1,2.83920125058,-,-
2019_Apr_23,112,001,0,source,15,VELVETY,LF,target,right,aqua,pleasantness,conservative,no,9,1,1.15976308368,-,-
2019_Apr_23,112,001,0,source,16,AFIELD,LF,target,left,yellow,imageability,conservative,no,1,1,2.98582439363,-,-
2019_Apr_23,112,001,0,source,17,ABLAZE,LF,target,left,yellow,imageability,liberal,no,1,1,1.86623634293,-,-
2019_Apr_23,112,001,0,source,18,SWEARS,LF,target,left,yellow,imageability,liberal,no,7,0,4.02538499271,-,-
2019_Apr_23,112,001,0,source,19,THOUSAND,HF,target,left,yellow,imageability,liberal,no,1,1,1.65295298555,-,-
2019_Apr_23,112,001,0,source,20,SEEMED,HF,target,right,aqua,pleasantness,liberal,no,7,1,1.29290277499,-,-
2019_Apr_23,112,001,0,source,21,TOGETHER,HF,target,left,yellow,imageability,conservative,no,9,0,1.42641640583,-,-
2019_Apr_23,112,001,0,source,22,KIMONO,LF,target,left,yellow,imageability,liberal,no,1,1,1.19960120454,-,-
2019_Apr_23,112,001,0,source,23,EUPHEMISM,LF,target,right,aqua,pleasantness,conservative,no,9,1,1.18659067625,-,-
2019_Apr_23,112,001,0,source,24,RUNNING,HF,target,right,aqua,pleasantness,liberal,no,9,1,1.98612904432,-,-
2019_Apr_23,112,001,0,source,25,KINDEST,LF,target,left,yellow,imageability,conservative,no,1,1,3.05243914865,-,-
2019_Apr_23,112,001,0,source,26,EFFECT,HF,target,left,yellow,imageability,conservative,no,1,1,1.03961852303,-,-
2019_Apr_23,112,001,0,source,27,MEANS,HF,target,right,aqua,pleasantness,conservative,no,9,1,1.18648619321,-,-
2019_Apr_23,112,001,0,source,28,REEDY,LF,target,right,aqua,pleasantness,conservative,no,9,1,0.972904050781,-,-
2019_Apr_23,112,001,0,source,29,BOMBARDED,LF,target,right,aqua,pleasantness,liberal,no,1,0,1.3861456883,-,-
2019_Apr_23,112,001,0,source,30,MOMENT,HF,target,left,yellow,imageability,liberal,no,9,0,1.65291705803,-,-
2019_Apr_23,112,001,0,source,31,SNIGGERED,LF,target,right,aqua,pleasantness,liberal,no,9,1,1.17319557694,-,-
2019_Apr_23,112,001,0,source,32,NARRATOR,LF,target,right,aqua,pleasantness,liberal,no,1,0,1.17311748961,-,-
2019_Apr_23,112,001,0,source,33,SKETCHY,LF,target,left,yellow,imageability,conservative,no,1,1,1.02634403756,-,-
2019_Apr_23,112,001,0,source,34,PUBLIC,HF,target,right,aqua,pleasantness,conservative,no,9,1,1.13323024334,-,-
2019_Apr_23,112,001,0,source,35,INVOLVED,HF,target,right,aqua,pleasantness,liberal,no,9,1,1.46647815715,-,-
2019_Apr_23,112,001,0,source,36,TOTAL,HF,target,right,aqua,pleasantness,conservative,no,9,1,0.973132813815,-,-
2019_Apr_23,112,001,0,source,37,DRAFTING,LF,target,left,yellow,imageability,conservative,no,1,1,1.17314131907,-,-
2019_Apr_23,112,001,0,source,38,PASSED,HF,target,left,yellow,imageability,conservative,no,9,0,2.05301912146,-,-
2019_Apr_23,112,001,0,source,39,UNLESS,HF,target,left,yellow,imageability,conservative,no,9,0,2.5458860423,-,-
2019_Apr_23,112,001,0,source,40,CHURCH,HF,target,right,aqua,pleasantness,conservative,no,9,1,0.773325942573,-,-
2019_Apr_23,112,001,0,source,41,ARSENALS,LF,target,left,yellow,imageability,conservative,no,1,1,0.853474741103,-,-
2019_Apr_23,112,001,0,source,42,AROUND,HF,target,left,yellow,imageability,liberal,no,1,1,0.85328153905,-,-
2019_Apr_23,112,001,0,source,43,KIBBUTZIM,LF,target,right,aqua,pleasantness,conservative,no,9,1,1.05321598967,-,-
2019_Apr_23,112,001,0,source,44,NOXIOUS,LF,target,right,aqua,pleasantness,conservative,no,9,1,0.906678632717,-,-
2019_Apr_23,112,001,0,source,45,MERELY,HF,target,right,aqua,pleasantness,liberal,no,9,1,0.73315347574,-,-
2019_Apr_23,112,001,0,source,46,POLICE,HF,target,left,yellow,imageability,conservative,no,1,1,0.919712990406,-,-
2019_Apr_23,112,001,0,source,47,JUROR,LF,target,right,aqua,pleasantness,liberal,no,9,1,0.866617247986,-,-
2019_Apr_23,112,001,0,recog,0,PIVOT,LF,target,left,yellow,imageability,conservative,no,z,1,2.0662452149,1,1
2019_Apr_23,112,001,0,recog,1,NOMAD,LF,target,right,aqua,pleasantness,conservative,no,z,1,1.22646582453,1,2
2019_Apr_23,112,001,0,recog,2,VEERED,LF,lure,-,-,-,liberal,no,z,0,2.46594694309,-1,1
2019_Apr_23,112,001,0,recog,3,SEEMED,HF,target,right,aqua,pleasantness,liberal,no,z,1,1.49307258753,3,4
2019_Apr_23,112,001,0,recog,4,WHOLE,HF,lure,-,-,-,liberal,no,m,1,1.55968184344,1,5
2019_Apr_23,112,001,0,recog,5,FONDLE,LF,lure,-,-,-,conservative,no,m,1,1.2400728229,3,8
2019_Apr_23,112,001,0,recog,6,DIFFERENT,HF,lure,-,-,-,liberal,no,m,1,1.33288423932,1,9
2019_Apr_23,112,001,0,recog,7,TOTAL,HF,target,right,aqua,pleasantness,conservative,no,z,1,1.19984903111,1,10
2019_Apr_23,112,001,0,recog,8,ANYONE,HF,lure,-,-,-,conservative,no,m,1,3.66530545359,3,13
2019_Apr_23,112,001,0,recog,9,DEJECTED,LF,lure,-,-,-,liberal,no,m,1,2.23946242162,1,14
2019_Apr_23,112,001,0,recog,10,OMITTING,LF,lure,-,-,-,liberal,no,z,0,1.54635859915,-1,13
2019_Apr_23,112,001,0,recog,11,ORPHANAGE,LF,lure,-,-,-,conservative,no,m,1,1.159878565,3,16
2019_Apr_23,112,001,0,recog,12,CUSTODIAN,LF,lure,-,-,-,liberal,no,m,1,0.906557652284,1,17
2019_Apr_23,112,001,0,recog,13,AIRBED,LF,target,left,yellow,imageability,liberal,no,z,1,1.13290579582,3,20
2019_Apr_23,112,001,0,recog,14,EUPHEMISM,LF,target,right,aqua,pleasantness,conservative,no,z,1,1.13319724868,1,21
2019_Apr_23,112,001,0,recog,15,JUROR,LF,target,right,aqua,pleasantness,liberal,no,z,1,0.866737128643,3,24
2019_Apr_23,112,001,0,recog,16,MAPPED,LF,lure,-,-,-,conservative,no,m,1,0.906365916657,3,27
2019_Apr_23,112,001,0,recog,17,NOBLEMAN,LF,lure,-,-,-,conservative,no,m,1,2.6525189224,3,30
2019_Apr_23,112,001,0,recog,18,HIGHER,HF,lure,-,-,-,conservative,no,m,1,2.42596841167,3,33
2019_Apr_23,112,001,0,recog,19,ABUSING,LF,target,right,aqua,pleasantness,liberal,no,z,1,0.946345181379,3,36
2019_Apr_23,112,001,0,recog,20,CHROMIUM,LF,lure,-,-,-,conservative,no,m,1,1.8928593687,3,39
2019_Apr_23,112,001,0,recog,21,RUNNING,HF,target,right,aqua,pleasantness,liberal,no,z,1,0.879775885551,3,42
2019_Apr_23,112,001,0,recog,22,EVENING,HF,lure,-,-,-,conservative,no,m,1,0.879998049641,3,45
2019_Apr_23,112,001,0,recog,23,DORMS,LF,lure,-,-,-,conservative,no,m,1,0.893051837513,3,48
2019_Apr_23,112,001,0,recog,24,USING,HF,lure,-,-,-,liberal,no,m,1,1.51969561324,1,49
2019_Apr_23,112,001,0,recog,25,MOMENT,HF,target,left,yellow,imageability,liberal,no,z,1,2.02611307491,3,52
2019_Apr_23,112,001,0,recog,26,HARDLY,HF,lure,-,-,-,conservative,no,m,1,1.27967998112,3,55
2019_Apr_23,112,001,0,recog,27,UNLESS,HF,target,left,yellow,imageability,conservative,no,z,1,1.37309959915,1,56
2019_Apr_23,112,001,0,recog,28,LONGER,HF,lure,-,-,-,liberal,no,m,1,1.30643608532,1,57
2019_Apr_23,112,001,0,recog,29,BOMBARDED,LF,target,right,aqua,pleasantness,liberal,no,z,1,1.79959775845,3,60
2019_Apr_23,112,001,0,recog,30,SOVIET,HF,lure,-,-,-,conservative,no,m,1,0.813430220354,3,63
2019_Apr_23,112,001,0,recog,31,SWEARS,LF,target,left,yellow,imageability,liberal,no,z,1,1.39972115844,3,66
2019_Apr_23,112,001,0,recog,32,JOTTED,LF,target,left,yellow,imageability,liberal,no,z,1,0.853329564619,3,69
2019_Apr_23,112,001,0,recog,33,MEANS,HF,target,right,aqua,pleasantness,conservative,no,z,1,0.906577082467,1,70
2019_Apr_23,112,001,0,recog,34,LUMBER,LF,target,right,aqua,pleasantness,liberal,no,z,1,1.30644158443,3,73
2019_Apr_23,112,001,0,recog,35,AROUND,HF,target,left,yellow,imageability,liberal,yes,z,1,1.39975122025,3,76
2019_Apr_23,112,001,0,recog,36,AFTERNOON,HF,target,right,aqua,pleasantness,conservative,no,z,1,1.74633044377,1,77
2019_Apr_23,112,001,0,recog,37,SODDING,LF,lure,-,-,-,conservative,no,m,1,1.37309226702,3,80
2019_Apr_23,112,001,0,recog,38,MITIGATE,LF,lure,-,-,-,conservative,no,m,1,0.853248910978,3,83
2019_Apr_23,112,001,0,recog,39,ZIPPED,LF,lure,-,-,-,conservative,no,m,1,0.653368718282,3,86
2019_Apr_23,112,001,0,recog,40,NOXIOUS,LF,target,right,aqua,pleasantness,conservative,no,z,1,0.786700878467,1,87
2019_Apr_23,112,001,0,recog,41,LOLLED,LF,lure,-,-,-,liberal,no,m,1,1.67959397502,1,88
2019_Apr_23,112,001,0,recog,42,GLASS,HF,lure,-,-,-,conservative,no,m,1,0.853345328709,3,91
2019_Apr_23,112,001,0,recog,43,GROUND,HF,lure,-,-,-,liberal,no,m,1,1.39965186961,1,92
2019_Apr_23,112,001,0,recog,44,DRAFTING,LF,target,left,yellow,imageability,conservative,yes,m,0,1.19989302399,-1,91
2019_Apr_23,112,001,0,recog,45,DYNAMISM,LF,target,left,yellow,imageability,liberal,no,m,0,3.6253177569,-3,88
2019_Apr_23,112,001,0,recog,46,CHURCH,HF,target,right,aqua,pleasantness,conservative,yes,m,0,1.26641466079,-1,87
2019_Apr_23,112,001,0,recog,47,ARSENALS,LF,target,left,yellow,imageability,conservative,no,z,1,1.65292548999,1,88
2019_Apr_23,112,001,0,recog,48,THOUSAND,HF,target,left,yellow,imageability,liberal,no,z,1,0.746708049264,3,91
2019_Apr_23,112,001,0,recog,49,SUPPORT,HF,lure,-,-,-,conservative,no,m,1,1.39974205504,3,94
2019_Apr_23,112,001,0,recog,50,SNOBBISH,LF,lure,-,-,-,conservative,no,m,1,1.06653740088,3,97
2019_Apr_23,112,001,0,recog,51,SUDDENLY,HF,target,left,yellow,imageability,conservative,no,m,0,1.49298790121,-1,96
2019_Apr_23,112,001,0,recog,52,SNIGGERED,LF,target,right,aqua,pleasantness,liberal,no,z,1,1.26621009386,3,99
2019_Apr_23,112,001,0,recog,53,INSIDE,HF,target,left,yellow,imageability,liberal,no,z,1,1.27974230441,3,102
2019_Apr_23,112,001,0,recog,54,SKETCHY,LF,target,left,yellow,imageability,conservative,no,z,1,0.813286143646,1,103
2019_Apr_23,112,001,0,recog,55,KINDEST,LF,target,left,yellow,imageability,conservative,no,z,1,1.33301108546,1,104
2019_Apr_23,112,001,0,recog,56,KIMONO,LF,target,left,yellow,imageability,liberal,no,z,1,1.01312344329,3,107
2019_Apr_23,112,001,0,recog,57,LETTER,HF,target,left,yellow,imageability,liberal,no,z,1,0.893226342625,3,110
2019_Apr_23,112,001,0,recog,58,INVOLVED,HF,target,right,aqua,pleasantness,liberal,no,z,1,1.10650016827,3,113
2019_Apr_23,112,001,0,recog,59,EFFECT,HF,target,left,yellow,imageability,conservative,no,z,1,0.799957033654,1,114
2019_Apr_23,112,001,0,recog,60,GRACES,LF,lure,-,-,-,liberal,no,m,1,0.826672444411,1,115
2019_Apr_23,112,001,0,recog,61,AGELESS,LF,lure,-,-,-,conservative,no,m,1,0.919870631595,3,118
2019_Apr_23,112,001,0,recog,62,DOING,HF,lure,-,-,-,liberal,no,m,1,1.35975289199,1,119
2019_Apr_23,112,001,0,recog,63,EARLIER,HF,lure,-,-,-,liberal,no,m,1,0.906567917322,1,120
2019_Apr_23,112,001,0,recog,64,PINAFORE,LF,lure,-,-,-,liberal,no,m,1,0.640158022405,1,121
2019_Apr_23,112,001,0,recog,65,AMONG,HF,target,right,aqua,pleasantness,liberal,no,z,1,0.853418283572,3,124
2019_Apr_23,112,001,0,recog,66,FAMILY,HF,lure,-,-,-,liberal,no,m,1,1.22651128384,1,125
2019_Apr_23,112,001,0,recog,67,MERELY,HF,target,right,aqua,pleasantness,liberal,no,z,1,0.919950918586,3,128
2019_Apr_23,112,001,0,recog,68,ENLIGHTEN,LF,lure,-,-,-,liberal,no,m,1,2.27939806005,1,129
2019_Apr_23,112,001,0,recog,69,BUNGALOWS,LF,lure,-,-,-,liberal,yes,z,0,1.14651792671,-1,128
2019_Apr_23,112,001,0,recog,70,AFIELD,LF,target,left,yellow,imageability,conservative,no,z,1,2.42573744897,1,129
2019_Apr_23,112,001,0,recog,71,PAINTWORK,LF,lure,-,-,-,liberal,no,m,1,0.799982329481,1,130
2019_Apr_23,112,001,0,recog,72,VELVETY,LF,target,right,aqua,pleasantness,conservative,no,z,1,0.773348305549,1,131
2019_Apr_23,112,001,0,recog,73,ABOVE,HF,lure,-,-,-,conservative,no,m,1,1.0664875423,3,134
2019_Apr_23,112,001,0,recog,74,PUBLIC,HF,target,right,aqua,pleasantness,conservative,no,z,1,1.91955901537,1,135
2019_Apr_23,112,001,0,recog,75,DOUBT,HF,target,right,aqua,pleasantness,conservative,no,z,1,0.920042570448,1,136
2019_Apr_23,112,001,0,recog,76,NARRATOR,LF,target,right,aqua,pleasantness,liberal,no,z,1,0.826542298775,3,139
2019_Apr_23,112,001,0,recog,77,REACHED,HF,target,left,yellow,imageability,liberal,no,m,0,2.03947261331,-3,136
2019_Apr_23,112,001,0,recog,78,DEVELOPED,HF,lure,-,-,-,liberal,no,m,1,2.27937569696,1,137
2019_Apr_23,112,001,0,recog,79,KITCHEN,HF,lure,-,-,-,conservative,no,m,1,2.38603680587,3,140
2019_Apr_23,112,001,0,recog,80,TOGETHER,HF,target,left,yellow,imageability,conservative,no,z,1,2.95908808621,1,141
2019_Apr_23,112,001,0,recog,81,NATIONAL,HF,lure,-,-,-,conservative,no,m,1,1.02668644884,3,144
2019_Apr_23,112,001,0,recog,82,LABOUR,HF,lure,-,-,-,conservative,no,m,1,0.773408062523,3,147
2019_Apr_23,112,001,0,recog,83,POLICE,HF,target,left,yellow,imageability,conservative,no,z,1,0.866660507687,1,148
2019_Apr_23,112,001,0,recog,84,PASSED,HF,target,left,yellow,imageability,conservative,no,z,1,2.62590102921,1,149
2019_Apr_23,112,001,0,recog,85,TROUBLE,HF,lure,-,-,-,conservative,no,m,1,1.01323269232,3,152
2019_Apr_23,112,001,0,recog,86,UNDER,HF,lure,-,-,-,liberal,no,m,1,1.07992626796,1,153
2019_Apr_23,112,001,0,recog,87,SNUBBED,LF,lure,-,-,-,liberal,no,m,1,2.10618158651,1,154
2019_Apr_23,112,001,0,recog,88,CLOSE,HF,lure,-,-,-,liberal,no,m,1,1.11984137632,1,155
2019_Apr_23,112,001,0,recog,89,ROPED,LF,lure,-,-,-,liberal,no,m,1,0.826621852582,1,156
2019_Apr_23,112,001,0,recog,90,TRYING,HF,target,right,aqua,pleasantness,liberal,no,z,1,1.9062434698,3,159
2019_Apr_23,112,001,0,recog,91,PRACTICE,HF,lure,-,-,-,liberal,no,m,1,1.97293997835,1,160
2019_Apr_23,112,001,0,recog,92,ABLAZE,LF,target,left,yellow,imageability,liberal,no,z,1,0.946531051246,3,163
2019_Apr_23,112,001,0,recog,93,SEGMENTED,LF,lure,-,-,-,conservative,no,m,1,0.9200488028,3,166
2019_Apr_23,112,001,0,recog,94,REEDY,LF,target,right,aqua,pleasantness,conservative,no,m,0,0.613375889137,-1,165
2019_Apr_23,112,001,0,recog,95,KIBBUTZIM,LF,target,right,aqua,pleasantness,conservative,no,z,1,1.77271004213,1,166
2019_Apr_23,112,001,1,source,0,THYROID,LF,target,right,aqua,pleasantness,liberal,no,9,1,2.51932387339,-,-
2019_Apr_23,112,001,1,source,1,ORDER,HF,target,left,yellow,imageability,liberal,no,2,1,3.6923618092,-,-
2019_Apr_23,112,001,1,source,2,ICILY,LF,target,left,yellow,imageability,conservative,no,1,1,1.50644715683,-,-
2019_Apr_23,112,001,1,source,3,MAKES,HF,target,left,yellow,imageability,liberal,no,1,1,2.15940637473,-,-
2019_Apr_23,112,001,1,source,4,POWER,HF,target,left,yellow,imageability,conservative,no,1,1,1.43973341782,-,-
2019_Apr_23,112,001,1,source,5,POETICAL,LF,target,left,yellow,imageability,conservative,no,1,1,0.986570806184,-,-
2019_Apr_23,112,001,1,source,6,NEMESIS,LF,target,right,aqua,pleasantness,conservative,yes,8,1,1.05321928911,-,-
2019_Apr_23,112,001,1,source,7,VIVACIOUS,LF,target,right,aqua,pleasantness,conservative,no,9,1,3.39896961336,-,-
2019_Apr_23,112,001,1,source,8,HOWEVER,HF,target,left,yellow,imageability,conservative,no,2,1,1.6397833497,-,-
2019_Apr_23,112,001,1,source,9,TYCOONS,LF,target,right,aqua,pleasantness,liberal,no,9,1,1.17319924303,-,-
2019_Apr_23,112,001,1,source,10,SAMENESS,LF,target,left,yellow,imageability,conservative,no,1,1,2.15946173243,-,-
2019_Apr_23,112,001,1,source,11,SITTING,HF,target,left,yellow,imageability,liberal,no,1,1,1.75954443903,-,-
2019_Apr_23,112,001,1,source,12,STAFF,HF,target,right,aqua,pleasantness,conservative,no,1,0,2.29251490446,-,-
2019_Apr_23,112,001,1,source,13,INACTION,LF,target,right,aqua,pleasantness,conservative,no,9,1,2.54594323307,-,-
2019_Apr_23,112,001,1,source,14,REGAINING,LF,target,left,yellow,imageability,liberal,no,1,1,2.1328240424,-,-
2019_Apr_23,112,001,1,source,15,EMIGRATED,LF,target,right,aqua,pleasantness,liberal,no,9,1,1.06653960061,-,-
2019_Apr_23,112,001,1,source,16,DOTTY,LF,target,left,yellow,imageability,conservative,no,1,1,1.14651426068,-,-
2019_Apr_23,112,001,1,source,17,OTHERS,HF,target,right,aqua,pleasantness,liberal,no,9,1,1.01323745819,-,-
2019_Apr_23,112,001,1,source,18,RAIDER,LF,target,right,aqua,pleasantness,liberal,no,9,1,2.11944434058,-,-
2019_Apr_23,112,001,1,source,19,MAJOR,HF,target,right,aqua,pleasantness,liberal,no,9,1,0.986536345095,-,-
2019_Apr_23,112,001,1,source,20,BASIC,HF,target,left,yellow,imageability,conservative,no,1,1,1.05327721307,-,-
2019_Apr_23,112,001,1,source,21,ORCHARDS,LF,target,left,yellow,imageability,liberal,no,1,1,0.853241212259,-,-
2019_Apr_23,112,001,1,source,22,MEETING,HF,target,left,yellow,imageability,conservative,yes,2,1,0.813060680113,-,-
2019_Apr_23,112,001,1,source,23,VINEYARDS,LF,target,right,aqua,pleasantness,conservative,no,1,0,1.19983033411,-,-
2019_Apr_23,112,001,1,source,24,PLUGGING,LF,target,right,aqua,pleasantness,liberal,no,9,1,1.51973227394,-,-
2019_Apr_23,112,001,1,source,25,BOUGH,LF,target,left,yellow,imageability,liberal,no,2,1,1.54613240244,-,-
2019_Apr_23,112,001,1,source,26,FEELING,HF,target,right,aqua,pleasantness,conservative,no,9,1,1.19978047552,-,-
2019_Apr_23,112,001,1,source,27,ENTIRELY,HF,target,left,yellow,imageability,liberal,no,2,1,2.38586303405,-,-
2019_Apr_23,112,001,1,source,28,VARIOUS,HF,target,right,aqua,pleasantness,conservative,no,2,0,1.98612721125,-,-
2019_Apr_23,112,001,1,source,29,HOTEL,HF,target,right,aqua,pleasantness,liberal,no,9,1,0.866761324694,-,-
2019_Apr_23,112,001,1,source,30,WAITING,HF,target,left,yellow,imageability,liberal,no,1,1,2.79916259547,-,-
2019_Apr_23,112,001,1,source,31,GETTING,HF,target,right,aqua,pleasantness,conservative,no,9,1,1.1599243909,-,-
2019_Apr_23,112,001,1,source,32,EXPECT,HF,target,right,aqua,pleasantness,liberal,no,9,1,2.41245819756,-,-
2019_Apr_23,112,001,1,source,33,HOARD,LF,target,left,yellow,imageability,conservative,no,1,1,1.14629172999,-,-
2019_Apr_23,112,001,1,source,34,FUMING,LF,target,left,yellow,imageability,liberal,no,1,1,0.693474095897,-,-
2019_Apr_23,112,001,1,source,35,LANGUAGE,HF,target,left,yellow,imageability,liberal,yes,2,1,0.693399308017,-,-
2019_Apr_23,112,001,1,source,36,WRITE,HF,target,right,aqua,pleasantness,liberal,no,9,1,1.33311483532,-,-
2019_Apr_23,112,001,1,source,37,TALKING,HF,target,right,aqua,pleasantness,liberal,no,9,1,0.759899314959,-,-
2019_Apr_23,112,001,1,source,38,MARKET,HF,target,left,yellow,imageability,conservative,no,1,1,1.07989693934,-,-
2019_Apr_23,112,001,1,source,39,KILOWATT,LF,target,left,yellow,imageability,conservative,no,1,1,0.866402782733,-,-
2019_Apr_23,112,001,1,source,40,HAPPEN,HF,target,right,aqua,pleasantness,conservative,yes,8,1,0.719970275473,-,-
2019_Apr_23,112,001,1,source,41,OOZED,LF,target,right,aqua,pleasantness,conservative,no,9,1,1.95952654863,-,-
2019_Apr_23,112,001,1,source,42,EGGSHELL,LF,target,left,yellow,imageability,liberal,no,1,1,0.959875192144,-,-
2019_Apr_23,112,001,1,source,43,WINDOW,HF,target,right,aqua,pleasantness,conservative,no,9,1,0.840073409432,-,-
2019_Apr_23,112,001,1,source,44,ADENOIDS,LF,target,left,yellow,imageability,liberal,no,1,1,1.62608763238,-,-
2019_Apr_23,112,001,1,source,45,KERNEL,LF,target,right,aqua,pleasantness,liberal,no,9,1,0.773369202216,-,-
2019_Apr_23,112,001,1,source,46,WEAKENS,LF,target,right,aqua,pleasantness,conservative,no,9,1,1.07987604273,-,-
2019_Apr_23,112,001,1,source,47,BELIEVE,HF,target,left,yellow,imageability,conservative,no,9,0,1.22656444187,-,-
2019_Apr_23,112,001,1,recog,0,HAPPEN,HF,target,right,aqua,pleasantness,conservative,no,z,1,2.73253280955,1,167
2019_Apr_23,112,001,1,recog,1,POWER,HF,target,left,yellow,imageability,conservative,no,z,1,0.906556552451,1,168
2019_Apr_23,112,001,1,recog,2,PHANTOMS,LF,lure,-,-,-,conservative,no,m,1,0.986569339759,3,171
2019_Apr_23,112,001,1,recog,3,HIVES,LF,lure,-,-,-,conservative,no,m,1,0.74668055377,3,174
2019_Apr_23,112,001,1,recog,4,TYCOONS,LF,target,right,aqua,pleasantness,liberal,no,z,1,1.22623412864,3,177
2019_Apr_23,112,001,1,recog,5,POETICAL,LF,target,left,yellow,imageability,conservative,no,z,1,0.719962210103,1,178
2019_Apr_23,112,001,1,recog,6,ORIGINALS,LF,lure,-,-,-,liberal,no,m,1,1.74584945489,1,179
2019_Apr_23,112,001,1,recog,7,MUSIC,HF,lure,-,-,-,liberal,no,m,1,0.706675993162,1,180
2019_Apr_23,112,001,1,recog,8,THYROID,LF,target,right,aqua,pleasantness,liberal,no,z,1,0.706680025847,3,183
2019_Apr_23,112,001,1,recog,9,HOLED,LF,lure,-,-,-,liberal,yes,z,0,1.26649494778,-1,182
2019_Apr_23,112,001,1,recog,10,ICILY,LF,target,left,yellow,imageability,conservative,no,z,1,1.34639848606,1,183
2019_Apr_23,112,001,1,recog,11,REGAINING,LF,target,left,yellow,imageability,liberal,no,m,0,4.11868253048,-3,180
2019_Apr_23,112,001,1,recog,12,BLOOD,HF,lure,-,-,-,conservative,no,m,1,1.0665766279,3,183
2019_Apr_23,112,001,1,recog,13,IMMEDIACY,LF,lure,-,-,-,liberal,no,m,1,2.4127206885,1,184
2019_Apr_23,112,001,1,recog,14,AREAS,HF,lure,-,-,-,liberal,no,m,1,0.840070476581,1,185
2019_Apr_23,112,001,1,recog,15,PLIABLE,LF,lure,-,-,-,liberal,no,m,1,0.799943102582,1,186
2019_Apr_23,112,001,1,recog,16,WEAKENS,LF,target,right,aqua,pleasantness,conservative,no,z,1,1.33291210153,1,187
2019_Apr_23,112,001,1,recog,17,KILOWATT,LF,target,left,yellow,imageability,conservative,no,z,1,0.839743096207,1,188
2019_Apr_23,112,001,1,recog,18,EGGSHELL,LF,target,left,yellow,imageability,liberal,no,z,1,0.613456176128,3,191
2019_Apr_23,112,001,1,recog,19,JAILS,LF,lure,-,-,-,liberal,no,m,1,0.759991700004,1,192
2019_Apr_23,112,001,1,recog,20,VIVACIOUS,LF,target,right,aqua,pleasantness,conservative,no,z,1,1.07978769031,1,193
2019_Apr_23,112,001,1,recog,21,HAUNCHES,LF,lure,-,-,-,liberal,no,z,0,2.14607286541,-1,192
2019_Apr_23,112,001,1,recog,22,TALKING,HF,target,right,aqua,pleasantness,liberal,no,z,1,0.919808674953,3,195
2019_Apr_23,112,001,1,recog,23,HOTEL,HF,target,right,aqua,pleasantness,liberal,no,z,1,0.959857228445,3,198
2019_Apr_23,112,001,1,recog,24,MAKES,HF,target,left,yellow,imageability,liberal,no,z,1,0.773328142182,3,201
2019_Apr_23,112,001,1,recog,25,NEMESIS,LF,target,right,aqua,pleasantness,conservative,no,z,1,0.973250861338,1,202
2019_Apr_23,112,001,1,recog,26,PHYSICAL,HF,lure,-,-,-,conservative,yes,m,1,1.30628394324,3,205
2019_Apr_23,112,001,1,recog,27,CAPITAL,HF,lure,-,-,-,liberal,no,m,1,1.73289685062,1,206
2019_Apr_23,112,001,1,recog,28,PLUGGING,LF,target,right,aqua,pleasantness,liberal,no,z,1,0.693456498731,3,209
2019_Apr_23,112,001,1,recog,29,LEVEL,HF,lure,-,-,-,conservative,no,m,1,1.55968514294,3,212
2019_Apr_23,112,001,1,recog,30,SUCCESS,HF,lure,-,-,-,conservative,no,m,1,0.906549586914,3,215
2019_Apr_23,112,001,1,recog,31,BOUGH,LF,target,left,yellow,imageability,liberal,no,z,1,0.773380200437,3,218
2019_Apr_23,112,001,1,recog,32,MARKET,HF,target,left,yellow,imageability,conservative,no,z,1,0.53339023079,1,219
2019_Apr_23,112,001,1,recog,33,DOTTY,LF,target,left,yellow,imageability,conservative,no,z,1,0.57335006533,1,220
2019_Apr_23,112,001,1,recog,34,DAUGHTER,HF,lure,-,-,-,liberal,no,m,1,0.733372340386,1,221
2019_Apr_23,112,001,1,recog,35,OOZED,LF,target,right,aqua,pleasantness,conservative,no,m,0,0.680064332264,-1,220
2019_Apr_23,112,001,1,recog,36,THING,HF,lure,-,-,-,conservative,no,m,1,1.35973822768,3,223
2019_Apr_23,112,001,1,recog,37,SLEEP,HF,lure,-,-,-,liberal,no,m,1,1.11988060334,1,224
2019_Apr_23,112,001,1,recog,38,OBNOXIOUS,LF,lure,-,-,-,conservative,yes,m,1,0.986611866218,3,227
2019_Apr_23,112,001,1,recog,39,VINEYARDS,LF,target,right,aqua,pleasantness,conservative,no,z,1,1.23978906876,1,228
2019_Apr_23,112,001,1,recog,40,OTHERS,HF,target,right,aqua,pleasantness,liberal,yes,z,1,0.906430439558,3,231
2019_Apr_23,112,001,1,recog,41,UPSTART,LF,lure,-,-,-,liberal,no,m,1,1.27976906666,1,232
2019_Apr_23,112,001,1,recog,42,ADENOIDS,LF,target,left,yellow,imageability,liberal,no,z,1,1.15997424949,3,235
2019_Apr_23,112,001,1,recog,43,ATROCITY,LF,lure,-,-,-,conservative,no,m,1,0.813310706348,3,238
2019_Apr_23,112,001,1,recog,44,ORCHARDS,LF,target,left,yellow,imageability,liberal,no,z,1,0.94663663418,3,241
2019_Apr_23,112,001,1,recog,45,ROUND,HF,lure,-,-,-,conservative,no,m,1,0.999948674929,3,244
2019_Apr_23,112,001,1,recog,46,WRITE,HF,target,right,aqua,pleasantness,liberal,no,z,1,0.879915562982,3,247
2019_Apr_23,112,001,1,recog,47,TICKLE,LF,lure,-,-,-,conservative,no,m,1,1.25313357631,3,250
2019_Apr_23,112,001,1,recog,48,MEETING,HF,target,left,yellow,imageability,conservative,no,z,1,0.959725249792,1,251
2019_Apr_23,112,001,1,recog,49,SIESTA,LF,lure,-,-,-,liberal,no,m,1,0.893228175701,1,252
2019_Apr_23,112,001,1,recog,50,UNTIL,HF,lure,-,-,-,conservative,no,m,1,0.799933204136,3,255
2019_Apr_23,112,001,1,recog,51,ISOLATING,LF,lure,-,-,-,conservative,no,m,1,1.10649870185,3,258
2019_Apr_23,112,001,1,recog,52,ANGERS,LF,lure,-,-,-,conservative,no,m,1,0.813259747927,3,261
2019_Apr_23,112,001,1,recog,53,AMULETS,LF,lure,-,-,-,liberal,no,m,1,1.15978434688,1,262
2019_Apr_23,112,001,1,recog,54,ENTIRELY,HF,target,left,yellow,imageability,liberal,no,z,1,0.946590441687,3,265
2019_Apr_23,112,001,1,recog,55,HOWEVER,HF,target,left,yellow,imageability,conservative,no,z,1,0.906588447338,1,266
2019_Apr_23,112,001,1,recog,56,VARIOUS,HF,target,right,aqua,pleasantness,conservative,no,m,0,1.05316723086,-1,265
2019_Apr_23,112,001,1,recog,57,BLACK,HF,lure,-,-,-,conservative,no,m,1,1.39976881741,3,268
2019_Apr_23,112,001,1,recog,58,EMIGRATED,LF,target,right,aqua,pleasantness,liberal,no,z,1,1.34644101252,3,271
2019_Apr_23,112,001,1,recog,59,TACITLY,LF,lure,-,-,-,conservative,no,z,0,0.959931283083,-3,268
2019_Apr_23,112,001,1,recog,60,BREAK,HF,lure,-,-,-,liberal,no,m,1,1.74616400403,1,269
2019_Apr_23,112,001,1,recog,61,WAITING,HF,target,left,yellow,imageability,liberal,no,z,1,1.15979424526,3,272
2019_Apr_23,112,001,1,recog,62,RESEARCH,HF,lure,-,-,-,liberal,no,m,1,1.05331167422,1,273
2019_Apr_23,112,001,1,recog,63,TIMES,HF,lure,-,-,-,conservative,no,m,1,1.65298524697,3,276
2019_Apr_23,112,001,1,recog,64,GETTING,HF,target,right,aqua,pleasantness,conservative,no,z,1,0.826603888825,1,277
2019_Apr_23,112,001,1,recog,65,ENERGY,HF,lure,-,-,-,liberal,no,m,1,1.43952005228,1,278
2019_Apr_23,112,001,1,recog,66,FUTURE,HF,lure,-,-,-,liberal,no,m,1,1.10654269473,1,279
2019_Apr_23,112,001,1,recog,67,EXPECT,HF,target,right,aqua,pleasantness,liberal,no,m,0,1.06654326664,-3,276
2019_Apr_23,112,001,1,recog,68,SPOKE,HF,lure,-,-,-,conservative,no,m,1,1.46646862541,3,279
2019_Apr_23,112,001,1,recog,69,AXIOM,LF,lure,-,-,-,conservative,no,m,1,0.933266097505,3,282
2019_Apr_23,112,001,1,recog,70,BELIEVE,HF,target,left,yellow,imageability,conservative,no,m,0,1.47967382206,-1,281
2019_Apr_23,112,001,1,recog,71,STAFF,HF,target,right,aqua,pleasantness,conservative,no,z,1,1.3197783932,1,282
2019_Apr_23,112,001,1,recog,72,HESITATES,LF,lure,-,-,-,liberal,no,m,1,0.786678882025,1,283
2019_Apr_23,112,001,1,recog,73,SAMENESS,LF,target,left,yellow,imageability,conservative,no,z,1,1.22646545788,1,284
2019_Apr_23,112,001,1,recog,74,KERNEL,LF,target,right,aqua,pleasantness,liberal,no,z,1,2.25278346631,3,287
2019_Apr_23,112,001,1,recog,75,DIOCESE,LF,lure,-,-,-,conservative,no,m,1,2.10622961208,3,290
2019_Apr_23,112,001,1,recog,76,SITTING,HF,target,left,yellow,imageability,liberal,no,z,1,1.3997574526,3,293
2019_Apr_23,112,001,1,recog,77,COMES,HF,lure,-,-,-,liberal,no,m,1,3.66546529438,1,294
2019_Apr_23,112,001,1,recog,78,MADDENED,LF,lure,-,-,-,liberal,no,m,1,1.31986601232,1,295
2019_Apr_23,112,001,1,recog,79,FORCE,HF,lure,-,-,-,liberal,no,m,1,0.639993415738,1,296
2019_Apr_23,112,001,1,recog,80,MOUTH,HF,lure,-,-,-,liberal,no,m,1,0.50681009813,1,297
2019_Apr_23,112,001,1,recog,81,BASIC,HF,target,left,yellow,imageability,conservative,no,z,1,0.693351282447,1,298
2019_Apr_23,112,001,1,recog,82,HOARD,LF,target,left,yellow,imageability,conservative,no,z,1,1.21313634788,1,299
2019_Apr_23,112,001,1,recog,83,FUMING,LF,target,left,yellow,imageability,liberal,no,z,1,0.693361914018,3,302
2019_Apr_23,112,001,1,recog,84,HOEING,LF,lure,-,-,-,conservative,no,m,1,0.760064288275,3,305
2019_Apr_23,112,001,1,recog,85,MAJOR,HF,target,right,aqua,pleasantness,liberal,no,z,1,0.759949906787,3,308
2019_Apr_23,112,001,1,recog,86,UTILIZE,LF,lure,-,-,-,conservative,no,m,1,1.31978352566,3,311
2019_Apr_23,112,001,1,recog,87,LANGUAGE,HF,target,left,yellow,imageability,liberal,no,z,1,0.600057777367,3,314
2019_Apr_23,112,001,1,recog,88,WINDOW,HF,target,right,aqua,pleasantness,conservative,no,z,1,0.626709031814,1,315
2019_Apr_23,112,001,1,recog,89,ORDER,HF,target,left,yellow,imageability,liberal,no,z,1,1.09297602315,3,318
2019_Apr_23,112,001,1,recog,90,NORTH,HF,lure,-,-,-,conservative,no,m,1,0.67976884672,3,321
2019_Apr_23,112,001,1,recog,91,RAIDER,LF,target,right,aqua,pleasantness,liberal,no,z,1,0.81330044131,3,324
2019_Apr_23,112,001,1,recog,92,WAFER,LF,lure,-,-,-,liberal,no,m,1,0.786610693031,1,325
2019_Apr_23,112,001,1,recog,93,INACTION,LF,target,right,aqua,pleasantness,conservative,no,z,1,1.75960236305,1,326
2019_Apr_23,112,001,1,recog,94,FEELING,HF,target,right,aqua,pleasantness,conservative,no,z,1,1.06652420305,1,327
2019_Apr_23,112,001,1,recog,95,MYSELF,HF,lure,-,-,-,conservative,no,m,1,0.826638349914,3,330
2019_Apr_23,112,001,2,source,0,ANIMAL,HF,target,left,yellow,imageability,conservative,no,1,1,2.47905205603,-,-
2019_Apr_23,112,001,2,source,1,EVIDENCE,HF,target,left,yellow,imageability,liberal,no,1,1,2.77258502907,-,-
2019_Apr_23,112,001,2,source,2,ADVERSELY,LF,target,right,aqua,pleasantness,conservative,no,8,1,2.82557152252,-,-
2019_Apr_23,112,001,2,source,3,COUNCIL,HF,target,right,aqua,pleasantness,conservative,no,9,1,1.7595620362,-,-
2019_Apr_23,112,001,2,source,4,SOAPY,LF,target,left,yellow,imageability,liberal,no,1,1,1.06662355363,-,-
2019_Apr_23,112,001,2,source,5,SYSTEM,HF,target,right,aqua,pleasantness,conservative,yes,7,1,2.23920176382,-,-
2019_Apr_23,112,001,2,source,6,TODAY,HF,target,right,aqua,pleasantness,liberal,no,9,1,1.74626482103,-,-
2019_Apr_23,112,001,2,source,7,HONKING,LF,target,left,yellow,imageability,conservative,no,1,1,1.13329953211,-,-
2019_Apr_23,112,001,2,source,8,FIELD,HF,target,left,yellow,imageability,conservative,no,1,1,1.14637861593,-,-
2019_Apr_23,112,001,2,source,9,DAWDLING,LF,target,left,yellow,imageability,liberal,yes,3,1,1.25313357631,-,-
2019_Apr_23,112,001,2,source,10,BOLDNESS,LF,target,right,aqua,pleasantness,conservative,no,9,1,1.98613344366,-,-
2019_Apr_23,112,001,2,source,11,WHETHER,HF,target,right,aqua,pleasantness,liberal,no,9,1,1.34628483781,-,-
2019_Apr_23,112,001,2,source,12,RECENT,HF,target,right,aqua,pleasantness,liberal,no,9,1,0.959864560573,-,-
2019_Apr_23,112,001,2,source,13,EDICT,LF,target,right,aqua,pleasantness,conservative,no,9,1,1.14646146918,-,-
2019_Apr_23,112,001,2,source,14,REPORT,HF,target,left,yellow,imageability,liberal,no,1,1,1.71970888448,-,-
2019_Apr_23,112,001,2,source,15,VAINLY,LF,target,right,aqua,pleasantness,liberal,no,9,1,1.25319333334,-,-
2019_Apr_23,112,001,2,source,16,UNABATED,LF,target,left,yellow,imageability,liberal,no,2,1,7.18412487523,-,-
2019_Apr_23,112,001,2,source,17,MINISTER,HF,target,left,yellow,imageability,liberal,no,1,1,2.42604283296,-,-
2019_Apr_23,112,001,2,source,18,SKATES,LF,target,left,yellow,imageability,conservative,no,1,1,0.82642351801,-,-
2019_Apr_23,112,001,2,source,19,PARENTS,HF,target,right,aqua,pleasantness,conservative,no,9,1,1.29304208577,-,-
2019_Apr_23,112,001,2,source,20,BOOKS,HF,target,left,yellow,imageability,conservative,yes,7,0,1.11998362001,-,-
2019_Apr_23,112,001,2,source,21,OPENED,HF,target,left,yellow,imageability,conservative,no,1,1,1.29291523964,-,-
2019_Apr_23,112,001,2,source,22,MORNING,HF,target,left,yellow,imageability,liberal,no,1,1,3.57223337929,-,-
2019_Apr_23,112,001,2,source,23,STYLED,LF,target,right,aqua,pleasantness,conservative,no,9,1,1.17329089489,-,-
2019_Apr_23,112,001,2,source,24,TAGGED,LF,target,left,yellow,imageability,liberal,no,1,1,0.999874986883,-,-
2019_Apr_23,112,001,2,source,25,WOMAN,HF,target,right,aqua,pleasantness,conservative,no,9,1,1.25321313011,-,-
2019_Apr_23,112,001,2,source,26,ADULATION,LF,target,left,yellow,imageability,conservative,no,1,1,1.99953807471,-,-
2019_Apr_23,112,001,2,source,27,PAUNCH,LF,target,left,yellow,imageability,conservative,no,1,1,1.25314054184,-,-
2019_Apr_23,112,001,2,source,28,BIKINI,LF,target,left,yellow,imageability,conservative,no,1,1,1.11960821401,-,-
2019_Apr_23,112,001,2,source,29,CERTAIN,HF,target,left,yellow,imageability,conservative,no,1,1,1.9328950909,-,-
2019_Apr_23,112,001,2,source,30,VEHEMENCE,LF,target,right,aqua,pleasantness,liberal,no,8,1,1.47990295169,-,-
2019_Apr_23,112,001,2,source,31,FACILE,LF,target,right,aqua,pleasantness,liberal,no,8,1,2.33267490653,-,-
2019_Apr_23,112,001,2,source,32,EASILY,HF,target,right,aqua,pleasantness,conservative,no,9,1,2.63899184443,-,-
2019_Apr_23,112,001,2,source,33,NUCLEAR,HF,target,right,aqua,pleasantness,liberal,no,9,1,1.38625677029,-,-
2019_Apr_23,112,001,2,source,34,ANCHORAGE,LF,target,left,yellow,imageability,conservative,no,1,1,1.57297539257,-,-
2019_Apr_23,112,001,2,source,35,RIGGING,LF,target,right,aqua,pleasantness,conservative,no,9,1,1.27974230435,-,-
2019_Apr_23,112,001,2,source,36,FREEDOM,HF,target,right,aqua,pleasantness,liberal,no,9,1,1.10643307917,-,-
2019_Apr_23,112,001,2,source,37,SLIGHTLY,HF,target,right,aqua,pleasantness,conservative,no,1,0,1.50633424177,-,-
2019_Apr_23,112,001,2,source,38,IMPORTANT,HF,target,left,yellow,imageability,liberal,no,8,0,1.78629834362,-,-
2019_Apr_23,112,001,2,source,39,REFECTORY,LF,target,right,aqua,pleasantness,liberal,no,2,0,1.73295514117,-,-
2019_Apr_23,112,001,2,source,40,MOTHER,HF,target,left,yellow,imageability,conservative,no,9,0,1.30639612506,-,-
2019_Apr_23,112,001,2,source,41,FURTHER,HF,target,left,yellow,imageability,liberal,no,9,0,1.29314400262,-,-
2019_Apr_23,112,001,2,source,42,SEDAN,LF,target,right,aqua,pleasantness,liberal,no,9,1,1.11986740545,-,-
2019_Apr_23,112,001,2,source,43,FOAMING,LF,target,left,yellow,imageability,liberal,no,1,1,0.893283166748,-,-
2019_Apr_23,112,001,2,source,44,DUSTER,LF,target,left,yellow,imageability,liberal,yes,3,1,0.83987544151,-,-
2019_Apr_23,112,001,2,source,45,CHAIR,HF,target,right,aqua,pleasantness,liberal,no,1,0,1.38645693794,-,-
2019_Apr_23,112,001,2,source,46,YEARN,LF,target,right,aqua,pleasantness,conservative,no,9,1,0.986517281504,-,-
2019_Apr_23,112,001,2,source,47,CAVERN,LF,target,right,aqua,pleasantness,liberal,no,9,1,0.639986450144,-,-
2019_Apr_23,112,001,2,recog,0,APART,HF,lure,-,-,-,conservative,no,z,0,1.78623015463,-3,327
2019_Apr_23,112,001,2,recog,1,COLDEST,LF,lure,-,-,-,liberal,no,m,1,0.853317466564,1,328
2019_Apr_23,112,001,2,recog,2,BOILERS,LF,lure,-,-,-,conservative,no,m,1,0.746648658882,3,331
2019_Apr_23,112,001,2,recog,3,NUCLEAR,HF,target,right,aqua,pleasantness,liberal,no,z,1,0.839971125999,3,334
2019_Apr_23,112,001,2,recog,4,HONKING,LF,target,left,yellow,imageability,conservative,no,z,1,1.17316294886,1,335
2019_Apr_23,112,001,2,recog,5,FREEDOM,HF,target,right,aqua,pleasantness,liberal,no,z,1,0.626494933094,3,338
2019_Apr_23,112,001,2,recog,6,EMOTIVE,LF,lure,-,-,-,conservative,no,m,1,0.813326470437,3,341
2019_Apr_23,112,001,2,recog,7,PARENTS,HF,target,right,aqua,pleasantness,conservative,no,z,1,0.946589708445,1,342
2019_Apr_23,112,001,2,recog,8,INDEED,HF,lure,-,-,-,conservative,no,m,1,0.879954056756,3,345
2019_Apr_23,112,001,2,recog,9,ERSTWHILE,LF,lure,-,-,-,liberal,no,z,0,1.46634214587,-1,344
2019_Apr_23,112,001,2,recog,10,YEARN,LF,target,right,aqua,pleasantness,conservative,no,z,1,0.653402446129,1,345
2019_Apr_23,112,001,2,recog,11,TAGGED,LF,target,left,yellow,imageability,liberal,no,z,1,0.786639288417,3,348
2019_Apr_23,112,001,2,recog,12,ATTACK,HF,lure,-,-,-,conservative,no,m,1,0.973276157223,3,351
2019_Apr_23,112,001,2,recog,13,CHAIR,HF,target,right,aqua,pleasantness,liberal,no,z,1,0.693321587227,3,354
2019_Apr_23,112,001,2,recog,14,EDICT,LF,target,right,aqua,pleasantness,conservative,no,z,1,0.879723827355,1,355
2019_Apr_23,112,001,2,recog,15,RIGGING,LF,target,right,aqua,pleasantness,conservative,no,z,1,0.77333547431,1,356
2019_Apr_23,112,001,2,recog,16,SKATES,LF,target,left,yellow,imageability,conservative,no,z,1,0.613474873069,1,357
2019_Apr_23,112,001,2,recog,17,EASILY,HF,target,right,aqua,pleasantness,conservative,no,z,1,0.586716935912,1,358
2019_Apr_23,112,001,2,recog,18,EIGHT,HF,lure,-,-,-,liberal,yes,z,0,1.15980047762,-1,357
2019_Apr_23,112,001,2,recog,19,MOCCASINS,LF,lure,-,-,-,liberal,no,m,1,1.09315309447,1,358
2019_Apr_23,112,001,2,recog,20,LATER,HF,lure,-,-,-,conservative,no,m,1,1.30631620472,3,361
2019_Apr_23,112,001,2,recog,21,SLOWLY,HF,lure,-,-,-,liberal,no,m,1,0.746741777228,1,362
2019_Apr_23,112,001,2,recog,22,MORNING,HF,target,left,yellow,imageability,liberal,no,z,1,0.640116595838,3,365
2019_Apr_23,112,001,2,recog,23,SELECTS,LF,lure,-,-,-,conservative,no,m,1,0.706670494052,3,368
2019_Apr_23,112,001,2,recog,24,RECENT,HF,target,right,aqua,pleasantness,liberal,no,z,1,0.799924772175,3,371
2019_Apr_23,112,001,2,recog,25,REFECTORY,LF,target,right,aqua,pleasantness,liberal,no,z,1,0.919928922143,3,374
2019_Apr_23,112,001,2,recog,26,FIELD,HF,target,left,yellow,imageability,conservative,no,z,1,0.66669709509,1,375
2019_Apr_23,112,001,2,recog,27,SYSTEM,HF,target,right,aqua,pleasantness,conservative,no,z,1,1.14648383221,1,376
2019_Apr_23,112,001,2,recog,28,BOOKS,HF,target,left,yellow,imageability,conservative,no,z,1,0.77329294791,1,377
2019_Apr_23,112,001,2,recog,29,CAVERN,LF,target,right,aqua,pleasantness,liberal,no,z,1,0.626472570118,3,380
2019_Apr_23,112,001,2,recog,30,CLEAR,HF,lure,-,-,-,liberal,no,m,1,0.706646298,1,381
2019_Apr_23,112,001,2,recog,31,EPIDEMICS,LF,lure,-,-,-,liberal,no,m,1,0.906545554288,1,382
2019_Apr_23,112,001,2,recog,32,HUNDRED,HF,lure,-,-,-,conservative,no,m,1,1.18637511117,3,385
2019_Apr_23,112,001,2,recog,33,SEDAN,LF,target,right,aqua,pleasantness,liberal,no,z,1,0.720082090702,3,388
2019_Apr_23,112,001,2,recog,34,SLIGHTLY,HF,target,right,aqua,pleasantness,conservative,no,z,1,0.986302083009,1,389
2019_Apr_23,112,001,2,recog,35,TERMS,HF,lure,-,-,-,conservative,no,m,1,2.70589988539,3,392
2019_Apr_23,112,001,2,recog,36,GNARLED,LF,lure,-,-,-,liberal,no,m,1,0.666859135497,1,393
2019_Apr_23,112,001,2,recog,37,HEALTH,HF,lure,-,-,-,liberal,no,m,1,0.600017083925,1,394
2019_Apr_23,112,001,2,recog,38,MOVED,HF,lure,-,-,-,conservative,no,m,1,0.90657268319,3,397
2019_Apr_23,112,001,2,recog,39,RUGGER,LF,lure,-,-,-,liberal,no,m,1,0.773332174867,1,398
2019_Apr_23,112,001,2,recog,40,KNUCKLE,LF,lure,-,-,-,conservative,no,m,1,0.60006620927,3,401
2019_Apr_23,112,001,2,recog,41,EVIDENCE,HF,target,left,yellow,imageability,liberal,no,z,1,0.600052644848,3,404
2019_Apr_23,112,001,2,recog,42,NEARLY,HF,lure,-,-,-,conservative,no,z,0,0.920017274562,-3,401
2019_Apr_23,112,001,2,recog,43,GUILDHALL,LF,lure,-,-,-,conservative,no,m,1,1.11968446837,3,404
2019_Apr_23,112,001,2,recog,44,POINT,HF,lure,-,-,-,conservative,no,m,1,0.679784977459,3,407
2019_Apr_23,112,001,2,recog,45,VEHEMENCE,LF,target,right,aqua,pleasantness,liberal,no,z,1,0.680072031042,3,410
2019_Apr_23,112,001,2,recog,46,SCRABBLE,LF,lure,-,-,-,liberal,no,m,1,0.799937236821,1,411
2019_Apr_23,112,001,2,recog,47,UPHEAVALS,LF,lure,-,-,-,conservative,no,m,1,0.506763172394,3,414
2019_Apr_23,112,001,2,recog,48,FOUND,HF,lure,-,-,-,liberal,no,m,1,0.426772014936,1,415
2019_Apr_23,112,001,2,recog,49,LIVED,HF,lure,-,-,-,conservative,no,m,1,0.46685832896,3,418
2019_Apr_23,112,001,2,recog,50,FACILE,LF,target,right,aqua,pleasantness,liberal,no,m,0,0.400092898286,-3,415
2019_Apr_23,112,001,2,recog,51,NIGHT,HF,lure,-,-,-,conservative,no,m,1,0.919905825926,3,418
2019_Apr_23,112,001,2,recog,52,IMPORTANT,HF,target,left,yellow,imageability,liberal,no,z,1,0.640072969545,3,421
2019_Apr_23,112,001,2,recog,53,TORMENTS,LF,lure,-,-,-,conservative,no,m,1,0.840066077304,3,424
2019_Apr_23,112,001,2,recog,54,WOMAN,HF,target,right,aqua,pleasantness,conservative,no,z,1,0.666663367185,1,425
2019_Apr_23,112,001,2,recog,55,TRADE,HF,lure,-,-,-,conservative,no,m,1,1.03988797945,3,428
2019_Apr_23,112,001,2,recog,56,BIKINI,LF,target,left,yellow,imageability,conservative,no,z,1,0.586560761149,1,429
2019_Apr_23,112,001,2,recog,57,DAWDLING,LF,target,left,yellow,imageability,liberal,no,z,1,0.706681492273,3,432
2019_Apr_23,112,001,2,recog,58,GREATER,HF,lure,-,-,-,liberal,no,z,0,0.586732700001,-1,431
2019_Apr_23,112,001,2,recog,59,PAUNCH,LF,target,left,yellow,imageability,conservative,no,z,1,1.02651341015,1,432
2019_Apr_23,112,001,2,recog,60,DUELLING,LF,lure,-,-,-,liberal,no,m,1,0.759992066596,1,433
2019_Apr_23,112,001,2,recog,61,VAINLY,LF,target,right,aqua,pleasantness,liberal,no,z,1,1.87958928244,3,436
2019_Apr_23,112,001,2,recog,62,MINISTER,HF,target,left,yellow,imageability,liberal,no,z,1,0.640043640917,3,439
2019_Apr_23,112,001,2,recog,63,WHETHER,HF,target,right,aqua,pleasantness,liberal,no,z,1,0.613370023377,3,442
2019_Apr_23,112,001,2,recog,64,STYLED,LF,target,right,aqua,pleasantness,conservative,no,z,1,0.653388148465,1,443
2019_Apr_23,112,001,2,recog,65,LOTTERY,LF,lure,-,-,-,conservative,no,m,1,0.746577170503,3,446
2019_Apr_23,112,001,2,recog,66,DUSTER,LF,target,left,yellow,imageability,liberal,yes,z,1,1.11998471979,3,449
2019_Apr_23,112,001,2,recog,67,AVIDLY,LF,lure,-,-,-,conservative,no,m,1,1.81288470858,3,452
2019_Apr_23,112,001,2,recog,68,CERTAIN,HF,target,left,yellow,imageability,conservative,no,z,1,1.34646447538,1,453
2019_Apr_23,112,001,2,recog,69,THANK,HF,lure,-,-,-,liberal,no,m,1,0.760060988774,1,454
2019_Apr_23,112,001,2,recog,70,UNFAILING,LF,lure,-,-,-,conservative,no,m,1,1.81287884287,3,457
2019_Apr_23,112,001,2,recog,71,REPORT,HF,target,left,yellow,imageability,liberal,no,z,1,0.74666992214,3,460
2019_Apr_23,112,001,2,recog,72,UNABATED,LF,target,left,yellow,imageability,liberal,no,z,1,1.05294689984,3,463
2019_Apr_23,112,001,2,recog,73,FAUCET,LF,lure,-,-,-,conservative,no,m,1,0.813262680778,3,466
2019_Apr_23,112,001,2,recog,74,ADULATION,LF,target,left,yellow,imageability,conservative,no,z,1,0.759980335191,1,467
2019_Apr_23,112,001,2,recog,75,FURTHER,HF,target,left,yellow,imageability,liberal,no,m,0,1.29315683391,-3,464
2019_Apr_23,112,001,2,recog,76,BUILDING,HF,lure,-,-,-,liberal,no,m,1,1.10659145354,1,465
2019_Apr_23,112,001,2,recog,77,SOMEONE,HF,lure,-,-,-,liberal,no,m,1,1.45300387061,1,466
2019_Apr_23,112,001,2,recog,78,AUBURN,LF,lure,-,-,-,liberal,no,m,1,0.959664026333,1,467
2019_Apr_23,112,001,2,recog,79,DURING,HF,lure,-,-,-,liberal,no,m,1,0.839949862799,1,468
2019_Apr_23,112,001,2,recog,80,TODAY,HF,target,right,aqua,pleasantness,liberal,no,z,1,0.706696889771,3,471
2019_Apr_23,112,001,2,recog,81,ANCHORAGE,LF,target,left,yellow,imageability,conservative,no,z,1,0.973290821596,1,472
2019_Apr_23,112,001,2,recog,82,FOAMING,LF,target,left,yellow,imageability,liberal,no,z,1,0.666450734949,3,475
2019_Apr_23,112,001,2,recog,83,SOAPY,LF,target,left,yellow,imageability,liberal,no,z,1,0.599862008996,3,478
2019_Apr_23,112,001,2,recog,84,TESTIFIES,LF,lure,-,-,-,liberal,no,m,1,0.839716700488,1,479
2019_Apr_23,112,001,2,recog,85,OPENED,HF,target,left,yellow,imageability,conservative,no,m,0,1.65309632901,-1,478
2019_Apr_23,112,001,2,recog,86,BOLDNESS,LF,target,right,aqua,pleasantness,conservative,no,z,1,0.813135834644,1,479
2019_Apr_23,112,001,2,recog,87,ANIMAL,HF,target,left,yellow,imageability,conservative,no,z,1,0.70669139066,1,480
2019_Apr_23,112,001,2,recog,88,FARAWAY,LF,lure,-,-,-,liberal,no,m,1,0.813040150097,1,481
2019_Apr_23,112,001,2,recog,89,MOTHER,HF,target,left,yellow,imageability,conservative,no,z,1,0.679966081516,1,482
2019_Apr_23,112,001,2,recog,90,SABLE,LF,lure,-,-,-,conservative,no,m,1,2.26586071705,3,485
2019_Apr_23,112,001,2,recog,91,APPEARED,HF,lure,-,-,-,liberal,no,m,1,0.799935770396,1,486
2019_Apr_23,112,001,2,recog,92,CONCERNED,HF,lure,-,-,-,liberal,yes,z,0,0.853256243165,-1,485
2019_Apr_23,112,001,2,recog,93,COUNCIL,HF,target,right,aqua,pleasantness,conservative,no,z,1,2.31936302705,1,486
2019_Apr_23,112,001,2,recog,94,THRASH,LF,lure,-,-,-,liberal,no,m,1,0.759976302506,1,487
2019_Apr_23,112,001,2,recog,95,ADVERSELY,LF,target,right,aqua,pleasantness,conservative,yes,m,0,1.01317660138,-1,486
2019_Apr_23,112,001,3,source,0,AGONIZED,LF,target,right,aqua,pleasantness,conservative,no,9,1,1.90622623928,-,-
2019_Apr_23,112,001,3,source,1,WOBBLE,LF,target,left,yellow,imageability,liberal,no,1,1,1.37321251421,-,-
2019_Apr_23,112,001,3,source,2,ASKED,HF,target,right,aqua,pleasantness,conservative,no,9,1,1.30644488387,-,-
2019_Apr_23,112,001,3,source,3,ARMAMENT,LF,target,left,yellow,imageability,conservative,no,1,1,1.25325382355,-,-
2019_Apr_23,112,001,3,source,4,PLACE,HF,target,left,yellow,imageability,conservative,no,1,1,0.906542254845,-,-
2019_Apr_23,112,001,3,source,5,OBESE,LF,target,left,yellow,imageability,conservative,no,1,1,0.733171072963,-,-
2019_Apr_23,112,001,3,source,6,REVERE,LF,target,right,aqua,pleasantness,conservative,no,8,1,1.2931172403,-,-
2019_Apr_23,112,001,3,source,7,LAVISHED,LF,target,left,yellow,imageability,liberal,no,9,0,1.10630036722,-,-
2019_Apr_23,112,001,3,source,8,FIVER,LF,target,left,yellow,imageability,conservative,no,1,1,1.26643409097,-,-
2019_Apr_23,112,001,3,source,9,ENVIRONS,LF,target,right,aqua,pleasantness,liberal,no,8,1,1.3729001648,-,-
2019_Apr_23,112,001,3,source,10,FATHER,HF,target,right,aqua,pleasantness,conservative,no,9,1,1.35973052896,-,-
2019_Apr_23,112,001,3,source,11,LIQUEUR,LF,target,right,aqua,pleasantness,liberal,no,9,1,0.82658409205,-,-
2019_Apr_23,112,001,3,source,12,BEAUTIFUL,HF,target,right,aqua,pleasantness,liberal,no,9,1,0.653365418781,-,-
2019_Apr_23,112,001,3,source,13,INCLUDING,HF,target,left,yellow,imageability,liberal,no,9,0,0.866627513024,-,-
2019_Apr_23,112,001,3,source,14,SOYBEAN,LF,target,left,yellow,imageability,liberal,no,1,1,0.733312950004,-,-
2019_Apr_23,112,001,3,source,15,PICTURE,HF,target,right,aqua,pleasantness,conservative,no,8,1,1.45278977195,-,-
2019_Apr_23,112,001,3,source,16,TOWARDS,HF,target,right,aqua,pleasantness,liberal,no,1,0,1.41305613419,-,-
2019_Apr_23,112,001,3,source,17,WATCH,HF,target,left,yellow,imageability,conservative,no,1,1,0.666428738507,-,-
2019_Apr_23,112,001,3,source,18,OBVIOUSLY,HF,target,right,aqua,pleasantness,liberal,no,9,1,0.946597773815,-,-
2019_Apr_23,112,001,3,source,19,CICADAS,LF,target,right,aqua,pleasantness,conservative,yes,2,0,0.919935154496,-,-
2019_Apr_23,112,001,3,source,20,HIMSELF,HF,target,left,yellow,imageability,conservative,no,1,1,1.13326800388,-,-
2019_Apr_23,112,001,3,source,21,TWENTY,HF,target,right,aqua,pleasantness,liberal,yes,7,1,0.799980863114,-,-
2019_Apr_23,112,001,3,source,22,FINAL,HF,target,right,aqua,pleasantness,conservative,no,9,1,1.90600810788,-,-
2019_Apr_23,112,001,3,source,23,TRIED,HF,target,right,aqua,pleasantness,liberal,no,9,1,2.58569336816,-,-
2019_Apr_23,112,001,3,source,24,BROUGHT,HF,target,left,yellow,imageability,liberal,no,1,1,2.59905767249,-,-
2019_Apr_23,112,001,3,source,25,COFFINS,LF,target,right,aqua,pleasantness,liberal,no,9,1,0.946554147522,-,-
2019_Apr_23,112,001,3,source,26,OUGHT,HF,target,left,yellow,imageability,liberal,no,1,1,1.33304481336,-,-
2019_Apr_23,112,001,3,source,27,MEMBERS,HF,target,left,yellow,imageability,conservative,no,1,1,1.29307691351,-,-
2019_Apr_23,112,001,3,source,28,TARIFF,LF,target,left,yellow,imageability,conservative,no,1,1,1.93259557273,-,-
2019_Apr_23,112,001,3,source,29,RATHER,HF,target,right,aqua,pleasantness,conservative,no,1,0,1.57301132008,-,-
2019_Apr_23,112,001,3,source,30,ALIAS,LF,target,right,aqua,pleasantness,conservative,no,9,1,1.226491487,-,-
2019_Apr_23,112,001,3,source,31,ITSELF,HF,target,left,yellow,imageability,liberal,no,9,0,1.07985661254,-,-
2019_Apr_23,112,001,3,source,32,TONAL,LF,target,right,aqua,pleasantness,conservative,no,9,1,0.933292859874,-,-
2019_Apr_23,112,001,3,source,33,IRONICAL,LF,target,left,yellow,imageability,liberal,no,2,1,1.3064496498,-,-
2019_Apr_23,112,001,3,source,34,WISPY,LF,target,left,yellow,imageability,liberal,no,1,1,1.39971932536,-,-
2019_Apr_23,112,001,3,source,35,UTTERANCE,LF,target,right,aqua,pleasantness,liberal,no,1,0,2.29277702869,-,-
2019_Apr_23,112,001,3,source,36,LOPSIDED,LF,target,left,yellow,imageability,conservative,yes,7,0,0.893257504271,-,-
2019_Apr_23,112,001,3,source,37,RIMMED,LF,target,right,aqua,pleasantness,liberal,no,9,1,0.82668270939,-,-
2019_Apr_23,112,001,3,source,38,SEMANTIC,LF,target,left,yellow,imageability,conservative,no,1,1,1.34642891446,-,-
2019_Apr_23,112,001,3,source,39,TABLE,HF,target,left,yellow,imageability,conservative,no,1,1,0.906608610705,-,-
2019_Apr_23,112,001,3,source,40,DISARMED,LF,target,right,aqua,pleasantness,liberal,no,9,1,1.63966383575,-,-
2019_Apr_23,112,001,3,source,41,SECOND,HF,target,left,yellow,imageability,conservative,no,1,1,2.43928469042,-,-
2019_Apr_23,112,001,3,source,42,SENSE,HF,target,right,aqua,pleasantness,conservative,no,9,1,1.38642834255,-,-
2019_Apr_23,112,001,3,source,43,EDUCATION,HF,target,left,yellow,imageability,liberal,yes,3,1,1.14654615551,-,-
2019_Apr_23,112,001,3,source,44,GENERAL,HF,target,right,aqua,pleasantness,liberal,no,9,1,1.8526975335,-,-
2019_Apr_23,112,001,3,source,45,RETURN,HF,target,left,yellow,imageability,liberal,no,1,1,1.09326271008,-,-
2019_Apr_23,112,001,3,source,46,DANDELION,LF,target,right,aqua,pleasantness,conservative,no,9,1,0.93326463108,-,-
2019_Apr_23,112,001,3,source,47,PYJAMA,LF,target,left,yellow,imageability,liberal,no,1,1,0.826643482433,-,-
2019_Apr_23,112,001,3,recog,0,UNOPENED,LF,lure,-,-,-,conservative,no,m,1,1.93282066961,3,489
2019_Apr_23,112,001,3,recog,1,RETURN,HF,target,left,yellow,imageability,liberal,no,z,1,0.86664217728,3,492
2019_Apr_23,112,001,3,recog,2,INCLUDING,HF,target,left,yellow,imageability,liberal,no,z,1,0.839967826556,3,495
2019_Apr_23,112,001,3,recog,3,FOLLOWED,HF,lure,-,-,-,conservative,no,m,1,1.21314917912,3,498
2019_Apr_23,112,001,3,recog,4,WISPY,LF,target,left,yellow,imageability,liberal,no,z,1,0.786703078134,3,501
2019_Apr_23,112,001,3,recog,5,NOVAS,LF,lure,-,-,-,liberal,no,m,1,0.893346589874,1,502
2019_Apr_23,112,001,3,recog,6,MAGGOT,LF,lure,-,-,-,liberal,no,m,1,0.746644626197,1,503
2019_Apr_23,112,001,3,recog,7,ENVIRONS,LF,target,right,aqua,pleasantness,liberal,no,z,1,0.919946152717,3,506
2019_Apr_23,112,001,3,recog,8,AGONIZED,LF,target,right,aqua,pleasantness,conservative,no,z,1,0.986565673666,1,507
2019_Apr_23,112,001,3,recog,9,RIMMED,LF,target,right,aqua,pleasantness,liberal,no,z,1,0.760032026854,3,510
2019_Apr_23,112,001,3,recog,10,CENTRAL,HF,lure,-,-,-,liberal,no,m,1,0.853333963896,1,511
2019_Apr_23,112,001,3,recog,11,ITSELF,HF,target,left,yellow,imageability,liberal,no,z,1,1.05316539784,3,514
2019_Apr_23,112,001,3,recog,12,IRONICAL,LF,target,left,yellow,imageability,liberal,no,z,1,0.853257342998,3,517
2019_Apr_23,112,001,3,recog,13,GUSHED,LF,lure,-,-,-,conservative,no,m,1,1.07986284484,3,520
2019_Apr_23,112,001,3,recog,14,TRIED,HF,target,right,aqua,pleasantness,liberal,no,z,1,0.853270540829,3,523
2019_Apr_23,112,001,3,recog,15,TREES,HF,lure,-,-,-,liberal,no,m,1,0.773352338234,1,524
2019_Apr_23,112,001,3,recog,16,SPEAK,HF,lure,-,-,-,conservative,no,z,0,1.34643221396,-3,521
2019_Apr_23,112,001,3,recog,17,TWENTY,HF,target,right,aqua,pleasantness,liberal,no,z,1,0.666472364741,3,524
2019_Apr_23,112,001,3,recog,18,DANDELION,LF,target,right,aqua,pleasantness,conservative,no,z,1,0.866615414969,1,525
2019_Apr_23,112,001,3,recog,19,REUNITED,LF,lure,-,-,-,liberal,no,m,1,0.826627718285,1,526
2019_Apr_23,112,001,3,recog,20,BALDING,LF,lure,-,-,-,conservative,no,m,1,0.786648087029,3,529
2019_Apr_23,112,001,3,recog,21,PYJAMA,LF,target,left,yellow,imageability,liberal,no,z,1,0.719996671192,3,532
2019_Apr_23,112,001,3,recog,22,COFFINS,LF,target,right,aqua,pleasantness,liberal,no,z,1,0.853271640604,3,535
2019_Apr_23,112,001,3,recog,23,TUMBLER,LF,lure,-,-,-,liberal,no,m,1,0.813042349764,1,536
2019_Apr_23,112,001,3,recog,24,WESTERN,HF,lure,-,-,-,conservative,no,m,1,1.02655666979,3,539
2019_Apr_23,112,001,3,recog,25,QUALITY,HF,lure,-,-,-,conservative,no,m,1,1.02649324673,3,542
2019_Apr_23,112,001,3,recog,26,LOPSIDED,LF,target,left,yellow,imageability,conservative,no,z,1,0.706692857086,1,543
2019_Apr_23,112,001,3,recog,27,FINAL,HF,target,right,aqua,pleasantness,conservative,no,z,1,1.03986341675,1,544
2019_Apr_23,112,001,3,recog,28,HOSPITAL,HF,lure,-,-,-,liberal,no,m,1,0.97334764566,1,545
2019_Apr_23,112,001,3,recog,29,OFFER,HF,lure,-,-,-,liberal,yes,z,0,1.15982833976,-1,544
2019_Apr_23,112,001,3,recog,30,MAYBE,HF,lure,-,-,-,conservative,no,m,1,1.94607242546,3,547
2019_Apr_23,112,001,3,recog,31,LAVISHED,LF,target,left,yellow,imageability,liberal,no,z,1,0.906644171628,3,550
2019_Apr_23,112,001,3,recog,32,OBVIOUSLY,HF,target,right,aqua,pleasantness,liberal,no,z,1,1.26646378619,3,553
2019_Apr_23,112,001,3,recog,33,AGNOSTIC,LF,lure,-,-,-,conservative,no,m,1,1.0131630369,3,556
2019_Apr_23,112,001,3,recog,34,STUDENT,HF,lure,-,-,-,conservative,no,m,1,1.61288683489,3,559
2019_Apr_23,112,001,3,recog,35,PICTURE,HF,target,right,aqua,pleasantness,conservative,no,z,1,0.733361342107,1,560
2019_Apr_23,112,001,3,recog,36,EATERS,LF,lure,-,-,-,conservative,no,m,1,0.786625723937,3,563
2019_Apr_23,112,001,3,recog,37,FIVER,LF,target,left,yellow,imageability,conservative,no,z,1,0.85326027585,1,564
2019_Apr_23,112,001,3,recog,38,EDUCATION,HF,target,left,yellow,imageability,liberal,no,m,0,1.38639388152,-3,561
2019_Apr_23,112,001,3,recog,39,PADDLE,LF,lure,-,-,-,liberal,no,m,1,0.919930388569,1,562
2019_Apr_23,112,001,3,recog,40,ARMAMENT,LF,target,left,yellow,imageability,conservative,no,z,1,1.02646391816,1,563
2019_Apr_23,112,001,3,recog,41,RAMBLE,LF,lure,-,-,-,conservative,no,m,1,1.93285696377,3,566
2019_Apr_23,112,001,3,recog,42,ASKED,HF,target,right,aqua,pleasantness,conservative,no,z,1,0.919869531819,1,567
2019_Apr_23,112,001,3,recog,43,FATHER,HF,target,right,aqua,pleasantness,conservative,no,z,1,1.02652660798,1,568
2019_Apr_23,112,001,3,recog,44,OUGHT,HF,target,left,yellow,imageability,liberal,no,z,1,0.746446291625,3,571
2019_Apr_23,112,001,3,recog,45,BAUXITE,LF,lure,-,-,-,liberal,no,m,1,0.626737627143,1,572
2019_Apr_23,112,001,3,recog,46,SENSE,HF,target,right,aqua,pleasantness,conservative,no,z,1,0.706762879097,1,573
2019_Apr_23,112,001,3,recog,47,OLDER,HF,lure,-,-,-,liberal,no,z,0,1.82618412341,-1,572
2019_Apr_23,112,001,3,recog,48,GEOLOGIST,LF,lure,-,-,-,conservative,no,m,1,1.09298152226,3,575
2019_Apr_23,112,001,3,recog,49,PENALIZED,LF,lure,-,-,-,conservative,no,m,1,1.54637546313,3,578
2019_Apr_23,112,001,3,recog,50,BEGAN,HF,lure,-,-,-,liberal,no,m,1,1.11991579761,1,579
2019_Apr_23,112,001,3,recog,51,KENNEL,LF,lure,-,-,-,conservative,no,z,0,0.719950112049,-3,576
2019_Apr_23,112,001,3,recog,52,SEMANTIC,LF,target,left,yellow,imageability,conservative,yes,m,0,0.840063144395,-1,575
2019_Apr_23,112,001,3,recog,53,LIKELY,HF,lure,-,-,-,conservative,no,m,1,0.813106506015,3,578
2019_Apr_23,112,001,3,recog,54,FRIEND,HF,lure,-,-,-,conservative,no,m,1,1.79942398658,3,581
2019_Apr_23,112,001,3,recog,55,ARRIVED,HF,lure,-,-,-,conservative,no,m,1,0.959955112601,3,584
2019_Apr_23,112,001,3,recog,56,MEMBERS,HF,target,left,yellow,imageability,conservative,no,z,1,0.666667766462,1,585
2019_Apr_23,112,001,3,recog,57,CARRIED,HF,lure,-,-,-,liberal,no,m,1,1.35952779505,1,586
2019_Apr_23,112,001,3,recog,58,SWIFTNESS,LF,lure,-,-,-,liberal,no,m,1,0.759719677328,1,587
2019_Apr_23,112,001,3,recog,59,ENMESHED,LF,lure,-,-,-,liberal,yes,z,0,0.839746395708,-1,586
2019_Apr_23,112,001,3,recog,60,SOCIAL,HF,lure,-,-,-,conservative,no,m,1,1.13299194857,3,589
2019_Apr_23,112,001,3,recog,61,FESTERING,LF,lure,-,-,-,liberal,yes,z,0,0.706644098274,-1,588
2019_Apr_23,112,001,3,recog,62,CICADAS,LF,target,right,aqua,pleasantness,conservative,no,m,0,0.839999354794,-1,587
2019_Apr_23,112,001,3,recog,63,TABLE,HF,target,left,yellow,imageability,conservative,no,z,1,1.986194667,1,588
2019_Apr_23,112,001,3,recog,64,ALIAS,LF,target,right,aqua,pleasantness,conservative,no,z,1,0.533444855304,1,589
2019_Apr_23,112,001,3,recog,65,WATCH,HF,target,left,yellow,imageability,conservative,no,z,1,1.97269215173,1,590
2019_Apr_23,112,001,3,recog,66,UTTERANCE,LF,target,right,aqua,pleasantness,liberal,no,z,1,1.0931915883,3,593
2019_Apr_23,112,001,3,recog,67,RATHER,HF,target,right,aqua,pleasantness,conservative,no,z,1,2.85253915912,1,594
2019_Apr_23,112,001,3,recog,68,BEAUTIFUL,HF,target,right,aqua,pleasantness,liberal,no,z,1,0.733398002922,3,597
2019_Apr_23,112,001,3,recog,69,TARIFF,LF,target,left,yellow,imageability,conservative,no,z,1,0.666501326778,1,598
2019_Apr_23,112,001,3,recog,70,CABLED,LF,lure,-,-,-,conservative,no,m,1,0.79992880486,3,601
2019_Apr_23,112,001,3,recog,71,ASTERN,LF,lure,-,-,-,conservative,no,m,1,1.19975811249,3,604
2019_Apr_23,112,001,3,recog,72,BROUGHT,HF,target,left,yellow,imageability,liberal,no,z,1,1.15984153765,3,607
2019_Apr_23,112,001,3,recog,73,KIPPERS,LF,lure,-,-,-,liberal,no,m,1,0.773326309165,1,608
2019_Apr_23,112,001,3,recog,74,PLACE,HF,target,left,yellow,imageability,conservative,no,z,1,0.613400451781,1,609
2019_Apr_23,112,001,3,recog,75,GENERAL,HF,target,right,aqua,pleasantness,liberal,no,z,1,0.90663427324,3,612
2019_Apr_23,112,001,3,recog,76,EXACTLY,HF,lure,-,-,-,conservative,no,z,0,0.693409939588,-3,609
2019_Apr_23,112,001,3,recog,77,OBESE,LF,target,left,yellow,imageability,conservative,no,z,1,0.85328703816,1,610
2019_Apr_23,112,001,3,recog,78,LIGHT,HF,lure,-,-,-,conservative,no,m,1,0.746670288732,3,613
2019_Apr_23,112,001,3,recog,79,TONAL,LF,target,right,aqua,pleasantness,conservative,no,m,0,0.720119851234,-1,612
2019_Apr_23,112,001,3,recog,80,CAIRN,LF,lure,-,-,-,liberal,no,m,1,1.26621999225,1,613
2019_Apr_23,112,001,3,recog,81,HIMSELF,HF,target,left,yellow,imageability,conservative,no,z,1,1.73296760581,1,614
2019_Apr_23,112,001,3,recog,82,PAPER,HF,lure,-,-,-,liberal,no,m,1,0.706695789937,1,615
2019_Apr_23,112,001,3,recog,83,SECOND,HF,target,left,yellow,imageability,conservative,no,z,1,0.600172158796,1,616
2019_Apr_23,112,001,3,recog,84,LIQUEUR,LF,target,right,aqua,pleasantness,liberal,no,z,1,0.773280849797,3,619
2019_Apr_23,112,001,3,recog,85,CHOICE,HF,lure,-,-,-,liberal,no,m,1,1.94616920978,1,620
2019_Apr_23,112,001,3,recog,86,AGGRAVATE,LF,lure,-,-,-,conservative,no,m,1,0.693317554542,3,623
2019_Apr_23,112,001,3,recog,87,STRAIGHT,HF,lure,-,-,-,liberal,no,m,1,1.71962089866,1,624
2019_Apr_23,112,001,3,recog,88,IRISES,LF,lure,-,-,-,liberal,no,m,1,1.22649222024,1,625
2019_Apr_23,112,001,3,recog,89,SOYBEAN,LF,target,left,yellow,imageability,liberal,no,z,1,0.69334651652,3,628
2019_Apr_23,112,001,3,recog,90,DISARMED,LF,target,right,aqua,pleasantness,liberal,no,z,1,0.826631017728,3,631
2019_Apr_23,112,001,3,recog,91,TOWARDS,HF,target,right,aqua,pleasantness,liberal,no,z,1,0.733334213204,3,634
2019_Apr_23,112,001,3,recog,92,DRINK,HF,lure,-,-,-,liberal,no,m,1,0.786675582582,1,635
2019_Apr_23,112,001,3,recog,93,WOBBLE,LF,target,left,yellow,imageability,liberal,no,z,1,0.680103925872,3,638
2019_Apr_23,112,001,3,recog,94,REVERE,LF,target,right,aqua,pleasantness,conservative,no,z,1,1.07986797736,1,639
2019_Apr_23,112,001,3,recog,95,HUMAN,HF,lure,-,-,-,liberal,no,m,1,1.06654803251,1,640
2019_Apr_23,112,001,4,source,0,OFTEN,HF,target,right,aqua,pleasantness,conservative,no,9,1,2.0393201047,-,-
2019_Apr_23,112,001,4,source,1,UPDATE,LF,target,left,yellow,imageability,liberal,no,2,1,1.77290214441,-,-
2019_Apr_23,112,001,4,source,2,SUMMER,HF,target,left,yellow,imageability,conservative,no,1,1,1.3462115163,-,-
2019_Apr_23,112,001,4,source,3,SYRINGE,LF,target,left,yellow,imageability,liberal,no,1,1,0.706748214783,-,-
2019_Apr_23,112,001,4,source,4,DAGGERS,LF,target,left,yellow,imageability,liberal,yes,7,0,1.21315907757,-,-
2019_Apr_23,112,001,4,source,5,BRING,HF,target,left,yellow,imageability,conservative,no,9,0,1.43967256095,-,-
2019_Apr_23,112,001,4,source,6,REQUIRED,HF,target,right,aqua,pleasantness,liberal,no,9,1,1.2264764561,-,-
2019_Apr_23,112,001,4,source,7,SIMILAR,HF,target,left,yellow,imageability,liberal,no,9,0,0.879724927188,-,-
2019_Apr_23,112,001,4,source,8,ICONS,LF,target,right,aqua,pleasantness,liberal,no,9,1,1.01318100066,-,-
2019_Apr_23,112,001,4,source,9,CASES,HF,target,left,yellow,imageability,conservative,no,1,1,0.613358658564,-,-
2019_Apr_23,112,001,4,source,10,BAPTIZED,LF,target,left,yellow,imageability,conservative,no,9,0,0.959736248013,-,-
2019_Apr_23,112,001,4,source,11,QUESTION,HF,target,left,yellow,imageability,liberal,no,1,1,0.720042863744,-,-
2019_Apr_23,112,001,4,source,12,DIETING,LF,target,left,yellow,imageability,conservative,yes,3,1,0.986568606517,-,-
2019_Apr_23,112,001,4,source,13,AEONS,LF,target,left,yellow,imageability,conservative,no,1,1,1.94627112668,-,-
2019_Apr_23,112,001,4,source,14,GOVERNS,LF,target,left,yellow,imageability,conservative,no,1,1,1.15979094582,-,-
2019_Apr_23,112,001,4,source,15,ALTHOUGH,HF,target,right,aqua,pleasantness,conservative,no,1,0,1.25314824062,-,-
2019_Apr_23,112,001,4,source,16,ANSWER,HF,target,left,yellow,imageability,conservative,no,1,1,0.666656035057,-,-
2019_Apr_23,112,001,4,source,17,TURNED,HF,target,right,aqua,pleasantness,liberal,no,9,1,1.6130342111,-,-
2019_Apr_23,112,001,4,source,18,TAKEN,HF,target,left,yellow,imageability,liberal,no,1,1,2.35943797627,-,-
2019_Apr_23,112,001,4,source,19,MATERIAL,HF,target,right,aqua,pleasantness,conservative,no,9,1,0.77326031978,-,-
2019_Apr_23,112,001,4,source,20,ACTION,HF,target,right,aqua,pleasantness,conservative,yes,7,1,0.839959761128,-,-
2019_Apr_23,112,001,4,source,21,PROBABLY,HF,target,right,aqua,pleasantness,liberal,no,3,0,1.2131748416,-,-
2019_Apr_23,112,001,4,source,22,IDEAS,HF,target,right,aqua,pleasantness,liberal,no,9,1,0.746448491293,-,-
2019_Apr_23,112,001,4,source,23,LEARN,HF,target,right,aqua,pleasantness,liberal,no,1,0,0.733393236995,-,-
2019_Apr_23,112,001,4,source,24,SHORT,HF,target,left,yellow,imageability,liberal,yes,3,1,0.720009502431,-,-
2019_Apr_23,112,001,4,source,25,OSTRACISM,LF,target,right,aqua,pleasantness,liberal,no,9,1,0.746756808076,-,-
2019_Apr_23,112,001,4,source,26,LAWFUL,LF,target,left,yellow,imageability,liberal,no,9,0,1.67963136901,-,-
2019_Apr_23,112,001,4,source,27,GOUGED,LF,target,left,yellow,imageability,conservative,no,9,0,0.759992066654,-,-
2019_Apr_23,112,001,4,source,28,ENDEARING,LF,target,right,aqua,pleasantness,liberal,no,9,1,0.720009135839,-,-
2019_Apr_23,112,001,4,source,29,WAXEN,LF,target,right,aqua,pleasantness,conservative,no,9,1,0.6933388178,-,-
2019_Apr_23,112,001,4,source,30,FLICKS,LF,target,left,yellow,imageability,liberal,no,9,0,0.79975796584,-,-
2019_Apr_23,112,001,4,source,31,ABATED,LF,target,right,aqua,pleasantness,conservative,no,8,1,0.613391286577,-,-
2019_Apr_23,112,001,4,source,32,WANTED,HF,target,left,yellow,imageability,conservative,no,3,1,0.613329696585,-,-
2019_Apr_23,112,001,4,source,33,HISTORY,HF,target,left,yellow,imageability,liberal,no,7,0,0.506840159942,-,-
2019_Apr_23,112,001,4,source,34,OCHRE,LF,target,right,aqua,pleasantness,conservative,no,1,0,0.999884518678,-,-
2019_Apr_23,112,001,4,source,35,SAINTLY,LF,target,right,aqua,pleasantness,liberal,no,2,0,0.520088616351,-,-
2019_Apr_23,112,001,4,source,36,WITHIN,HF,target,left,yellow,imageability,liberal,no,8,0,0.600059976976,-,-
2019_Apr_23,112,001,4,source,37,PRIVATE,HF,target,left,yellow,imageability,conservative,no,9,0,0.77335967042,-,-
2019_Apr_23,112,001,4,source,38,VESTIBULE,LF,target,right,aqua,pleasantness,liberal,no,2,0,0.573503673717,-,-
2019_Apr_23,112,001,4,source,39,SPACE,HF,target,right,aqua,pleasantness,conservative,no,9,1,1.03982858907,-,-
2019_Apr_23,112,001,4,source,40,ATHEIST,LF,target,right,aqua,pleasantness,conservative,no,9,1,0.800013857777,-,-
2019_Apr_23,112,001,4,source,41,NURTURING,LF,target,left,yellow,imageability,liberal,no,9,0,0.760074553313,-,-
2019_Apr_23,112,001,4,source,42,PELTED,LF,target,left,yellow,imageability,conservative,no,9,0,0.600005719112,-,-
2019_Apr_23,112,001,4,source,43,BOASTS,LF,target,right,aqua,pleasantness,liberal,no,1,0,0.653157919063,-,-
2019_Apr_23,112,001,4,source,44,WALKED,HF,target,right,aqua,pleasantness,conservative,no,1,0,0.546717874357,-,-
2019_Apr_23,112,001,4,source,45,LIARS,LF,target,right,aqua,pleasantness,conservative,no,1,0,0.533410394215,-,-
2019_Apr_23,112,001,4,source,46,USUAL,HF,target,right,aqua,pleasantness,liberal,no,8,1,0.626492733485,-,-
2019_Apr_23,112,001,4,source,47,BURGH,LF,target,right,aqua,pleasantness,conservative,no,2,0,0.306883346231,-,-
2019_Apr_23,112,001,4,recog,0,OFTEN,HF,target,right,aqua,pleasantness,conservative,no,z,1,1.09315236128,1,641
2019_Apr_23,112,001,4,recog,1,HUSBAND,HF,lure,-,-,-,conservative,no,m,1,0.7200362648,3,644
2019_Apr_23,112,001,4,recog,2,ABATED,LF,target,right,aqua,pleasantness,conservative,no,z,1,0.786751836888,1,645
2019_Apr_23,112,001,4,recog,3,WANTED,HF,target,left,yellow,imageability,conservative,no,m,0,1.07997429348,-1,644
2019_Apr_23,112,001,4,recog,4,GIRLS,HF,lure,-,-,-,conservative,no,m,1,1.10653059668,3,647
2019_Apr_23,112,001,4,recog,5,SOUND,HF,lure,-,-,-,liberal,yes,z,0,0.813253148983,-1,646
2019_Apr_23,112,001,4,recog,6,MATERIAL,HF,target,right,aqua,pleasantness,conservative,no,z,1,0.933242268045,1,647
2019_Apr_23,112,001,4,recog,7,WHITE,HF,lure,-,-,-,liberal,no,m,1,1.29319752729,1,648
2019_Apr_23,112,001,4,recog,8,EXCEPT,HF,lure,-,-,-,conservative,no,m,1,1.19982190215,3,651
2019_Apr_23,112,001,4,recog,9,SMALL,HF,lure,-,-,-,liberal,no,z,0,0.573339800292,-1,650
2019_Apr_23,112,001,4,recog,10,FLICKS,LF,target,left,yellow,imageability,liberal,no,z,1,0.746623362997,3,653
2019_Apr_23,112,001,4,recog,11,VALUE,HF,lure,-,-,-,conservative,no,m,1,0.786650653288,3,656
2019_Apr_23,112,001,4,recog,12,HYDRAULIC,LF,lure,-,-,-,liberal,no,m,1,0.666700394533,1,657
2019_Apr_23,112,001,4,recog,13,DAGGERS,LF,target,left,yellow,imageability,liberal,no,z,1,0.653369084874,3,660
2019_Apr_23,112,001,4,recog,14,OSTRACISM,LF,target,right,aqua,pleasantness,liberal,no,z,1,0.680005675065,3,663
2019_Apr_23,112,001,4,recog,15,USUAL,HF,target,right,aqua,pleasantness,liberal,no,z,1,0.706604504725,3,666
2019_Apr_23,112,001,4,recog,16,DREADING,LF,lure,-,-,-,liberal,no,m,1,0.680029504525,1,667
2019_Apr_23,112,001,4,recog,17,BEYOND,HF,lure,-,-,-,liberal,no,m,1,1.07982655073,1,668
2019_Apr_23,112,001,4,recog,18,WALKED,HF,target,right,aqua,pleasantness,conservative,no,z,1,2.17276078067,1,669
2019_Apr_23,112,001,4,recog,19,LINEAGE,LF,lure,-,-,-,conservative,no,m,1,0.813327570271,3,672
2019_Apr_23,112,001,4,recog,20,TAKEN,HF,target,left,yellow,imageability,liberal,no,z,1,0.600132931839,3,675
2019_Apr_23,112,001,4,recog,21,ANSWER,HF,target,left,yellow,imageability,conservative,no,z,1,0.546885047341,1,676
2019_Apr_23,112,001,4,recog,22,SHORT,HF,target,left,yellow,imageability,liberal,yes,z,1,0.733421465731,3,679
2019_Apr_23,112,001,4,recog,23,SAINTLY,LF,target,right,aqua,pleasantness,liberal,no,z,1,0.68005736667,3,682
2019_Apr_23,112,001,4,recog,24,AFRAID,HF,lure,-,-,-,conservative,no,m,1,0.879874869541,3,685
2019_Apr_23,112,001,4,recog,25,MILES,HF,lure,-,-,-,conservative,no,m,1,0.52010144759,3,688
2019_Apr_23,112,001,4,recog,26,IDEAS,HF,target,right,aqua,pleasantness,liberal,no,z,1,0.546860118047,3,691
2019_Apr_23,112,001,4,recog,27,LEGALITY,LF,lure,-,-,-,conservative,no,m,1,0.919918290572,3,694
2019_Apr_23,112,001,4,recog,28,KANGAROO,LF,lure,-,-,-,conservative,no,m,1,0.959886190423,3,697
2019_Apr_23,112,001,4,recog,29,SHRED,LF,lure,-,-,-,liberal,no,z,0,0.986541844206,-1,696
2019_Apr_23,112,001,4,recog,30,RIVER,HF,lure,-,-,-,conservative,no,m,1,0.853344962117,3,699
2019_Apr_23,112,001,4,recog,31,BUDDIES,LF,lure,-,-,-,conservative,no,m,1,0.626691068057,3,702
2019_Apr_23,112,001,4,recog,32,BOASTS,LF,target,right,aqua,pleasantness,liberal,no,z,1,0.773346472532,3,705
2019_Apr_23,112,001,4,recog,33,PROBABLY,HF,target,right,aqua,pleasantness,liberal,no,z,1,0.853288137994,3,708
2019_Apr_23,112,001,4,recog,34,ABBOT,LF,lure,-,-,-,conservative,no,m,1,0.693334051932,3,711
2019_Apr_23,112,001,4,recog,35,ACTION,HF,target,right,aqua,pleasantness,conservative,no,m,0,0.733344844833,-1,710
2019_Apr_23,112,001,4,recog,36,GOVERNS,LF,target,left,yellow,imageability,conservative,no,m,0,1.13315068954,-1,709
2019_Apr_23,112,001,4,recog,37,BURGH,LF,target,right,aqua,pleasantness,conservative,no,z,1,0.706651797052,1,710
2019_Apr_23,112,001,4,recog,38,BULBOUS,LF,lure,-,-,-,liberal,no,m,1,1.14661911037,1,711
2019_Apr_23,112,001,4,recog,39,ENDEARING,LF,target,right,aqua,pleasantness,liberal,no,z,1,1.25313650916,3,714
2019_Apr_23,112,001,4,recog,40,SPLASHES,LF,lure,-,-,-,liberal,no,m,1,1.85286727274,1,715
2019_Apr_23,112,001,4,recog,41,YOUNG,HF,lure,-,-,-,liberal,no,m,1,2.01265235286,1,716
2019_Apr_23,112,001,4,recog,42,SIMILAR,HF,target,left,yellow,imageability,liberal,no,m,0,0.813294208958,-3,713
2019_Apr_23,112,001,4,recog,43,CASES,HF,target,left,yellow,imageability,conservative,no,z,1,1.15986353409,1,714
2019_Apr_23,112,001,4,recog,44,PHRASED,LF,lure,-,-,-,conservative,no,z,0,0.826578959473,-3,711
2019_Apr_23,112,001,4,recog,45,SUFFERER,LF,lure,-,-,-,liberal,no,m,1,1.4663740407,1,712
2019_Apr_23,112,001,4,recog,46,INMATE,LF,lure,-,-,-,liberal,no,m,1,1.38646390347,1,713
2019_Apr_23,112,001,4,recog,47,QUESTION,HF,target,left,yellow,imageability,liberal,yes,z,1,0.693321220635,3,716
2019_Apr_23,112,001,4,recog,48,TATTERS,LF,lure,-,-,-,liberal,no,m,1,1.0798441479,1,717
2019_Apr_23,112,001,4,recog,49,SERIOUS,HF,lure,-,-,-,liberal,no,m,1,0.640079201839,1,718
2019_Apr_23,112,001,4,recog,50,TURNED,HF,target,right,aqua,pleasantness,liberal,no,m,0,1.25318636774,-3,715
2019_Apr_23,112,001,4,recog,51,TOADS,LF,lure,-,-,-,liberal,no,m,1,0.693468230194,1,716
2019_Apr_23,112,001,4,recog,52,DIETING,LF,target,left,yellow,imageability,conservative,no,z,1,0.679995410086,1,717
2019_Apr_23,112,001,4,recog,53,BRING,HF,target,left,yellow,imageability,conservative,no,m,0,1.05318262835,-1,716
2019_Apr_23,112,001,4,recog,54,POSITION,HF,lure,-,-,-,liberal,no,m,1,1.09328140708,1,717
2019_Apr_23,112,001,4,recog,55,AEONS,LF,target,left,yellow,imageability,conservative,no,m,0,0.959659993649,-1,716
2019_Apr_23,112,001,4,recog,56,REQUIRED,HF,target,right,aqua,pleasantness,liberal,no,z,1,1.01322426036,3,719
2019_Apr_23,112,001,4,recog,57,BEHIND,HF,lure,-,-,-,liberal,no,z,0,1.65300980967,-1,718
2019_Apr_23,112,001,4,recog,58,CAUGHT,HF,lure,-,-,-,conservative,no,m,1,0.706743082323,3,721
2019_Apr_23,112,001,4,recog,59,ATHEIST,LF,target,right,aqua,pleasantness,conservative,no,z,1,1.73260356474,1,722
2019_Apr_23,112,001,4,recog,60,NECESSARY,HF,lure,-,-,-,conservative,no,z,0,1.45310322125,-3,719
2019_Apr_23,112,001,4,recog,61,WAXEN,LF,target,right,aqua,pleasantness,conservative,yes,m,0,0.653438007052,-1,718
2019_Apr_23,112,001,4,recog,62,HISTORY,HF,target,left,yellow,imageability,liberal,no,z,1,0.786736805981,3,721
2019_Apr_23,112,001,4,recog,63,ICONS,LF,target,right,aqua,pleasantness,liberal,no,z,1,0.560069347499,3,724
2019_Apr_23,112,001,4,recog,64,PAGANISM,LF,lure,-,-,-,liberal,no,m,1,0.746617863886,1,725
2019_Apr_23,112,001,4,recog,65,NURTURING,LF,target,left,yellow,imageability,liberal,no,z,1,0.853291070787,3,728
2019_Apr_23,112,001,4,recog,66,LEARN,HF,target,right,aqua,pleasantness,liberal,no,z,1,0.586855880043,3,731
2019_Apr_23,112,001,4,recog,67,NAPPY,LF,lure,-,-,-,conservative,no,m,1,0.600067309104,3,734
2019_Apr_23,112,001,4,recog,68,SUBJECT,HF,lure,-,-,-,liberal,no,z,0,0.773272784485,-1,733
2019_Apr_23,112,001,4,recog,69,BUGGED,LF,lure,-,-,-,liberal,no,m,1,0.746639493736,1,734
2019_Apr_23,112,001,4,recog,70,OCHRE,LF,target,right,aqua,pleasantness,conservative,no,z,1,0.693344316853,1,735
2019_Apr_23,112,001,4,recog,71,PRIVATE,HF,target,left,yellow,imageability,conservative,no,z,1,0.680027304916,1,736
2019_Apr_23,112,001,4,recog,72,SPACE,HF,target,right,aqua,pleasantness,conservative,no,z,1,0.906618142501,1,737
2019_Apr_23,112,001,4,recog,73,UPDATE,LF,target,left,yellow,imageability,liberal,no,z,1,0.613359025156,3,740
2019_Apr_23,112,001,4,recog,74,BAPTIZED,LF,target,left,yellow,imageability,conservative,no,z,1,0.759994266264,1,741
2019_Apr_23,112,001,4,recog,75,LIARS,LF,target,right,aqua,pleasantness,conservative,no,z,1,0.626516929537,1,742
2019_Apr_23,112,001,4,recog,76,FERRET,LF,lure,-,-,-,conservative,no,m,1,0.786620591418,3,745
2019_Apr_23,112,001,4,recog,77,MEDDLE,LF,lure,-,-,-,liberal,no,m,1,0.653152419953,1,746
2019_Apr_23,112,001,4,recog,78,GOUGED,LF,target,left,yellow,imageability,conservative,no,m,0,0.546746103151,-1,745
2019_Apr_23,112,001,4,recog,79,LAWFUL,LF,target,left,yellow,imageability,liberal,no,z,1,0.533432390657,3,748
2019_Apr_23,112,001,4,recog,80,WRONG,HF,lure,-,-,-,conservative,no,m,1,0.493410966126,3,751
2019_Apr_23,112,001,4,recog,81,CALLED,HF,lure,-,-,-,liberal,no,z,0,0.600054844457,-1,750
2019_Apr_23,112,001,4,recog,82,SYRINGE,LF,target,left,yellow,imageability,liberal,no,z,1,0.600087472529,3,753
2019_Apr_23,112,001,4,recog,83,ALTHOUGH,HF,target,right,aqua,pleasantness,conservative,no,z,1,0.586848181265,1,754
2019_Apr_23,112,001,4,recog,84,PESTERED,LF,lure,-,-,-,conservative,no,m,1,0.626713064499,3,757
2019_Apr_23,112,001,4,recog,85,ELATION,LF,lure,-,-,-,conservative,no,z,0,0.520075418463,-3,754
2019_Apr_23,112,001,4,recog,86,SUMMER,HF,target,left,yellow,imageability,conservative,no,z,1,0.586733066593,1,755
2019_Apr_23,112,001,4,recog,87,PELTED,LF,target,left,yellow,imageability,conservative,no,z,1,3.4922880478,1,756
2019_Apr_23,112,001,4,recog,88,MONEY,HF,lure,-,-,-,conservative,no,m,1,1.106477072,3,759
2019_Apr_23,112,001,4,recog,89,PIECE,HF,lure,-,-,-,liberal,no,z,0,0.799937970063,-1,758
2019_Apr_23,112,001,4,recog,90,ECONOMIC,HF,lure,-,-,-,liberal,no,m,1,2.67927722627,1,759
2019_Apr_23,112,001,4,recog,91,OUTSIDE,HF,lure,-,-,-,conservative,no,m,1,0.719893287926,3,762
2019_Apr_23,112,001,4,recog,92,TOKENS,LF,lure,-,-,-,conservative,no,m,1,0.56007228035,3,765
2019_Apr_23,112,001,4,recog,93,VESTIBULE,LF,target,right,aqua,pleasantness,liberal,no,m,0,0.573370228696,-3,762
2019_Apr_23,112,001,4,recog,94,WITHIN,HF,target,left,yellow,imageability,liberal,no,z,1,0.733325414651,3,765
2019_Apr_23,112,001,4,recog,95,FANATICS,LF,lure,-,-,-,conservative,no,m,1,0.546771765628,3,768
