date,subj,session,cycle,task,trial,item,wf,type,source,colour,encoding,bias,null,response,corr,rt,points,total
2019_Apr_24,113,001,0,source,0,BOTANIST,LF,target,right,yellow,imageability,liberal,yes,1,0,2.46582339646,-,-
2019_Apr_24,113,001,0,source,1,TABLE,HF,target,right,yellow,imageability,conservative,no,7,1,1.70607072447,-,-
2019_Apr_24,113,001,0,source,2,LETTER,HF,target,left,aqua,pleasantness,liberal,no,7,0,2.55925401265,-,-
2019_Apr_24,113,001,0,source,3,SIDED,LF,target,left,aqua,pleasantness,liberal,no,1,1,0.959742113715,-,-
2019_Apr_24,113,001,0,source,4,CHAIR,HF,target,right,yellow,imageability,conservative,no,7,1,0.75977943436,-,-
2019_Apr_24,113,001,0,source,5,FIGURE,HF,target,right,yellow,imageability,liberal,no,7,1,1.98614480841,-,-
2019_Apr_24,113,001,0,source,6,LIMELIGHT,LF,target,left,aqua,pleasantness,conservative,no,7,0,0.893341823947,-,-
2019_Apr_24,113,001,0,source,7,ELECTING,LF,target,right,yellow,imageability,conservative,no,7,1,1.15994968679,-,-
2019_Apr_24,113,001,0,source,8,REREAD,LF,target,left,aqua,pleasantness,conservative,no,1,1,0.679981845606,-,-
2019_Apr_24,113,001,0,source,9,DOCTOR,HF,target,right,yellow,imageability,liberal,no,7,1,0.679982945439,-,-
2019_Apr_24,113,001,0,source,10,ALREADY,HF,target,right,yellow,imageability,liberal,no,1,0,0.746668089123,-,-
2019_Apr_24,113,001,0,source,11,DIDACTIC,LF,target,left,aqua,pleasantness,liberal,no,1,1,1.55976286373,-,-
2019_Apr_24,113,001,0,source,12,SQUADRONS,LF,target,left,aqua,pleasantness,conservative,no,7,0,1.47983439616,-,-
2019_Apr_24,113,001,0,source,13,HATCHES,LF,target,right,yellow,imageability,liberal,no,7,1,0.653196412837,-,-
2019_Apr_24,113,001,0,source,14,LEECH,LF,target,right,yellow,imageability,liberal,no,7,1,0.626672004466,-,-
2019_Apr_24,113,001,0,source,15,PRIVATE,HF,target,left,aqua,pleasantness,liberal,no,1,1,2.42609342479,-,-
2019_Apr_24,113,001,0,source,16,NUMBER,HF,target,left,aqua,pleasantness,conservative,yes,1,1,1.57297319296,-,-
2019_Apr_24,113,001,0,source,17,JOURNEYED,LF,target,left,aqua,pleasantness,liberal,no,1,1,1.35954869172,-,-
2019_Apr_24,113,001,0,source,18,VANDALS,LF,target,left,aqua,pleasantness,liberal,yes,1,1,0.693464930693,-,-
2019_Apr_24,113,001,0,source,19,HIGHER,HF,target,right,yellow,imageability,liberal,no,7,1,0.90634831955,-,-
2019_Apr_24,113,001,0,source,20,ORDER,HF,target,left,aqua,pleasantness,liberal,no,1,1,0.933338685776,-,-
2019_Apr_24,113,001,0,source,21,BEGAN,HF,target,left,aqua,pleasantness,conservative,no,1,1,0.613346560567,-,-
2019_Apr_24,113,001,0,source,22,EMIGRATED,LF,target,left,aqua,pleasantness,conservative,no,1,1,1.01317330188,-,-
2019_Apr_24,113,001,0,source,23,MOODILY,LF,target,right,yellow,imageability,conservative,no,7,1,0.60001268459,-,-
2019_Apr_24,113,001,0,source,24,ATTACK,HF,target,left,aqua,pleasantness,conservative,no,1,1,0.733337879297,-,-
2019_Apr_24,113,001,0,source,25,ALLOWED,HF,target,left,aqua,pleasantness,liberal,no,1,1,1.14658684895,-,-
2019_Apr_24,113,001,0,source,26,BEAUTIFUL,HF,target,left,aqua,pleasantness,liberal,no,1,1,0.666522223386,-,-
2019_Apr_24,113,001,0,source,27,CANNOT,HF,target,right,yellow,imageability,conservative,no,7,1,1.70607585693,-,-
2019_Apr_24,113,001,0,source,28,SWOOPING,LF,target,left,aqua,pleasantness,conservative,no,7,0,0.893326059857,-,-
2019_Apr_24,113,001,0,source,29,TOGETHER,HF,target,right,yellow,imageability,conservative,yes,7,1,0.600068042346,-,-
2019_Apr_24,113,001,0,source,30,LAPELS,LF,target,right,yellow,imageability,liberal,no,7,1,0.733293153171,-,-
2019_Apr_24,113,001,0,source,31,YOGHURT,LF,target,right,yellow,imageability,conservative,no,7,1,0.520154605678,-,-
2019_Apr_24,113,001,0,source,32,WAITING,HF,target,right,yellow,imageability,conservative,no,1,0,1.46634067944,-,-
2019_Apr_24,113,001,0,source,33,HAUNCHES,LF,target,right,yellow,imageability,liberal,no,7,1,1.25309948187,-,-
2019_Apr_24,113,001,0,source,34,EMULATION,LF,target,left,aqua,pleasantness,liberal,no,7,0,1.33315149607,-,-
2019_Apr_24,113,001,0,source,35,YACHTING,LF,target,right,yellow,imageability,conservative,no,9,1,3.03905944683,-,-
2019_Apr_24,113,001,0,source,36,AGATE,LF,target,right,yellow,imageability,conservative,no,9,1,1.97280653327,-,-
2019_Apr_24,113,001,0,source,37,PIECE,HF,target,right,yellow,imageability,liberal,no,8,1,1.86618391809,-,-
2019_Apr_24,113,001,0,source,38,POWER,HF,target,right,yellow,imageability,conservative,no,8,1,2.03945758246,-,-
2019_Apr_24,113,001,0,source,39,LODGERS,LF,target,left,aqua,pleasantness,conservative,no,2,1,1.35954245937,-,-
2019_Apr_24,113,001,0,source,40,VOICE,HF,target,right,yellow,imageability,liberal,no,7,1,1.39953638834,-,-
2019_Apr_24,113,001,0,source,41,FINAL,HF,target,left,aqua,pleasantness,conservative,no,2,1,2.02590594173,-,-
2019_Apr_24,113,001,0,source,42,HANDS,HF,target,left,aqua,pleasantness,conservative,no,7,0,1.87930186233,-,-
2019_Apr_24,113,001,0,source,43,NEARLY,HF,target,left,aqua,pleasantness,liberal,no,1,1,0.879900532134,-,-
2019_Apr_24,113,001,0,source,44,LICENSING,LF,target,right,yellow,imageability,conservative,no,7,1,0.77345278865,-,-
2019_Apr_24,113,001,0,source,45,GREATER,HF,target,left,aqua,pleasantness,conservative,no,1,1,0.97321126773,-,-
2019_Apr_24,113,001,0,source,46,FENCED,LF,target,left,aqua,pleasantness,liberal,no,1,1,0.959704353183,-,-
2019_Apr_24,113,001,0,source,47,RAIDER,LF,target,right,yellow,imageability,liberal,no,7,1,0.839640446182,-,-
2019_Apr_24,113,001,0,recog,0,ECLECTIC,LF,lure,-,-,-,liberal,no,m,1,2.13280791172,1,1
2019_Apr_24,113,001,0,recog,1,LEECH,LF,target,right,yellow,imageability,liberal,no,z,1,0.760008563928,3,4
2019_Apr_24,113,001,0,recog,2,SOVIET,HF,lure,-,-,-,conservative,no,m,1,1.11981828004,3,7
2019_Apr_24,113,001,0,recog,3,ROOFED,LF,lure,-,-,-,liberal,no,m,1,0.826707272092,1,8
2019_Apr_24,113,001,0,recog,4,JOURNEYED,LF,target,left,aqua,pleasantness,liberal,no,z,1,1.01321949437,3,11
2019_Apr_24,113,001,0,recog,5,POINT,HF,lure,-,-,-,conservative,no,m,1,0.813046382449,3,14
2019_Apr_24,113,001,0,recog,6,DOCTOR,HF,target,right,yellow,imageability,liberal,no,z,1,0.879969820904,3,17
2019_Apr_24,113,001,0,recog,7,SWOOPING,LF,target,left,aqua,pleasantness,conservative,no,z,1,0.640156922629,1,18
2019_Apr_24,113,001,0,recog,8,DIDACTIC,LF,target,left,aqua,pleasantness,liberal,no,z,1,2.67920647102,3,21
2019_Apr_24,113,001,0,recog,9,SUSPEND,LF,lure,-,-,-,liberal,no,m,1,1.30629860755,1,22
2019_Apr_24,113,001,0,recog,10,NIGHT,HF,lure,-,-,-,conservative,no,m,1,1.50633094233,3,25
2019_Apr_24,113,001,0,recog,11,NUMBER,HF,target,left,aqua,pleasantness,conservative,no,None,-1,-1,-1,24
2019_Apr_24,113,001,0,recog,12,LETTER,HF,target,left,aqua,pleasantness,liberal,no,z,1,2.78590130783,3,27
2019_Apr_24,113,001,0,recog,13,HAUNCHES,LF,target,right,yellow,imageability,liberal,yes,z,1,0.973284589185,3,30
2019_Apr_24,113,001,0,recog,14,RAIDER,LF,target,right,yellow,imageability,liberal,no,m,0,4.46516533627,-3,27
2019_Apr_24,113,001,0,recog,15,ATTACK,HF,target,left,aqua,pleasantness,conservative,no,m,0,2.63936175127,-1,26
2019_Apr_24,113,001,0,recog,16,ALLOWED,HF,target,left,aqua,pleasantness,liberal,no,z,1,0.906448403315,3,29
2019_Apr_24,113,001,0,recog,17,WAITING,HF,target,right,yellow,imageability,conservative,no,z,1,1.98621153092,1,30
2019_Apr_24,113,001,0,recog,18,VOICE,HF,target,right,yellow,imageability,liberal,no,z,1,6.13123333314,3,33
2019_Apr_24,113,001,0,recog,19,STOOD,HF,lure,-,-,-,liberal,no,m,1,1.05319472647,1,34
2019_Apr_24,113,001,0,recog,20,EMULATION,LF,target,left,aqua,pleasantness,liberal,no,z,1,1.03966544883,3,37
2019_Apr_24,113,001,0,recog,21,LODGERS,LF,target,left,aqua,pleasantness,conservative,no,m,0,2.13268509822,-1,36
2019_Apr_24,113,001,0,recog,22,YACHTING,LF,target,right,yellow,imageability,conservative,no,z,1,0.933321821853,1,37
2019_Apr_24,113,001,0,recog,23,SITTING,HF,lure,-,-,-,liberal,no,m,1,1.39970099507,1,38
2019_Apr_24,113,001,0,recog,24,BEGAN,HF,target,left,aqua,pleasantness,conservative,no,z,1,1.13339741627,1,39
2019_Apr_24,113,001,0,recog,25,MOODILY,LF,target,right,yellow,imageability,conservative,no,z,1,2.3860049111,1,40
2019_Apr_24,113,001,0,recog,26,SUMMER,HF,lure,-,-,-,conservative,no,m,1,2.01281036058,3,43
2019_Apr_24,113,001,0,recog,27,SUCCESS,HF,lure,-,-,-,liberal,no,z,0,2.27937019791,-1,42
2019_Apr_24,113,001,0,recog,28,FORCE,HF,lure,-,-,-,conservative,no,m,1,2.8391385607,3,45
2019_Apr_24,113,001,0,recog,29,LEVEL,HF,lure,-,-,-,liberal,no,m,1,2.59923621028,1,46
2019_Apr_24,113,001,0,recog,30,SCENARIOS,LF,lure,-,-,-,conservative,no,m,1,1.2531805021,3,49
2019_Apr_24,113,001,0,recog,31,BOTANIST,LF,target,right,yellow,imageability,liberal,no,m,0,0.973242062784,-3,46
2019_Apr_24,113,001,0,recog,32,SEVEN,HF,lure,-,-,-,conservative,no,m,1,2.9857891993,3,49
2019_Apr_24,113,001,0,recog,33,HANDS,HF,target,left,aqua,pleasantness,conservative,no,z,1,0.600131465355,1,50
2019_Apr_24,113,001,0,recog,34,AGONIZED,LF,lure,-,-,-,conservative,no,m,1,1.18645943084,3,53
2019_Apr_24,113,001,0,recog,35,WEEKS,HF,lure,-,-,-,liberal,no,z,0,2.37250092934,-1,52
2019_Apr_24,113,001,0,recog,36,LAPELS,LF,target,right,yellow,imageability,liberal,no,z,1,1.75956056977,3,55
2019_Apr_24,113,001,0,recog,37,SIESTA,LF,lure,-,-,-,liberal,no,m,1,1.38642357668,1,56
2019_Apr_24,113,001,0,recog,38,LEPROSY,LF,lure,-,-,-,liberal,yes,z,0,0.613338128547,-1,55
2019_Apr_24,113,001,0,recog,39,LIGHT,HF,lure,-,-,-,conservative,no,m,1,3.93205556006,3,58
2019_Apr_24,113,001,0,recog,40,HATCHES,LF,target,right,yellow,imageability,liberal,no,z,1,0.853290704254,3,61
2019_Apr_24,113,001,0,recog,41,GREATER,HF,target,left,aqua,pleasantness,conservative,no,z,1,1.19989229075,1,62
2019_Apr_24,113,001,0,recog,42,FRIEND,HF,lure,-,-,-,liberal,no,m,1,0.840074875858,1,63
2019_Apr_24,113,001,0,recog,43,ALREADY,HF,target,right,yellow,imageability,liberal,no,z,1,0.999965172261,3,66
2019_Apr_24,113,001,0,recog,44,CERTAIN,HF,lure,-,-,-,liberal,no,m,1,0.666479696927,1,67
2019_Apr_24,113,001,0,recog,45,TABLE,HF,target,right,yellow,imageability,conservative,no,z,1,0.760011130187,1,68
2019_Apr_24,113,001,0,recog,46,PRIVATE,HF,target,left,aqua,pleasantness,liberal,yes,z,1,1.23987448832,3,71
2019_Apr_24,113,001,0,recog,47,IRRIGATED,LF,lure,-,-,-,conservative,no,m,1,2.02594663511,3,74
2019_Apr_24,113,001,0,recog,48,YOGHURT,LF,target,right,yellow,imageability,conservative,no,z,1,0.999685817515,1,75
2019_Apr_24,113,001,0,recog,49,REREAD,LF,target,left,aqua,pleasantness,conservative,no,z,1,0.97328862187,1,76
2019_Apr_24,113,001,0,recog,50,GAPED,LF,lure,-,-,-,conservative,no,m,1,0.786764668184,3,79
2019_Apr_24,113,001,0,recog,51,CADDIE,LF,lure,-,-,-,conservative,no,m,1,0.746448124701,3,82
2019_Apr_24,113,001,0,recog,52,MAILBOX,LF,lure,-,-,-,conservative,no,m,1,0.640036308847,3,85
2019_Apr_24,113,001,0,recog,53,TOGETHER,HF,target,right,yellow,imageability,conservative,no,z,1,0.65348053351,1,86
2019_Apr_24,113,001,0,recog,54,ELECTING,LF,target,right,yellow,imageability,conservative,no,z,1,0.719946446014,1,87
2019_Apr_24,113,001,0,recog,55,SLACKEN,LF,lure,-,-,-,liberal,no,m,1,0.746671755216,1,88
2019_Apr_24,113,001,0,recog,56,STAFF,HF,lure,-,-,-,liberal,no,m,1,0.893278767471,1,89
2019_Apr_24,113,001,0,recog,57,FLAGGED,LF,lure,-,-,-,conservative,no,m,1,0.679985145049,3,92
2019_Apr_24,113,001,0,recog,58,RANGE,HF,lure,-,-,-,conservative,no,m,1,0.74663509446,3,95
2019_Apr_24,113,001,0,recog,59,QUESTION,HF,lure,-,-,-,liberal,no,m,1,0.560078146053,1,96
2019_Apr_24,113,001,0,recog,60,PROBABLY,HF,lure,-,-,-,conservative,no,m,1,1.2131077525,3,99
2019_Apr_24,113,001,0,recog,61,REUNITED,LF,lure,-,-,-,liberal,no,m,1,0.71975544357,1,100
2019_Apr_24,113,001,0,recog,62,SCOFFED,LF,lure,-,-,-,liberal,no,m,1,0.7333037848,1,101
2019_Apr_24,113,001,0,recog,63,WEIRDLY,LF,lure,-,-,-,conservative,no,m,1,0.506803865836,3,104
2019_Apr_24,113,001,0,recog,64,LICENSING,LF,target,right,yellow,imageability,conservative,no,z,1,1.06655719772,1,105
2019_Apr_24,113,001,0,recog,65,EMIGRATED,LF,target,left,aqua,pleasantness,conservative,no,z,1,0.600014884258,1,106
2019_Apr_24,113,001,0,recog,66,CANNOT,HF,target,right,yellow,imageability,conservative,no,z,1,0.799758699024,1,107
2019_Apr_24,113,001,0,recog,67,CRYPT,LF,lure,-,-,-,liberal,no,m,1,0.91971445689,1,108
2019_Apr_24,113,001,0,recog,68,HIGHER,HF,target,right,yellow,imageability,liberal,no,z,1,0.59985541011,3,111
2019_Apr_24,113,001,0,recog,69,ERODE,LF,lure,-,-,-,conservative,no,m,1,0.626667971781,3,114
2019_Apr_24,113,001,0,recog,70,RASCAL,LF,lure,-,-,-,conservative,no,m,1,0.626733227866,3,117
2019_Apr_24,113,001,0,recog,71,NEARLY,HF,target,left,aqua,pleasantness,liberal,no,z,1,0.666662633943,3,120
2019_Apr_24,113,001,0,recog,72,SIDED,LF,target,left,aqua,pleasantness,liberal,no,z,1,0.480066091928,3,123
2019_Apr_24,113,001,0,recog,73,FINAL,HF,target,left,aqua,pleasantness,conservative,no,z,1,0.613390186802,1,124
2019_Apr_24,113,001,0,recog,74,EXACTLY,HF,lure,-,-,-,conservative,no,z,0,0.520094482054,-3,121
2019_Apr_24,113,001,0,recog,75,PARENTS,HF,lure,-,-,-,liberal,yes,z,0,1.0132029971,-1,120
2019_Apr_24,113,001,0,recog,76,PNEUMATIC,LF,lure,-,-,-,liberal,no,m,1,0.906563884637,1,121
2019_Apr_24,113,001,0,recog,77,BEAUTIFUL,HF,target,left,aqua,pleasantness,liberal,no,z,1,0.679985878291,3,124
2019_Apr_24,113,001,0,recog,78,LIMELIGHT,LF,target,left,aqua,pleasantness,conservative,no,z,1,1.27969904465,1,125
2019_Apr_24,113,001,0,recog,79,TRIED,HF,lure,-,-,-,conservative,no,m,1,1.02653907269,3,128
2019_Apr_24,113,001,0,recog,80,NEITHER,HF,lure,-,-,-,conservative,no,m,1,0.666673632222,3,131
2019_Apr_24,113,001,0,recog,81,BIBLES,LF,lure,-,-,-,liberal,no,m,1,0.613396419154,1,132
2019_Apr_24,113,001,0,recog,82,CHAIR,HF,target,right,yellow,imageability,conservative,no,z,1,0.613345827325,1,133
2019_Apr_24,113,001,0,recog,83,CLOSE,HF,lure,-,-,-,liberal,no,m,1,0.720080257684,1,134
2019_Apr_24,113,001,0,recog,84,PIECE,HF,target,right,yellow,imageability,liberal,no,z,1,0.640000381274,3,137
2019_Apr_24,113,001,0,recog,85,POWER,HF,target,right,yellow,imageability,conservative,no,z,1,0.813307773496,1,138
2019_Apr_24,113,001,0,recog,86,ORDER,HF,target,left,aqua,pleasantness,liberal,no,z,1,0.50683172798,3,141
2019_Apr_24,113,001,0,recog,87,AGATE,LF,target,right,yellow,imageability,conservative,no,m,0,0.719921883312,-1,140
2019_Apr_24,113,001,0,recog,88,FIGURE,HF,target,right,yellow,imageability,liberal,no,z,1,0.600057044066,3,143
2019_Apr_24,113,001,0,recog,89,SQUADRONS,LF,target,left,aqua,pleasantness,conservative,no,m,0,0.933068129583,-1,142
2019_Apr_24,113,001,0,recog,90,HUBBUB,LF,lure,-,-,-,conservative,no,m,1,0.786610693031,3,145
2019_Apr_24,113,001,0,recog,91,VANDALS,LF,target,left,aqua,pleasantness,liberal,no,z,1,0.613390186802,3,148
2019_Apr_24,113,001,0,recog,92,FENCED,LF,target,left,aqua,pleasantness,liberal,no,z,1,0.586716935853,3,151
2019_Apr_24,113,001,0,recog,93,BUILDING,HF,lure,-,-,-,liberal,no,m,1,0.613345827325,1,152
2019_Apr_24,113,001,0,recog,94,MACARONI,LF,lure,-,-,-,conservative,no,m,1,0.733372340328,3,155
2019_Apr_24,113,001,0,recog,95,UNFAILING,LF,lure,-,-,-,liberal,no,m,1,0.586739665538,1,156
2019_Apr_24,113,001,1,source,0,GOADED,LF,target,right,yellow,imageability,liberal,no,7,1,2.37273445819,-,-
2019_Apr_24,113,001,1,source,1,AUSPICES,LF,target,left,aqua,pleasantness,conservative,no,1,1,1.1062618735,-,-
2019_Apr_24,113,001,1,source,2,LIFEBOAT,LF,target,left,aqua,pleasantness,liberal,no,1,1,0.959877391811,-,-
2019_Apr_24,113,001,1,source,3,APART,HF,target,left,aqua,pleasantness,conservative,no,1,1,0.719795403769,-,-
2019_Apr_24,113,001,1,source,4,MEETING,HF,target,right,yellow,imageability,conservative,no,7,1,0.653369084874,-,-
2019_Apr_24,113,001,1,source,5,HONKING,LF,target,left,aqua,pleasantness,liberal,no,1,1,0.7731455717,-,-
2019_Apr_24,113,001,1,source,6,GABLE,LF,target,right,yellow,imageability,conservative,no,8,1,0.946548648411,-,-
2019_Apr_24,113,001,1,source,7,BEYOND,HF,target,right,yellow,imageability,liberal,yes,8,1,0.600057044125,-,-
2019_Apr_24,113,001,1,source,8,WHETHER,HF,target,right,yellow,imageability,liberal,no,8,1,0.733157141833,-,-
2019_Apr_24,113,001,1,source,9,FIELD,HF,target,left,aqua,pleasantness,liberal,no,8,0,0.519916310848,-,-
2019_Apr_24,113,001,1,source,10,TAKEN,HF,target,left,aqua,pleasantness,liberal,no,2,1,0.626687768614,-,-
2019_Apr_24,113,001,1,source,11,BUSINESS,HF,target,right,yellow,imageability,liberal,no,8,1,0.693316454708,-,-
2019_Apr_24,113,001,1,source,12,MERELY,HF,target,left,aqua,pleasantness,conservative,no,2,1,0.560076312977,-,-
2019_Apr_24,113,001,1,source,13,MAGGOT,LF,target,right,yellow,imageability,liberal,no,8,1,0.666521490144,-,-
2019_Apr_24,113,001,1,source,14,VICEREGAL,LF,target,left,aqua,pleasantness,liberal,no,8,0,1.39955471869,-,-
2019_Apr_24,113,001,1,source,15,MAYBE,HF,target,left,aqua,pleasantness,liberal,no,2,1,0.786609959789,-,-
2019_Apr_24,113,001,1,source,16,SUBJECT,HF,target,right,yellow,imageability,liberal,yes,8,1,0.57317922631,-,-
2019_Apr_24,113,001,1,source,17,MARKET,HF,target,right,yellow,imageability,conservative,no,8,1,0.626672371058,-,-
2019_Apr_24,113,001,1,source,18,AILMENT,LF,target,left,aqua,pleasantness,liberal,no,8,0,0.6666593345,-,-
2019_Apr_24,113,001,1,source,19,MICROCOSM,LF,target,right,yellow,imageability,conservative,no,8,1,1.10653316294,-,-
2019_Apr_24,113,001,1,source,20,EBONY,LF,target,left,aqua,pleasantness,conservative,no,2,1,0.640111829853,-,-
2019_Apr_24,113,001,1,source,21,FLECKED,LF,target,right,yellow,imageability,liberal,no,8,1,1.07984561432,-,-
2019_Apr_24,113,001,1,source,22,PETERED,LF,target,right,yellow,imageability,liberal,no,2,0,0.906668001146,-,-
2019_Apr_24,113,001,1,source,23,HOWEVER,HF,target,left,aqua,pleasantness,conservative,no,8,0,0.853292537271,-,-
2019_Apr_24,113,001,1,source,24,KIBBUTZIM,LF,target,right,yellow,imageability,conservative,yes,8,1,0.546740237391,-,-
2019_Apr_24,113,001,1,source,25,GRUBS,LF,target,right,yellow,imageability,liberal,no,8,1,0.640159122238,-,-
2019_Apr_24,113,001,1,source,26,MEMBERS,HF,target,right,yellow,imageability,conservative,no,8,1,0.400142390281,-,-
2019_Apr_24,113,001,1,source,27,WANTED,HF,target,right,yellow,imageability,liberal,no,2,0,0.0667822946562,-,-
2019_Apr_24,113,001,1,source,28,ADDED,HF,target,left,aqua,pleasantness,conservative,no,8,0,0.586512735521,-,-
2019_Apr_24,113,001,1,source,29,DWARFED,LF,target,left,aqua,pleasantness,liberal,no,2,1,0.599845878256,-,-
2019_Apr_24,113,001,1,source,30,TEDIUM,LF,target,right,yellow,imageability,conservative,no,2,0,0.799945302191,-,-
2019_Apr_24,113,001,1,source,31,BECAME,HF,target,right,yellow,imageability,conservative,no,8,1,0.413520625734,-,-
2019_Apr_24,113,001,1,source,32,DRINK,HF,target,left,aqua,pleasantness,liberal,no,2,1,0.573180326086,-,-
2019_Apr_24,113,001,1,source,33,HOTEL,HF,target,left,aqua,pleasantness,conservative,no,8,0,0.63904756878,-,-
2019_Apr_24,113,001,1,source,34,LUMBER,LF,target,right,yellow,imageability,conservative,no,8,1,0.760000498558,-,-
2019_Apr_24,113,001,1,source,35,CENTRAL,HF,target,right,yellow,imageability,liberal,no,8,1,0.573406522861,-,-
2019_Apr_24,113,001,1,source,36,FARAWAY,LF,target,right,yellow,imageability,liberal,no,2,0,0.600117167749,-,-
2019_Apr_24,113,001,1,source,37,SAVOURED,LF,target,left,aqua,pleasantness,conservative,no,8,0,1.09319708741,-,-
2019_Apr_24,113,001,1,source,38,OBVIOUSLY,HF,target,right,yellow,imageability,conservative,yes,2,0,0.719791371084,-,-
2019_Apr_24,113,001,1,source,39,CHURCH,HF,target,right,yellow,imageability,conservative,no,8,1,0.706746015174,-,-
2019_Apr_24,113,001,1,source,40,CICADAS,LF,target,left,aqua,pleasantness,conservative,no,2,1,0.7066862582,-,-
2019_Apr_24,113,001,1,source,41,MOUTH,HF,target,left,aqua,pleasantness,liberal,no,8,0,0.919892628037,-,-
2019_Apr_24,113,001,1,source,42,DURING,HF,target,left,aqua,pleasantness,conservative,no,8,0,0.733302318375,-,-
2019_Apr_24,113,001,1,source,43,PLUGGING,LF,target,left,aqua,pleasantness,conservative,no,8,0,0.506724312028,-,-
2019_Apr_24,113,001,1,source,44,CAUGHT,HF,target,left,aqua,pleasantness,liberal,no,2,1,0.22700400406,-,-
2019_Apr_24,113,001,1,source,45,TAMING,LF,target,left,aqua,pleasantness,conservative,no,2,1,0.759952106455,-,-
2019_Apr_24,113,001,1,source,46,PORCHES,LF,target,right,yellow,imageability,conservative,no,8,1,0.626538925979,-,-
2019_Apr_24,113,001,1,source,47,LUCERNE,LF,target,left,aqua,pleasantness,liberal,no,2,1,0.573403589951,-,-
2019_Apr_24,113,001,1,recog,0,BUSINESS,HF,target,right,yellow,imageability,liberal,no,z,1,1.38642907579,3,159
2019_Apr_24,113,001,1,recog,1,PLUGGING,LF,target,left,aqua,pleasantness,conservative,no,z,1,0.626450207026,1,160
2019_Apr_24,113,001,1,recog,2,REOPEN,LF,lure,-,-,-,liberal,no,m,1,0.999989368429,1,161
2019_Apr_24,113,001,1,recog,3,FUTURE,HF,lure,-,-,-,conservative,no,z,0,0.573436584673,-3,158
2019_Apr_24,113,001,1,recog,4,PREPARED,HF,lure,-,-,-,liberal,no,m,1,0.62676402292,1,159
2019_Apr_24,113,001,1,recog,5,UNTIL,HF,lure,-,-,-,liberal,no,m,1,0.560029387241,1,160
2019_Apr_24,113,001,1,recog,6,EARLIER,HF,lure,-,-,-,conservative,no,m,1,0.520043523633,3,163
2019_Apr_24,113,001,1,recog,7,PATCHY,LF,lure,-,-,-,conservative,no,m,1,0.640009179828,3,166
2019_Apr_24,113,001,1,recog,8,VICEREGAL,LF,target,left,aqua,pleasantness,liberal,no,z,1,0.533391697216,3,169
2019_Apr_24,113,001,1,recog,9,CICADAS,LF,target,left,aqua,pleasantness,conservative,no,z,1,0.520101080998,1,170
2019_Apr_24,113,001,1,recog,10,AUSPICES,LF,target,left,aqua,pleasantness,conservative,no,z,1,0.666670699313,1,171
2019_Apr_24,113,001,1,recog,11,ARMAMENT,LF,lure,-,-,-,liberal,no,m,1,0.853313800471,1,172
2019_Apr_24,113,001,1,recog,12,VOWEL,LF,lure,-,-,-,conservative,no,m,1,1.11959281657,3,175
2019_Apr_24,113,001,1,recog,13,BECAME,HF,target,right,yellow,imageability,conservative,no,z,1,0.733345211425,1,176
2019_Apr_24,113,001,1,recog,14,GABLE,LF,target,right,yellow,imageability,conservative,no,z,1,0.746580103354,1,177
2019_Apr_24,113,001,1,recog,15,APART,HF,target,left,aqua,pleasantness,conservative,no,z,1,0.586736732686,1,178
2019_Apr_24,113,001,1,recog,16,MAYBE,HF,target,left,aqua,pleasantness,liberal,no,z,1,1.31978315907,3,181
2019_Apr_24,113,001,1,recog,17,SUBJECT,HF,target,right,yellow,imageability,liberal,no,z,1,0.53342212562,3,184
2019_Apr_24,113,001,1,recog,18,PETERED,LF,target,right,yellow,imageability,liberal,no,z,1,0.586709603725,3,187
2019_Apr_24,113,001,1,recog,19,BEHIND,HF,lure,-,-,-,conservative,no,m,1,0.746617863886,3,190
2019_Apr_24,113,001,1,recog,20,FLYWHEEL,LF,lure,-,-,-,conservative,no,m,1,0.853247444553,3,193
2019_Apr_24,113,001,1,recog,21,MEETING,HF,target,right,yellow,imageability,conservative,no,z,1,0.866469505243,1,194
2019_Apr_24,113,001,1,recog,22,GRUBS,LF,target,right,yellow,imageability,liberal,no,z,1,0.71995891066,3,197
2019_Apr_24,113,001,1,recog,23,SLOWLY,HF,lure,-,-,-,conservative,no,z,0,0.879689732858,-3,194
2019_Apr_24,113,001,1,recog,24,VALUE,HF,lure,-,-,-,conservative,no,m,1,0.546704676526,3,197
2019_Apr_24,113,001,1,recog,25,LUCERNE,LF,target,left,aqua,pleasantness,liberal,no,z,1,1.06663968437,3,200
2019_Apr_24,113,001,1,recog,26,SAMENESS,LF,lure,-,-,-,conservative,no,m,1,1.58629827027,3,203
2019_Apr_24,113,001,1,recog,27,FARAWAY,LF,target,right,yellow,imageability,liberal,no,z,1,1.31975676335,3,206
2019_Apr_24,113,001,1,recog,28,FLECKED,LF,target,right,yellow,imageability,liberal,no,z,1,0.560032686684,3,209
2019_Apr_24,113,001,1,recog,29,LANGUAGE,HF,lure,-,-,-,conservative,no,m,1,1.58630156971,3,212
2019_Apr_24,113,001,1,recog,30,BENIGNLY,LF,lure,-,-,-,liberal,no,m,1,2.18605946226,1,213
2019_Apr_24,113,001,1,recog,31,GETTING,HF,lure,-,-,-,liberal,no,z,0,1.5730531133,-1,212
2019_Apr_24,113,001,1,recog,32,UNLESS,HF,lure,-,-,-,conservative,no,m,1,1.75960492925,3,215
2019_Apr_24,113,001,1,recog,33,ERUDITE,LF,lure,-,-,-,conservative,no,m,1,0.600062176585,3,218
2019_Apr_24,113,001,1,recog,34,TALKING,HF,lure,-,-,-,liberal,no,m,1,0.839923833671,1,219
2019_Apr_24,113,001,1,recog,35,AFRAID,HF,lure,-,-,-,conservative,no,m,1,0.50671917951,3,222
2019_Apr_24,113,001,1,recog,36,LIQUEUR,LF,lure,-,-,-,liberal,no,m,1,0.74672308017,1,223
2019_Apr_24,113,001,1,recog,37,BEYOND,HF,target,right,yellow,imageability,liberal,no,m,0,0.600143196818,-3,220
2019_Apr_24,113,001,1,recog,38,MOUTH,HF,target,left,aqua,pleasantness,liberal,no,z,1,0.493519481912,3,223
2019_Apr_24,113,001,1,recog,39,GOADED,LF,target,right,yellow,imageability,liberal,no,z,1,0.533209859976,3,226
2019_Apr_24,113,001,1,recog,40,CENTRAL,HF,target,right,yellow,imageability,liberal,no,z,1,0.519913011463,3,229
2019_Apr_24,113,001,1,recog,41,ALERTING,LF,lure,-,-,-,liberal,no,z,0,0.706652896886,-1,228
2019_Apr_24,113,001,1,recog,42,SAVOURED,LF,target,left,aqua,pleasantness,conservative,no,z,1,2.22609481786,1,229
2019_Apr_24,113,001,1,recog,43,HONKING,LF,target,left,aqua,pleasantness,liberal,no,z,1,0.893234407995,3,232
2019_Apr_24,113,001,1,recog,44,CRICKETER,LF,lure,-,-,-,conservative,no,m,1,0.746668089123,3,235
2019_Apr_24,113,001,1,recog,45,DWARFED,LF,target,left,aqua,pleasantness,liberal,no,z,1,0.693313155265,3,238
2019_Apr_24,113,001,1,recog,46,BETTER,HF,lure,-,-,-,liberal,no,z,0,1.81286417856,-1,237
2019_Apr_24,113,001,1,recog,47,PAINTWORK,LF,lure,-,-,-,liberal,no,m,1,1.74634437484,1,238
2019_Apr_24,113,001,1,recog,48,ECONOMIC,HF,lure,-,-,-,conservative,no,m,1,3.51892793749,3,241
2019_Apr_24,113,001,1,recog,49,HOTEL,HF,target,left,aqua,pleasantness,conservative,no,z,1,0.719964043179,1,242
2019_Apr_24,113,001,1,recog,50,EBONY,LF,target,left,aqua,pleasantness,conservative,no,z,1,0.906694396865,1,243
2019_Apr_24,113,001,1,recog,51,MERELY,HF,target,left,aqua,pleasantness,conservative,yes,z,1,0.62667823676,1,244
2019_Apr_24,113,001,1,recog,52,TELEPHONE,HF,lure,-,-,-,liberal,no,m,1,2.93254718056,1,245
2019_Apr_24,113,001,1,recog,53,SPOKE,HF,lure,-,-,-,conservative,no,m,1,1.46634654514,3,248
2019_Apr_24,113,001,1,recog,54,TAKEN,HF,target,left,aqua,pleasantness,liberal,no,z,1,0.546528704988,3,251
2019_Apr_24,113,001,1,recog,55,DURING,HF,target,left,aqua,pleasantness,conservative,no,m,0,0.679800374957,-1,250
2019_Apr_24,113,001,1,recog,56,GAMBITS,LF,lure,-,-,-,conservative,no,m,1,1.51975793653,3,253
2019_Apr_24,113,001,1,recog,57,WHETHER,HF,target,right,yellow,imageability,liberal,no,z,1,0.77335930377,3,256
2019_Apr_24,113,001,1,recog,58,AMULETS,LF,lure,-,-,-,liberal,no,m,1,0.799937236821,1,257
2019_Apr_24,113,001,1,recog,59,MICROCOSM,LF,target,right,yellow,imageability,conservative,no,z,1,0.759943674435,1,258
2019_Apr_24,113,001,1,recog,60,OBVIOUSLY,HF,target,right,yellow,imageability,conservative,no,m,0,0.693328919413,-1,257
2019_Apr_24,113,001,1,recog,61,DRINK,HF,target,left,aqua,pleasantness,liberal,no,z,1,0.639821843535,3,260
2019_Apr_24,113,001,1,recog,62,WEAKENS,LF,lure,-,-,-,liberal,no,m,1,0.706680392497,1,261
2019_Apr_24,113,001,1,recog,63,PORCHES,LF,target,right,yellow,imageability,conservative,no,z,1,0.693312788673,1,262
2019_Apr_24,113,001,1,recog,64,TEDIUM,LF,target,right,yellow,imageability,conservative,no,m,0,0.97324352921,-1,261
2019_Apr_24,113,001,1,recog,65,WANTED,HF,target,right,yellow,imageability,liberal,no,z,1,0.679981112364,3,264
2019_Apr_24,113,001,1,recog,66,WASHBASIN,LF,lure,-,-,-,liberal,no,m,1,1.17313178728,1,265
2019_Apr_24,113,001,1,recog,67,FURTHER,HF,lure,-,-,-,liberal,no,m,1,1.7596815502,1,266
2019_Apr_24,113,001,1,recog,68,WRONG,HF,lure,-,-,-,liberal,no,m,1,0.919997111137,1,267
2019_Apr_24,113,001,1,recog,69,FIELD,HF,target,left,aqua,pleasantness,liberal,no,z,1,0.506502514589,3,270
2019_Apr_24,113,001,1,recog,70,TAMING,LF,target,left,aqua,pleasantness,conservative,no,z,1,0.933317422576,1,271
2019_Apr_24,113,001,1,recog,71,AUDACIOUS,LF,lure,-,-,-,liberal,no,z,0,0.666551918606,-1,270
2019_Apr_24,113,001,1,recog,72,PIVOT,LF,lure,-,-,-,conservative,no,m,1,0.639996715181,3,273
2019_Apr_24,113,001,1,recog,73,GATEHOUSE,LF,lure,-,-,-,liberal,no,m,1,0.719970275473,1,274
2019_Apr_24,113,001,1,recog,74,AILMENT,LF,target,left,aqua,pleasantness,liberal,no,z,1,0.866569589067,3,277
2019_Apr_24,113,001,1,recog,75,HOWEVER,HF,target,left,aqua,pleasantness,conservative,no,z,1,0.719788804883,1,278
2019_Apr_24,113,001,1,recog,76,CAUGHT,HF,target,left,aqua,pleasantness,liberal,no,z,1,0.786607026937,3,281
2019_Apr_24,113,001,1,recog,77,DAYBREAK,LF,lure,-,-,-,conservative,no,m,1,0.893306263082,3,284
2019_Apr_24,113,001,1,recog,78,KIBBUTZIM,LF,target,right,yellow,imageability,conservative,yes,m,0,1.13325627247,-1,283
2019_Apr_24,113,001,1,recog,79,JOVIAL,LF,lure,-,-,-,conservative,no,m,1,2.85224440682,3,286
2019_Apr_24,113,001,1,recog,80,LIFEBOAT,LF,target,left,aqua,pleasantness,liberal,no,z,1,0.946718754247,3,289
2019_Apr_24,113,001,1,recog,81,WITHIN,HF,lure,-,-,-,conservative,no,m,1,1.46639567049,3,292
2019_Apr_24,113,001,1,recog,82,MARKET,HF,target,right,yellow,imageability,conservative,yes,m,0,0.98663349601,-1,291
2019_Apr_24,113,001,1,recog,83,SENSE,HF,lure,-,-,-,liberal,no,z,0,2.35932359478,-1,290
2019_Apr_24,113,001,1,recog,84,RETURN,HF,lure,-,-,-,liberal,no,m,1,2.07945407764,1,291
2019_Apr_24,113,001,1,recog,85,ENLIGHTEN,LF,lure,-,-,-,liberal,no,z,0,0.80000102648,-1,290
2019_Apr_24,113,001,1,recog,86,ADDED,HF,target,left,aqua,pleasantness,conservative,no,m,0,0.546750502428,-1,289
2019_Apr_24,113,001,1,recog,87,AMALGAM,LF,lure,-,-,-,conservative,no,m,1,0.799934303912,3,292
2019_Apr_24,113,001,1,recog,88,CHURCH,HF,target,right,yellow,imageability,conservative,no,m,0,0.586514202005,-1,291
2019_Apr_24,113,001,1,recog,89,INCLUDING,HF,lure,-,-,-,liberal,no,m,1,0.733343744942,1,292
2019_Apr_24,113,001,1,recog,90,MEMBERS,HF,target,right,yellow,imageability,conservative,no,m,0,0.946651665086,-1,291
2019_Apr_24,113,001,1,recog,91,LUMBER,LF,target,right,yellow,imageability,conservative,yes,m,0,1.06632366881,-1,290
2019_Apr_24,113,001,1,recog,92,PERHAPS,HF,lure,-,-,-,conservative,no,m,1,1.13322181138,3,293
2019_Apr_24,113,001,1,recog,93,COMES,HF,lure,-,-,-,liberal,no,z,0,0.493376871629,-1,292
2019_Apr_24,113,001,1,recog,94,MAGGOT,LF,target,right,yellow,imageability,liberal,no,z,1,0.653444605996,3,295
2019_Apr_24,113,001,1,recog,95,GLEANED,LF,lure,-,-,-,conservative,no,m,1,0.613347660343,3,298
2019_Apr_24,113,001,2,source,0,PELTED,LF,target,left,aqua,pleasantness,liberal,no,1,1,1.03984948568,-,-
2019_Apr_24,113,001,2,source,1,DWINDLE,LF,target,right,yellow,imageability,liberal,no,7,1,0.573361430084,-,-
2019_Apr_24,113,001,2,source,2,BROUGHT,HF,target,right,yellow,imageability,conservative,no,2,0,1.26641466079,-,-
2019_Apr_24,113,001,2,source,3,WHITE,HF,target,right,yellow,imageability,liberal,no,8,1,0.600062543235,-,-
2019_Apr_24,113,001,2,source,4,SPACE,HF,target,right,yellow,imageability,liberal,no,8,1,0.853417550388,-,-
2019_Apr_24,113,001,2,source,5,NEWMARKET,LF,target,left,aqua,pleasantness,conservative,no,2,1,0.719967709214,-,-
2019_Apr_24,113,001,2,source,6,GIRLS,HF,target,right,yellow,imageability,conservative,no,8,1,0.493218497257,-,-
2019_Apr_24,113,001,2,source,7,GENERAL,HF,target,left,aqua,pleasantness,conservative,no,8,0,0.653445339238,-,-
2019_Apr_24,113,001,2,source,8,CHIEF,HF,target,left,aqua,pleasantness,conservative,no,2,1,0.466561010457,-,-
2019_Apr_24,113,001,2,source,9,KNUCKLE,LF,target,left,aqua,pleasantness,liberal,no,2,1,0.653374217392,-,-
2019_Apr_24,113,001,2,source,10,SKIDDED,LF,target,left,aqua,pleasantness,conservative,no,2,1,1.09298555495,-,-
2019_Apr_24,113,001,2,source,11,CLASS,HF,target,left,aqua,pleasantness,liberal,no,8,0,2.54596962879,-,-
2019_Apr_24,113,001,2,source,12,DEGREE,HF,target,right,yellow,imageability,liberal,no,8,1,0.773287082149,-,-
2019_Apr_24,113,001,2,source,13,FOLLOWED,HF,target,right,yellow,imageability,liberal,no,2,0,0.986534145486,-,-
2019_Apr_24,113,001,2,source,14,EVIDENCE,HF,target,right,yellow,imageability,conservative,no,8,1,0.733165940444,-,-
2019_Apr_24,113,001,2,source,15,DOUBT,HF,target,left,aqua,pleasantness,liberal,no,2,1,0.759945507511,-,-
2019_Apr_24,113,001,2,source,16,PLEASE,HF,target,left,aqua,pleasantness,conservative,yes,8,0,0.506553839601,-,-
2019_Apr_24,113,001,2,source,17,AFOOT,LF,target,right,yellow,imageability,conservative,no,8,1,0.453445632476,-,-
2019_Apr_24,113,001,2,source,18,WHOLE,HF,target,left,aqua,pleasantness,liberal,no,8,0,0.306798293372,-,-
2019_Apr_24,113,001,2,source,19,CUDDLE,LF,target,right,yellow,imageability,liberal,yes,2,0,0.133524262463,-,-
2019_Apr_24,113,001,2,source,20,GIMMICKS,LF,target,left,aqua,pleasantness,liberal,no,2,1,0.746617497294,-,-
2019_Apr_24,113,001,2,source,21,INTEREST,HF,target,left,aqua,pleasantness,liberal,no,2,1,0.506718446268,-,-
2019_Apr_24,113,001,2,source,22,FUMING,LF,target,left,aqua,pleasantness,conservative,no,8,0,0.346775358368,-,-
2019_Apr_24,113,001,2,source,23,PISTONS,LF,target,left,aqua,pleasantness,liberal,no,2,1,0.746625562664,-,-
2019_Apr_24,113,001,2,source,24,UNRAVEL,LF,target,right,yellow,imageability,liberal,no,8,1,0.626679336652,-,-
2019_Apr_24,113,001,2,source,25,ABOVE,HF,target,right,yellow,imageability,conservative,no,8,1,0.653349654691,-,-
2019_Apr_24,113,001,2,source,26,HEALTH,HF,target,left,aqua,pleasantness,liberal,no,8,0,0.573241182952,-,-
2019_Apr_24,113,001,2,source,27,CONCERNED,HF,target,right,yellow,imageability,liberal,no,2,0,0.573359230475,-,-
2019_Apr_24,113,001,2,source,28,MUSIC,HF,target,right,yellow,imageability,conservative,no,8,1,0.626495666336,-,-
2019_Apr_24,113,001,2,source,29,ATHEIST,LF,target,left,aqua,pleasantness,conservative,no,2,1,0.679875896079,-,-
2019_Apr_24,113,001,2,source,30,CUSTODIAN,LF,target,right,yellow,imageability,liberal,no,8,1,0.653373850801,-,-
2019_Apr_24,113,001,2,source,31,UNWARY,LF,target,right,yellow,imageability,conservative,no,2,0,0.813417755708,-,-
2019_Apr_24,113,001,2,source,32,SECOND,HF,target,left,aqua,pleasantness,conservative,no,8,0,0.426998944895,-,-
2019_Apr_24,113,001,2,source,33,MENFOLK,LF,target,right,yellow,imageability,liberal,no,2,0,0.360104468418,-,-
2019_Apr_24,113,001,2,source,34,SMIRK,LF,target,left,aqua,pleasantness,liberal,no,8,0,0.466734415677,-,-
2019_Apr_24,113,001,2,source,35,APPEARED,HF,target,left,aqua,pleasantness,conservative,no,8,0,0.493391535885,-,-
2019_Apr_24,113,001,2,source,36,POACHED,LF,target,right,yellow,imageability,conservative,no,8,1,0.626720396685,-,-
2019_Apr_24,113,001,2,source,37,FEUDALISM,LF,target,left,aqua,pleasantness,liberal,no,2,1,0.746659290511,-,-
2019_Apr_24,113,001,2,source,38,TAPER,LF,target,left,aqua,pleasantness,conservative,no,2,1,0.680002742272,-,-
2019_Apr_24,113,001,2,source,39,SIMILAR,HF,target,right,yellow,imageability,conservative,no,8,1,0.946365344746,-,-
2019_Apr_24,113,001,2,source,40,AVENGE,LF,target,right,yellow,imageability,conservative,no,2,0,0.67980404105,-,-
2019_Apr_24,113,001,2,source,41,WAFER,LF,target,right,yellow,imageability,conservative,yes,8,1,0.546870016435,-,-
2019_Apr_24,113,001,2,source,42,QUICKLY,HF,target,left,aqua,pleasantness,conservative,no,2,1,0.679987344716,-,-
2019_Apr_24,113,001,2,source,43,PAPER,HF,target,right,yellow,imageability,liberal,no,8,1,0.600054477807,-,-
2019_Apr_24,113,001,2,source,44,RESEARCH,HF,target,left,aqua,pleasantness,liberal,no,2,1,0.69330912258,-,-
2019_Apr_24,113,001,2,source,45,CINDER,LF,target,left,aqua,pleasantness,conservative,yes,2,1,0.653337190044,-,-
2019_Apr_24,113,001,2,source,46,HESITATES,LF,target,right,yellow,imageability,liberal,no,8,1,0.680031704193,-,-
2019_Apr_24,113,001,2,source,47,BATCHES,LF,target,right,yellow,imageability,conservative,no,8,1,0.573234217358,-,-
2019_Apr_24,113,001,2,recog,0,DEGREE,HF,target,right,yellow,imageability,liberal,no,z,1,0.613396419154,3,301
2019_Apr_24,113,001,2,recog,1,SIMILAR,HF,target,right,yellow,imageability,conservative,no,z,1,1.58630083653,1,302
2019_Apr_24,113,001,2,recog,2,BATCHES,LF,target,right,yellow,imageability,conservative,no,z,1,0.666657501482,1,303
2019_Apr_24,113,001,2,recog,3,DAFFODILS,LF,lure,-,-,-,conservative,no,m,1,0.546769199427,3,306
2019_Apr_24,113,001,2,recog,4,HEALTH,HF,target,left,aqua,pleasantness,liberal,no,z,1,0.666649802704,3,309
2019_Apr_24,113,001,2,recog,5,SECOND,HF,target,left,aqua,pleasantness,conservative,no,z,1,0.666617907933,1,310
2019_Apr_24,113,001,2,recog,6,CONCERNED,HF,target,right,yellow,imageability,liberal,no,m,0,0.653439473477,-3,307
2019_Apr_24,113,001,2,recog,7,QUICKLY,HF,target,left,aqua,pleasantness,conservative,no,z,1,0.639994882164,1,308
2019_Apr_24,113,001,2,recog,8,LAGER,LF,lure,-,-,-,liberal,yes,z,0,0.573383059935,-1,307
2019_Apr_24,113,001,2,recog,9,ACTION,HF,lure,-,-,-,liberal,no,m,1,0.679987344716,1,308
2019_Apr_24,113,001,2,recog,10,OTTOMAN,LF,lure,-,-,-,conservative,no,m,1,0.666655301815,3,311
2019_Apr_24,113,001,2,recog,11,EVIDENCE,HF,target,right,yellow,imageability,conservative,no,m,0,1.82620208716,-1,310
2019_Apr_24,113,001,2,recog,12,DWINDLE,LF,target,right,yellow,imageability,liberal,no,z,1,0.706460061425,3,313
2019_Apr_24,113,001,2,recog,13,NECESSARY,HF,lure,-,-,-,conservative,no,m,1,1.03984361998,3,316
2019_Apr_24,113,001,2,recog,14,PISTONS,LF,target,left,aqua,pleasantness,liberal,no,z,1,0.986528646376,3,319
2019_Apr_24,113,001,2,recog,15,EUPHEMISM,LF,lure,-,-,-,liberal,no,z,0,0.946700423898,-1,318
2019_Apr_24,113,001,2,recog,16,THRASH,LF,lure,-,-,-,conservative,no,m,1,0.78675806924,3,321
2019_Apr_24,113,001,2,recog,17,CHIEF,HF,target,left,aqua,pleasantness,conservative,no,z,1,1.26650118013,1,322
2019_Apr_24,113,001,2,recog,18,CUDDLE,LF,target,right,yellow,imageability,liberal,no,z,1,0.74680080096,3,325
2019_Apr_24,113,001,2,recog,19,RESEARCH,HF,target,left,aqua,pleasantness,liberal,no,z,1,0.546768466244,3,328
2019_Apr_24,113,001,2,recog,20,SEABED,LF,lure,-,-,-,liberal,no,m,1,0.746668089123,1,329
2019_Apr_24,113,001,2,recog,21,BROUGHT,HF,target,right,yellow,imageability,conservative,no,m,0,0.906562051561,-1,328
2019_Apr_24,113,001,2,recog,22,SUDDENLY,HF,lure,-,-,-,liberal,no,m,1,0.613345827325,1,329
2019_Apr_24,113,001,2,recog,23,FUMING,LF,target,left,aqua,pleasantness,conservative,no,z,1,0.546570864855,1,330
2019_Apr_24,113,001,2,recog,24,PELTED,LF,target,left,aqua,pleasantness,liberal,no,z,1,0.520125277049,3,333
2019_Apr_24,113,001,2,recog,25,APPEARED,HF,target,left,aqua,pleasantness,conservative,no,z,1,0.61338982021,1,334
2019_Apr_24,113,001,2,recog,26,LOLLED,LF,lure,-,-,-,conservative,no,z,0,0.600068408938,-3,331
2019_Apr_24,113,001,2,recog,27,EVENING,HF,lure,-,-,-,liberal,no,m,1,0.506837227091,1,332
2019_Apr_24,113,001,2,recog,28,JUBILANT,LF,lure,-,-,-,liberal,no,m,1,0.680142053054,1,333
2019_Apr_24,113,001,2,recog,29,WATCH,HF,lure,-,-,-,conservative,no,z,0,0.480148578645,-3,330
2019_Apr_24,113,001,2,recog,30,ISOLATING,LF,lure,-,-,-,conservative,no,m,1,0.839908436174,3,333
2019_Apr_24,113,001,2,recog,31,ALMOST,HF,lure,-,-,-,conservative,no,z,0,0.600091505155,-3,330
2019_Apr_24,113,001,2,recog,32,KNUCKLE,LF,target,left,aqua,pleasantness,liberal,no,z,1,0.573352264939,3,333
2019_Apr_24,113,001,2,recog,33,WHITE,HF,target,right,yellow,imageability,liberal,yes,z,1,0.413566451636,3,336
2019_Apr_24,113,001,2,recog,34,CUSTODIAN,LF,target,right,yellow,imageability,liberal,no,z,1,0.680129954999,3,339
2019_Apr_24,113,001,2,recog,35,HAVING,HF,lure,-,-,-,conservative,no,m,1,0.800010924926,3,342
2019_Apr_24,113,001,2,recog,36,ATHEIST,LF,target,left,aqua,pleasantness,conservative,no,z,1,0.759880617959,1,343
2019_Apr_24,113,001,2,recog,37,CORNER,HF,lure,-,-,-,liberal,no,m,1,1.78622245585,1,344
2019_Apr_24,113,001,2,recog,38,HESITATES,LF,target,right,yellow,imageability,liberal,no,z,1,0.600063643011,3,347
2019_Apr_24,113,001,2,recog,39,JACKALS,LF,lure,-,-,-,liberal,no,m,1,0.600061809993,1,348
2019_Apr_24,113,001,2,recog,40,GIVEN,HF,lure,-,-,-,liberal,no,m,1,0.493386403425,1,349
2019_Apr_24,113,001,2,recog,41,GROUND,HF,lure,-,-,-,conservative,no,m,1,0.66653908731,3,352
2019_Apr_24,113,001,2,recog,42,DOUBT,HF,target,left,aqua,pleasantness,liberal,no,z,1,0.586801255587,3,355
2019_Apr_24,113,001,2,recog,43,INEDIBLE,LF,lure,-,-,-,conservative,yes,z,0,0.453424002684,-3,352
2019_Apr_24,113,001,2,recog,44,AFOOT,LF,target,right,yellow,imageability,conservative,no,m,0,0.706684058474,-1,351
2019_Apr_24,113,001,2,recog,45,FOLLOWED,HF,target,right,yellow,imageability,liberal,no,z,1,0.653332057584,3,354
2019_Apr_24,113,001,2,recog,46,SPACE,HF,target,right,yellow,imageability,liberal,no,z,1,0.373478671128,3,357
2019_Apr_24,113,001,2,recog,47,HUNDRED,HF,lure,-,-,-,conservative,no,m,1,0.813378895284,3,360
2019_Apr_24,113,001,2,recog,48,PAPER,HF,target,right,yellow,imageability,liberal,no,z,1,0.746666256106,3,363
2019_Apr_24,113,001,2,recog,49,CLASS,HF,target,left,aqua,pleasantness,liberal,no,z,1,0.573435851431,3,366
2019_Apr_24,113,001,2,recog,50,GENERAL,HF,target,left,aqua,pleasantness,conservative,no,z,1,0.586647280492,1,367
2019_Apr_24,113,001,2,recog,51,OPULENCE,LF,lure,-,-,-,liberal,no,m,1,0.64010669745,1,368
2019_Apr_24,113,001,2,recog,52,RIMMED,LF,lure,-,-,-,liberal,no,m,1,0.560028654058,1,369
2019_Apr_24,113,001,2,recog,53,INDEED,HF,lure,-,-,-,liberal,no,m,1,0.546489844623,1,370
2019_Apr_24,113,001,2,recog,54,FEUDALISM,LF,target,left,aqua,pleasantness,liberal,no,z,1,0.533416993159,3,373
2019_Apr_24,113,001,2,recog,55,DOING,HF,lure,-,-,-,liberal,no,m,1,0.600014151074,1,374
2019_Apr_24,113,001,2,recog,56,TAPER,LF,target,left,aqua,pleasantness,conservative,no,z,1,0.533540906443,1,375
2019_Apr_24,113,001,2,recog,57,NEWMARKET,LF,target,left,aqua,pleasantness,conservative,no,z,1,0.586727567483,1,376
2019_Apr_24,113,001,2,recog,58,FOUND,HF,lure,-,-,-,liberal,no,m,1,1.14645743655,1,377
2019_Apr_24,113,001,2,recog,59,CINDER,LF,target,left,aqua,pleasantness,conservative,no,z,1,0.586475708231,1,378
2019_Apr_24,113,001,2,recog,60,AROUND,HF,lure,-,-,-,conservative,no,m,1,0.759992799838,3,381
2019_Apr_24,113,001,2,recog,61,WAFER,LF,target,right,yellow,imageability,conservative,no,m,0,0.653424442571,-1,380
2019_Apr_24,113,001,2,recog,62,AVENGE,LF,target,right,yellow,imageability,conservative,no,z,1,0.786700145225,1,381
2019_Apr_24,113,001,2,recog,63,MENFOLK,LF,target,right,yellow,imageability,liberal,no,m,0,0.666490695148,-3,378
2019_Apr_24,113,001,2,recog,64,BELIEVE,HF,lure,-,-,-,conservative,no,m,1,0.706710820843,3,381
2019_Apr_24,113,001,2,recog,65,SMIRK,LF,target,left,aqua,pleasantness,liberal,no,z,1,0.693346149928,3,384
2019_Apr_24,113,001,2,recog,66,GIMMICKS,LF,target,left,aqua,pleasantness,liberal,no,z,1,0.653373850801,3,387
2019_Apr_24,113,001,2,recog,67,BUBBLED,LF,lure,-,-,-,liberal,no,m,1,0.62671856361,1,388
2019_Apr_24,113,001,2,recog,68,WHOLE,HF,target,left,aqua,pleasantness,liberal,no,z,1,1.1598444705,3,391
2019_Apr_24,113,001,2,recog,69,INTEREST,HF,target,left,aqua,pleasantness,liberal,no,z,1,0.706468126795,3,394
2019_Apr_24,113,001,2,recog,70,RATHER,HF,lure,-,-,-,liberal,no,m,1,0.573405056377,1,395
2019_Apr_24,113,001,2,recog,71,ABOVE,HF,target,right,yellow,imageability,conservative,no,z,1,0.493432595918,1,396
2019_Apr_24,113,001,2,recog,72,FUDGE,LF,lure,-,-,-,conservative,no,m,1,0.62671856361,3,399
2019_Apr_24,113,001,2,recog,73,UNRAVEL,LF,target,right,yellow,imageability,liberal,no,z,1,0.773108911002,3,402
2019_Apr_24,113,001,2,recog,74,EIGHT,HF,lure,-,-,-,conservative,no,m,1,0.61338725395,3,405
2019_Apr_24,113,001,2,recog,75,SHALL,HF,lure,-,-,-,conservative,no,m,1,0.626715630759,3,408
2019_Apr_24,113,001,2,recog,76,MUSIC,HF,target,right,yellow,imageability,conservative,no,z,1,0.600020016776,1,409
2019_Apr_24,113,001,2,recog,77,SAYING,HF,lure,-,-,-,conservative,no,m,1,0.640039974824,3,412
2019_Apr_24,113,001,2,recog,78,UNWARY,LF,target,right,yellow,imageability,conservative,no,m,0,1.14625433605,-1,411
2019_Apr_24,113,001,2,recog,79,WHATEVER,HF,lure,-,-,-,liberal,no,m,1,1.57297575922,1,412
2019_Apr_24,113,001,2,recog,80,ACROSS,HF,lure,-,-,-,conservative,no,m,1,1.57296916022,3,415
2019_Apr_24,113,001,2,recog,81,VAGABOND,LF,lure,-,-,-,liberal,no,m,1,0.839917967969,1,416
2019_Apr_24,113,001,2,recog,82,PLEASE,HF,target,left,aqua,pleasantness,conservative,no,m,0,0.813424354594,-1,415
2019_Apr_24,113,001,2,recog,83,LATER,HF,lure,-,-,-,liberal,no,m,1,0.60009553784,1,416
2019_Apr_24,113,001,2,recog,84,WETTER,LF,lure,-,-,-,liberal,no,m,1,0.520152039418,1,417
2019_Apr_24,113,001,2,recog,85,ENCLOSE,LF,lure,-,-,-,conservative,no,m,1,0.546747936169,3,420
2019_Apr_24,113,001,2,recog,86,ENROLMENT,LF,lure,-,-,-,liberal,no,m,1,0.799824688351,1,421
2019_Apr_24,113,001,2,recog,87,SIZZLING,LF,lure,-,-,-,conservative,no,m,1,0.533383631846,3,424
2019_Apr_24,113,001,2,recog,88,RICKETS,LF,lure,-,-,-,conservative,no,m,1,0.480122549518,3,427
2019_Apr_24,113,001,2,recog,89,POACHED,LF,target,right,yellow,imageability,conservative,no,z,1,0.653371651133,1,428
2019_Apr_24,113,001,2,recog,90,DAUGHTER,HF,lure,-,-,-,liberal,no,m,1,0.6001600608,1,429
2019_Apr_24,113,001,2,recog,91,OPPOSES,LF,lure,-,-,-,conservative,no,m,1,0.586687607283,3,432
2019_Apr_24,113,001,2,recog,92,URCHIN,LF,lure,-,-,-,conservative,no,m,1,0.533490314614,3,435
2019_Apr_24,113,001,2,recog,93,RABBIS,LF,lure,-,-,-,liberal,yes,z,0,0.586734533019,-1,434
2019_Apr_24,113,001,2,recog,94,GIRLS,HF,target,right,yellow,imageability,conservative,no,m,0,0.373438344337,-1,433
2019_Apr_24,113,001,2,recog,95,SKIDDED,LF,target,left,aqua,pleasantness,conservative,no,z,1,1.35971916415,1,434
2019_Apr_24,113,001,3,source,0,VAINLY,LF,target,right,yellow,imageability,conservative,no,2,0,1.23993497854,-,-
2019_Apr_24,113,001,3,source,1,GLASS,HF,target,right,yellow,imageability,conservative,no,8,1,0.53336896759,-,-
2019_Apr_24,113,001,3,source,2,HOURS,HF,target,left,aqua,pleasantness,conservative,no,8,0,0.680014840211,-,-
2019_Apr_24,113,001,3,source,3,KILOWATT,LF,target,left,aqua,pleasantness,conservative,no,2,1,0.520088249701,-,-
2019_Apr_24,113,001,3,source,4,HOPPER,LF,target,right,yellow,imageability,conservative,no,8,1,0.453395407239,-,-
2019_Apr_24,113,001,3,source,5,POUNDS,HF,target,right,yellow,imageability,conservative,no,2,0,0.50664989074,-,-
2019_Apr_24,113,001,3,source,6,LUGGED,LF,target,left,aqua,pleasantness,liberal,no,8,0,0.600055944291,-,-
2019_Apr_24,113,001,3,source,7,CHOICE,HF,target,right,yellow,imageability,conservative,yes,8,1,0.5201681701,-,-
2019_Apr_24,113,001,3,source,8,UNABATED,LF,target,left,aqua,pleasantness,conservative,no,2,1,0.613401551615,-,-
2019_Apr_24,113,001,3,source,9,SUPPORT,HF,target,left,aqua,pleasantness,conservative,no,8,0,0.640044374159,-,-
2019_Apr_24,113,001,3,source,10,DOLPHIN,LF,target,left,aqua,pleasantness,liberal,no,2,1,0.600058877142,-,-
2019_Apr_24,113,001,3,source,11,SOMEONE,HF,target,right,yellow,imageability,liberal,no,8,1,0.746495417086,-,-
2019_Apr_24,113,001,3,source,12,KITCHEN,HF,target,right,yellow,imageability,liberal,no,8,1,0.546633188089,-,-
2019_Apr_24,113,001,3,source,13,MAVIS,LF,target,right,yellow,imageability,conservative,no,8,1,0.520166703733,-,-
2019_Apr_24,113,001,3,source,14,SLIGHTLY,HF,target,left,aqua,pleasantness,liberal,no,8,0,0.479892320058,-,-
2019_Apr_24,113,001,3,source,15,MIDDLE,HF,target,right,yellow,imageability,liberal,no,2,0,0.466734049085,-,-
2019_Apr_24,113,001,3,source,16,STRAIGHT,HF,target,left,aqua,pleasantness,conservative,no,2,1,0.706711554085,-,-
2019_Apr_24,113,001,3,source,17,SEQUEL,LF,target,left,aqua,pleasantness,conservative,no,2,1,0.746692285233,-,-
2019_Apr_24,113,001,3,source,18,AGILITY,LF,target,right,yellow,imageability,liberal,no,2,0,0.600016717275,-,-
2019_Apr_24,113,001,3,source,19,SUING,LF,target,right,yellow,imageability,conservative,yes,8,1,0.640002580942,-,-
2019_Apr_24,113,001,3,source,20,CALLED,HF,target,right,yellow,imageability,conservative,no,8,1,0.600101036951,-,-
2019_Apr_24,113,001,3,source,21,MIMICKED,LF,target,left,aqua,pleasantness,conservative,no,2,1,0.626739460218,-,-
2019_Apr_24,113,001,3,source,22,MEANS,HF,target,left,aqua,pleasantness,liberal,no,2,1,0.573276010575,-,-
2019_Apr_24,113,001,3,source,23,PUCKERED,LF,target,right,yellow,imageability,liberal,no,8,1,0.666480796761,-,-
2019_Apr_24,113,001,3,source,24,LIKELY,HF,target,left,aqua,pleasantness,liberal,no,2,1,0.560025721148,-,-
2019_Apr_24,113,001,3,source,25,FATHER,HF,target,left,aqua,pleasantness,conservative,no,8,0,0.440114689409,-,-
2019_Apr_24,113,001,3,source,26,CARRIED,HF,target,left,aqua,pleasantness,liberal,no,2,1,1.07987274328,-,-
2019_Apr_24,113,001,3,source,27,POETICAL,LF,target,left,aqua,pleasantness,liberal,no,2,1,0.56018666178,-,-
2019_Apr_24,113,001,3,source,28,PRUDENTLY,LF,target,left,aqua,pleasantness,liberal,no,2,1,1.18643780105,-,-
2019_Apr_24,113,001,3,source,29,DOODLE,LF,target,left,aqua,pleasantness,conservative,no,2,1,0.866419280006,-,-
2019_Apr_24,113,001,3,source,30,CUTLER,LF,target,right,yellow,imageability,liberal,no,8,1,0.759728842531,-,-
2019_Apr_24,113,001,3,source,31,SINCE,HF,target,left,aqua,pleasantness,conservative,no,2,1,0.839737963688,-,-
2019_Apr_24,113,001,3,source,32,PADDLE,LF,target,right,yellow,imageability,conservative,yes,8,1,0.706636032963,-,-
2019_Apr_24,113,001,3,source,33,OCTAGONAL,LF,target,left,aqua,pleasantness,conservative,yes,8,0,0.533372633625,-,-
2019_Apr_24,113,001,3,source,34,AVAILABLE,HF,target,right,yellow,imageability,liberal,no,2,0,0.919893361221,-,-
2019_Apr_24,113,001,3,source,35,COLDEST,LF,target,right,yellow,imageability,liberal,no,8,1,0.546576363966,-,-
2019_Apr_24,113,001,3,source,36,GODMOTHER,LF,target,right,yellow,imageability,conservative,no,8,1,0.573356664216,-,-
2019_Apr_24,113,001,3,source,37,ITSELF,HF,target,left,aqua,pleasantness,liberal,no,8,0,0.54663612094,-,-
2019_Apr_24,113,001,3,source,38,EASILY,HF,target,left,aqua,pleasantness,liberal,no,8,0,1.03985058551,-,-
2019_Apr_24,113,001,3,source,39,AUGMENT,LF,target,left,aqua,pleasantness,liberal,no,2,1,0.653361752746,-,-
2019_Apr_24,113,001,3,source,40,HISTORY,HF,target,left,aqua,pleasantness,conservative,no,2,1,0.573182525695,-,-
2019_Apr_24,113,001,3,source,41,MORNING,HF,target,right,yellow,imageability,liberal,no,2,0,0.599921032786,-,-
2019_Apr_24,113,001,3,source,42,MYSELF,HF,target,right,yellow,imageability,liberal,no,8,1,0.866615781561,-,-
2019_Apr_24,113,001,3,source,43,ATROCITY,LF,target,right,yellow,imageability,liberal,no,2,0,0.866631179058,-,-
2019_Apr_24,113,001,3,source,44,WALKED,HF,target,right,yellow,imageability,conservative,no,8,1,0.640130893502,-,-
2019_Apr_24,113,001,3,source,45,SNAGS,LF,target,right,yellow,imageability,liberal,no,8,1,0.746459122922,-,-
2019_Apr_24,113,001,3,source,46,EXPECT,HF,target,right,yellow,imageability,conservative,no,2,0,0.693308755988,-,-
2019_Apr_24,113,001,3,source,47,HOEING,LF,target,left,aqua,pleasantness,liberal,no,8,0,0.426878697705,-,-
2019_Apr_24,113,001,3,recog,0,MAVIS,LF,target,right,yellow,imageability,conservative,no,z,1,0.666660434334,1,435
2019_Apr_24,113,001,3,recog,1,BAFFLING,LF,lure,-,-,-,liberal,no,m,1,0.919930388569,1,436
2019_Apr_24,113,001,3,recog,2,SMEARING,LF,lure,-,-,-,conservative,no,z,0,0.586522267375,-3,433
2019_Apr_24,113,001,3,recog,3,COFFINS,LF,lure,-,-,-,liberal,no,m,1,0.466774009285,1,434
2019_Apr_24,113,001,3,recog,4,CUTLER,LF,target,right,yellow,imageability,liberal,no,z,1,0.600063643011,3,437
2019_Apr_24,113,001,3,recog,5,PUCKERED,LF,target,right,yellow,imageability,liberal,no,z,1,0.546739504207,3,440
2019_Apr_24,113,001,3,recog,6,PRACTICE,HF,lure,-,-,-,conservative,no,m,1,0.586686140858,3,443
2019_Apr_24,113,001,3,recog,7,THANK,HF,lure,-,-,-,conservative,no,m,1,0.653326925007,3,446
2019_Apr_24,113,001,3,recog,8,VAINLY,LF,target,right,yellow,imageability,conservative,no,z,1,0.60006620927,1,447
2019_Apr_24,113,001,3,recog,9,SYSTEM,HF,lure,-,-,-,liberal,no,m,1,0.600020383368,1,448
2019_Apr_24,113,001,3,recog,10,SLIGHTLY,HF,target,left,aqua,pleasantness,liberal,no,z,1,0.733204434218,3,451
2019_Apr_24,113,001,3,recog,11,BOASTS,LF,lure,-,-,-,liberal,no,m,1,0.53336896759,1,452
2019_Apr_24,113,001,3,recog,12,BUCKED,LF,lure,-,-,-,conservative,no,m,1,0.786604460736,3,455
2019_Apr_24,113,001,3,recog,13,SOMEONE,HF,target,right,yellow,imageability,liberal,no,z,1,0.586685041024,3,458
2019_Apr_24,113,001,3,recog,14,GARDEN,HF,lure,-,-,-,liberal,no,m,1,0.506767938321,1,459
2019_Apr_24,113,001,3,recog,15,CARRIED,HF,target,left,aqua,pleasantness,liberal,no,m,0,0.413252269151,-3,456
2019_Apr_24,113,001,3,recog,16,UNABATED,LF,target,left,aqua,pleasantness,conservative,no,z,1,0.706645564758,1,457
2019_Apr_24,113,001,3,recog,17,AUGMENT,LF,target,left,aqua,pleasantness,liberal,no,z,1,0.546749036002,3,460
2019_Apr_24,113,001,3,recog,18,TOADS,LF,lure,-,-,-,liberal,no,m,1,0.546830422827,1,461
2019_Apr_24,113,001,3,recog,19,CITES,LF,lure,-,-,-,conservative,yes,z,0,0.520043157041,-3,458
2019_Apr_24,113,001,3,recog,20,AGILITY,LF,target,right,yellow,imageability,liberal,no,m,0,0.426579912717,-3,455
2019_Apr_24,113,001,3,recog,21,MIMICKED,LF,target,left,aqua,pleasantness,conservative,no,z,1,0.480107518553,1,456
2019_Apr_24,113,001,3,recog,22,PRUDENTLY,LF,target,left,aqua,pleasantness,liberal,no,z,1,0.573466279835,3,459
2019_Apr_24,113,001,3,recog,23,LUGGED,LF,target,left,aqua,pleasantness,liberal,no,m,0,0.600017083925,-3,456
2019_Apr_24,113,001,3,recog,24,HOURS,HF,target,left,aqua,pleasantness,conservative,no,z,1,0.600059610326,1,457
2019_Apr_24,113,001,3,recog,25,ALONE,HF,lure,-,-,-,liberal,no,z,0,0.506833927648,-1,456
2019_Apr_24,113,001,3,recog,26,INORGANIC,LF,lure,-,-,-,conservative,no,m,1,0.440233103582,3,459
2019_Apr_24,113,001,3,recog,27,MORNING,HF,target,right,yellow,imageability,liberal,no,m,0,0.506590500299,-3,456
2019_Apr_24,113,001,3,recog,28,PONCE,LF,lure,-,-,-,conservative,no,m,1,0.640002947534,3,459
2019_Apr_24,113,001,3,recog,29,KNOWLEDGE,HF,lure,-,-,-,conservative,no,m,1,1.07972170104,3,462
2019_Apr_24,113,001,3,recog,30,MONEY,HF,lure,-,-,-,conservative,no,m,1,1.33315186267,3,465
2019_Apr_24,113,001,3,recog,31,WOMAN,HF,lure,-,-,-,liberal,no,m,1,0.973216766841,1,466
2019_Apr_24,113,001,3,recog,32,HOPPER,LF,target,right,yellow,imageability,conservative,no,z,1,0.773323376256,1,467
2019_Apr_24,113,001,3,recog,33,IDYLL,LF,lure,-,-,-,liberal,no,m,1,0.573434751597,1,468
2019_Apr_24,113,001,3,recog,34,TIDILY,LF,lure,-,-,-,liberal,no,m,1,0.546795961738,1,469
2019_Apr_24,113,001,3,recog,35,WAXEN,LF,lure,-,-,-,conservative,no,m,1,0.520100347756,3,472
2019_Apr_24,113,001,3,recog,36,NORTH,HF,lure,-,-,-,conservative,no,m,1,0.493427096808,3,475
2019_Apr_24,113,001,3,recog,37,HIMSELF,HF,lure,-,-,-,conservative,no,m,1,0.813318405068,3,478
2019_Apr_24,113,001,3,recog,38,HUMAN,HF,lure,-,-,-,conservative,no,m,1,0.586452978605,3,481
2019_Apr_24,113,001,3,recog,39,NEEDED,HF,lure,-,-,-,conservative,no,m,1,0.533494347241,3,484
2019_Apr_24,113,001,3,recog,40,EASILY,HF,target,left,aqua,pleasantness,liberal,no,z,1,0.546691845229,3,487
2019_Apr_24,113,001,3,recog,41,ANNALS,LF,lure,-,-,-,liberal,no,m,1,0.653324358806,1,488
2019_Apr_24,113,001,3,recog,42,SUING,LF,target,right,yellow,imageability,conservative,yes,z,1,0.639967020019,1,489
2019_Apr_24,113,001,3,recog,43,ENGULF,LF,lure,-,-,-,liberal,no,m,1,1.66630445857,1,490
2019_Apr_24,113,001,3,recog,44,MYSELF,HF,target,right,yellow,imageability,liberal,no,z,1,0.933168946649,3,493
2019_Apr_24,113,001,3,recog,45,CHOICE,HF,target,right,yellow,imageability,conservative,no,m,0,0.546746103151,-1,492
2019_Apr_24,113,001,3,recog,46,COLDEST,LF,target,right,yellow,imageability,liberal,no,z,1,0.799992594519,3,495
2019_Apr_24,113,001,3,recog,47,ROUND,HF,lure,-,-,-,liberal,no,m,1,0.600065842678,1,496
2019_Apr_24,113,001,3,recog,48,DOLPHIN,LF,target,left,aqua,pleasantness,liberal,no,z,1,0.586682841356,3,499
2019_Apr_24,113,001,3,recog,49,EXECUTING,LF,lure,-,-,-,conservative,no,m,1,0.626799217251,3,502
2019_Apr_24,113,001,3,recog,50,POETICAL,LF,target,left,aqua,pleasantness,liberal,no,z,1,0.600018550351,3,505
2019_Apr_24,113,001,3,recog,51,OUGHT,HF,lure,-,-,-,conservative,no,m,1,0.933264264488,3,508
2019_Apr_24,113,001,3,recog,52,GLASS,HF,target,right,yellow,imageability,conservative,no,z,1,0.786591629498,1,509
2019_Apr_24,113,001,3,recog,53,YOUNG,HF,lure,-,-,-,liberal,no,m,1,0.826353495999,1,510
2019_Apr_24,113,001,3,recog,54,ARPEGGIO,LF,lure,-,-,-,liberal,no,m,1,1.43977301137,1,511
2019_Apr_24,113,001,3,recog,55,OCTAGONAL,LF,target,left,aqua,pleasantness,conservative,no,z,1,0.799786194577,1,512
2019_Apr_24,113,001,3,recog,56,BOOKS,HF,lure,-,-,-,conservative,no,m,1,0.653373117559,3,515
2019_Apr_24,113,001,3,recog,57,POUNDS,HF,target,right,yellow,imageability,conservative,no,z,1,0.719995938009,1,516
2019_Apr_24,113,001,3,recog,58,HOEING,LF,target,left,aqua,pleasantness,liberal,no,z,1,1.02651890926,3,519
2019_Apr_24,113,001,3,recog,59,EXPECT,HF,target,right,yellow,imageability,conservative,no,m,0,0.826504171593,-1,518
2019_Apr_24,113,001,3,recog,60,MEANS,HF,target,left,aqua,pleasantness,liberal,no,z,1,4.35858964687,3,521
2019_Apr_24,113,001,3,recog,61,FATHER,HF,target,left,aqua,pleasantness,conservative,no,z,1,0.70652568416,1,522
2019_Apr_24,113,001,3,recog,62,STRAIGHT,HF,target,left,aqua,pleasantness,conservative,no,z,1,0.599877406552,1,523
2019_Apr_24,113,001,3,recog,63,TORMENTS,LF,lure,-,-,-,conservative,no,m,1,0.69342423731,3,526
2019_Apr_24,113,001,3,recog,64,HARDLY,HF,lure,-,-,-,liberal,no,m,1,1.25314420793,1,527
2019_Apr_24,113,001,3,recog,65,DOODLE,LF,target,left,aqua,pleasantness,conservative,no,z,1,0.666663733835,1,528
2019_Apr_24,113,001,3,recog,66,SEQUEL,LF,target,left,aqua,pleasantness,conservative,no,z,1,0.600187189702,1,529
2019_Apr_24,113,001,3,recog,67,ITSELF,HF,target,left,aqua,pleasantness,liberal,no,m,0,0.919919756998,-3,526
2019_Apr_24,113,001,3,recog,68,THEORY,HF,lure,-,-,-,conservative,no,m,1,0.999856656534,3,529
2019_Apr_24,113,001,3,recog,69,CAKED,LF,lure,-,-,-,conservative,no,m,1,0.746776604909,3,532
2019_Apr_24,113,001,3,recog,70,HISTORY,HF,target,left,aqua,pleasantness,conservative,no,z,1,0.626717830368,1,533
2019_Apr_24,113,001,3,recog,71,ATROCITY,LF,target,right,yellow,imageability,liberal,no,z,1,0.746680553711,3,536
2019_Apr_24,113,001,3,recog,72,OFFER,HF,lure,-,-,-,conservative,no,m,1,0.600062909827,3,539
2019_Apr_24,113,001,3,recog,73,COERCION,LF,lure,-,-,-,conservative,no,m,1,0.653323992155,3,542
2019_Apr_24,113,001,3,recog,74,KITCHEN,HF,target,right,yellow,imageability,liberal,no,z,1,0.626701333036,3,545
2019_Apr_24,113,001,3,recog,75,MIDDLE,HF,target,right,yellow,imageability,liberal,no,z,1,0.813267080055,3,548
2019_Apr_24,113,001,3,recog,76,AVAILABLE,HF,target,right,yellow,imageability,liberal,no,z,1,0.666740721324,3,551
2019_Apr_24,113,001,3,recog,77,DEVELOPED,HF,lure,-,-,-,liberal,no,m,1,0.746444092016,1,552
2019_Apr_24,113,001,3,recog,78,PICTURE,HF,lure,-,-,-,liberal,no,m,1,0.853387488576,1,553
2019_Apr_24,113,001,3,recog,79,SINCE,HF,target,left,aqua,pleasantness,conservative,no,z,1,1.11987327121,1,554
2019_Apr_24,113,001,3,recog,80,LIKELY,HF,target,left,aqua,pleasantness,liberal,yes,z,1,0.786646987195,3,557
2019_Apr_24,113,001,3,recog,81,MOSAICS,LF,lure,-,-,-,liberal,no,m,1,0.919936620921,1,558
2019_Apr_24,113,001,3,recog,82,SLYLY,LF,lure,-,-,-,liberal,no,m,1,0.959871526109,1,559
2019_Apr_24,113,001,3,recog,83,PADDLE,LF,target,right,yellow,imageability,conservative,no,z,1,1.18628749199,1,560
2019_Apr_24,113,001,3,recog,84,GODMOTHER,LF,target,right,yellow,imageability,conservative,no,z,1,0.640010646312,1,561
2019_Apr_24,113,001,3,recog,85,BOGEY,LF,lure,-,-,-,conservative,no,m,1,0.640033009346,3,564
2019_Apr_24,113,001,3,recog,86,BULBOUS,LF,lure,-,-,-,conservative,no,m,1,0.600057044066,3,567
2019_Apr_24,113,001,3,recog,87,MATERIAL,HF,lure,-,-,-,liberal,no,m,1,0.626676403801,1,568
2019_Apr_24,113,001,3,recog,88,KILOWATT,LF,target,left,aqua,pleasantness,conservative,no,z,1,0.746670288732,1,569
2019_Apr_24,113,001,3,recog,89,STUDENT,HF,lure,-,-,-,liberal,no,m,1,0.866643643763,1,570
2019_Apr_24,113,001,3,recog,90,SNAGS,LF,target,right,yellow,imageability,liberal,no,z,1,0.786450118991,3,573
2019_Apr_24,113,001,3,recog,91,POLICE,HF,lure,-,-,-,liberal,yes,z,0,0.626708665222,-1,572
2019_Apr_24,113,001,3,recog,92,CALLED,HF,target,right,yellow,imageability,conservative,no,m,0,0.653441673145,-1,571
2019_Apr_24,113,001,3,recog,93,SUPPORT,HF,target,left,aqua,pleasantness,conservative,no,m,0,0.680091094633,-1,570
2019_Apr_24,113,001,3,recog,94,SWAGGER,LF,lure,-,-,-,liberal,no,m,1,0.680089628149,1,571
2019_Apr_24,113,001,3,recog,95,WALKED,HF,target,right,yellow,imageability,conservative,no,m,0,0.826467144245,-1,570
2019_Apr_24,113,001,4,source,0,VILLAGE,HF,target,left,aqua,pleasantness,liberal,no,2,1,1.63944093842,-,-
2019_Apr_24,113,001,4,source,1,BAYING,LF,target,left,aqua,pleasantness,conservative,no,8,0,0.626722962887,-,-
2019_Apr_24,113,001,4,source,2,FILAMENTS,LF,target,right,yellow,imageability,conservative,no,2,0,0.600014884258,-,-
2019_Apr_24,113,001,4,source,3,ESCALATED,LF,target,left,aqua,pleasantness,liberal,yes,8,0,0.586698972154,-,-
2019_Apr_24,113,001,4,source,4,DELEGATED,LF,target,right,yellow,imageability,liberal,no,8,1,0.440082794637,-,-
2019_Apr_24,113,001,4,source,5,THOUSAND,HF,target,left,aqua,pleasantness,conservative,no,8,0,0.266815362615,-,-
2019_Apr_24,113,001,4,source,6,YANKED,LF,target,right,yellow,imageability,liberal,no,8,1,0.346571158094,-,-
2019_Apr_24,113,001,4,source,7,IDEAS,HF,target,right,yellow,imageability,liberal,no,8,1,0.240156775923,-,-
2019_Apr_24,113,001,4,source,8,UGLIEST,LF,target,left,aqua,pleasantness,conservative,no,2,1,0.200175678241,-,-
2019_Apr_24,113,001,4,source,9,SKATES,LF,target,right,yellow,imageability,liberal,no,2,0,0.480107151961,-,-
2019_Apr_24,113,001,4,source,10,UNDER,HF,target,right,yellow,imageability,liberal,no,8,1,0.20027979475,-,-
2019_Apr_24,113,001,4,source,11,DRUDGERY,LF,target,right,yellow,imageability,liberal,no,2,0,0.360141495767,-,-
2019_Apr_24,113,001,4,source,12,SMOCK,LF,target,left,aqua,pleasantness,conservative,no,8,0,0.106724531972,-,-
2019_Apr_24,113,001,4,source,13,LONGER,HF,target,right,yellow,imageability,liberal,no,2,0,0.679885427875,-,-
2019_Apr_24,113,001,4,source,14,BRING,HF,target,left,aqua,pleasantness,liberal,no,8,0,0.386761222035,-,-
2019_Apr_24,113,001,4,source,15,REEDY,LF,target,right,yellow,imageability,liberal,no,8,1,0.440079495194,-,-
2019_Apr_24,113,001,4,source,16,NOURISH,LF,target,left,aqua,pleasantness,conservative,no,8,0,0.293471382989,-,-
2019_Apr_24,113,001,4,source,17,ANSWER,HF,target,left,aqua,pleasantness,liberal,no,2,1,0.266811696521,-,-
2019_Apr_24,113,001,4,source,18,WREATH,LF,target,right,yellow,imageability,conservative,no,2,0,0.266944408359,-,-
2019_Apr_24,113,001,4,source,19,BUZZARD,LF,target,left,aqua,pleasantness,liberal,no,2,1,0.30688078003,-,-
2019_Apr_24,113,001,4,source,20,YORKER,LF,target,left,aqua,pleasantness,liberal,no,8,0,0.186845101765,-,-
2019_Apr_24,113,001,4,source,21,GUARDSMEN,LF,target,left,aqua,pleasantness,liberal,no,2,1,0.94646249566,-,-
2019_Apr_24,113,001,4,source,22,TIMES,HF,target,right,yellow,imageability,conservative,no,8,1,0.626703532704,-,-
2019_Apr_24,113,001,4,source,23,YEOMAN,LF,target,right,yellow,imageability,conservative,no,2,0,0.546659217158,-,-
2019_Apr_24,113,001,4,source,24,NATIONAL,HF,target,right,yellow,imageability,liberal,no,8,1,0.639992682496,-,-
2019_Apr_24,113,001,4,source,25,GAZELLE,LF,target,right,yellow,imageability,liberal,no,2,0,0.440079495136,-,-
2019_Apr_24,113,001,4,source,26,FLOOR,HF,target,right,yellow,imageability,liberal,no,8,1,0.386764154944,-,-
2019_Apr_24,113,001,4,source,27,ROYALS,LF,target,left,aqua,pleasantness,conservative,no,2,1,0.786504376912,-,-
2019_Apr_24,113,001,4,source,28,QUALITY,HF,target,left,aqua,pleasantness,liberal,no,8,0,0.599921032786,-,-
2019_Apr_24,113,001,4,source,29,SMALL,HF,target,left,aqua,pleasantness,conservative,no,8,0,0.946552314505,-,-
2019_Apr_24,113,001,4,source,30,WRITE,HF,target,right,yellow,imageability,liberal,yes,8,1,1.09318462276,-,-
2019_Apr_24,113,001,4,source,31,TURNED,HF,target,left,aqua,pleasantness,liberal,yes,8,0,0.89323807403,-,-
2019_Apr_24,113,001,4,source,32,AMPLIFY,LF,target,left,aqua,pleasantness,liberal,no,3,1,1.8795368576,-,-
2019_Apr_24,113,001,4,source,33,GYMKHANA,LF,target,left,aqua,pleasantness,conservative,no,3,1,1.15979974438,-,-
2019_Apr_24,113,001,4,source,34,LIVED,HF,target,right,yellow,imageability,conservative,no,8,1,0.586808587715,-,-
2019_Apr_24,113,001,4,source,35,DIFFERENT,HF,target,right,yellow,imageability,conservative,no,8,1,0.866585353157,-,-
2019_Apr_24,113,001,4,source,36,TERMS,HF,target,left,aqua,pleasantness,liberal,no,8,0,0.573368762271,-,-
2019_Apr_24,113,001,4,source,37,ARTIFACTS,LF,target,right,yellow,imageability,conservative,no,3,0,0.626716363942,-,-
2019_Apr_24,113,001,4,source,38,LARGE,HF,target,left,aqua,pleasantness,conservative,no,2,1,2.78569234168,-,-
2019_Apr_24,113,001,4,source,39,COVER,HF,target,left,aqua,pleasantness,conservative,no,8,0,0.47999203729,-,-
2019_Apr_24,113,001,4,source,40,DECIDED,HF,target,right,yellow,imageability,conservative,yes,8,1,0.520043156983,-,-
2019_Apr_24,113,001,4,source,41,CABLED,LF,target,left,aqua,pleasantness,liberal,no,2,1,0.680039769562,-,-
2019_Apr_24,113,001,4,source,42,SCHOOL,HF,target,left,aqua,pleasantness,conservative,no,8,0,0.426748185477,-,-
2019_Apr_24,113,001,4,source,43,THING,HF,target,right,yellow,imageability,conservative,no,8,1,0.799756866007,-,-
2019_Apr_24,113,001,4,source,44,TWENTY,HF,target,right,yellow,imageability,conservative,no,8,1,0.706690290826,-,-
2019_Apr_24,113,001,4,source,45,JEOPARDY,LF,target,right,yellow,imageability,conservative,no,8,1,1.43950942071,-,-
2019_Apr_24,113,001,4,source,46,JINGLE,LF,target,right,yellow,imageability,conservative,no,8,1,0.706690290826,-,-
2019_Apr_24,113,001,4,source,47,MOVED,HF,target,left,aqua,pleasantness,conservative,no,2,1,0.813085975999,-,-
2019_Apr_24,113,001,4,recog,0,SORRY,HF,lure,-,-,-,conservative,no,m,1,0.866592685343,3,573
2019_Apr_24,113,001,4,recog,1,TURNED,HF,target,left,aqua,pleasantness,liberal,no,z,1,0.613363791083,3,576
2019_Apr_24,113,001,4,recog,2,ANSWER,HF,target,left,aqua,pleasantness,liberal,no,m,0,0.653174416395,-3,573
2019_Apr_24,113,001,4,recog,3,RELAXES,LF,lure,-,-,-,liberal,no,m,1,0.640051706287,1,574
2019_Apr_24,113,001,4,recog,4,ERSTWHILE,LF,lure,-,-,-,conservative,no,m,1,0.693420571217,3,577
2019_Apr_24,113,001,4,recog,5,BLOOD,HF,lure,-,-,-,conservative,yes,z,0,0.79995813343,-3,574
2019_Apr_24,113,001,4,recog,6,VEERED,LF,lure,-,-,-,conservative,no,m,1,0.653150953469,3,577
2019_Apr_24,113,001,4,recog,7,FELLS,LF,lure,-,-,-,liberal,no,m,1,0.866572521918,1,578
2019_Apr_24,113,001,4,recog,8,FULCRUM,LF,lure,-,-,-,liberal,no,m,1,0.600013417832,1,579
2019_Apr_24,113,001,4,recog,9,WRITE,HF,target,right,yellow,imageability,liberal,no,z,1,0.60006071016,3,582
2019_Apr_24,113,001,4,recog,10,SKATES,LF,target,right,yellow,imageability,liberal,no,z,1,0.546743536892,3,585
2019_Apr_24,113,001,4,recog,11,PEACEABLY,LF,lure,-,-,-,liberal,no,m,1,0.613125496311,1,586
2019_Apr_24,113,001,4,recog,12,NOURISH,LF,target,left,aqua,pleasantness,conservative,no,z,1,0.653334990435,1,587
2019_Apr_24,113,001,4,recog,13,ARTIFACTS,LF,target,right,yellow,imageability,conservative,no,z,1,0.573380127084,1,588
2019_Apr_24,113,001,4,recog,14,FAMILY,HF,lure,-,-,-,conservative,no,m,1,0.986531212577,3,591
2019_Apr_24,113,001,4,recog,15,FLOOR,HF,target,right,yellow,imageability,liberal,no,z,1,0.626711231424,3,594
2019_Apr_24,113,001,4,recog,16,PECKED,LF,lure,-,-,-,liberal,no,m,1,0.906569750339,1,595
2019_Apr_24,113,001,4,recog,17,ZEBRA,LF,lure,-,-,-,conservative,no,m,1,0.506723212136,3,598
2019_Apr_24,113,001,4,recog,18,JINGLE,LF,target,right,yellow,imageability,conservative,no,z,1,0.666706626827,1,599
2019_Apr_24,113,001,4,recog,19,RIVER,HF,lure,-,-,-,liberal,no,m,1,0.560112240491,1,600
2019_Apr_24,113,001,4,recog,20,OMELETTE,LF,lure,-,-,-,liberal,no,m,1,0.546525772137,1,601
2019_Apr_24,113,001,4,recog,21,GUARDSMEN,LF,target,left,aqua,pleasantness,liberal,no,z,1,0.68005773332,3,604
2019_Apr_24,113,001,4,recog,22,REDDENED,LF,lure,-,-,-,conservative,no,m,1,0.613337028772,3,607
2019_Apr_24,113,001,4,recog,23,CABLED,LF,target,left,aqua,pleasantness,liberal,no,z,1,0.653139955306,3,610
2019_Apr_24,113,001,4,recog,24,LIVED,HF,target,right,yellow,imageability,conservative,no,z,1,0.599911867583,1,611
2019_Apr_24,113,001,4,recog,25,QUALITY,HF,target,left,aqua,pleasantness,liberal,no,m,0,0.759777234693,-3,608
2019_Apr_24,113,001,4,recog,26,WINDOW,HF,lure,-,-,-,liberal,no,m,1,0.653389248298,1,609
2019_Apr_24,113,001,4,recog,27,UGLIEST,LF,target,left,aqua,pleasantness,conservative,no,z,1,0.586738932296,1,610
2019_Apr_24,113,001,4,recog,28,YEOMAN,LF,target,right,yellow,imageability,conservative,no,z,1,0.573359597067,1,611
2019_Apr_24,113,001,4,recog,29,NATIONAL,HF,target,right,yellow,imageability,liberal,no,z,1,0.69339454209,3,614
2019_Apr_24,113,001,4,recog,30,GYMKHANA,LF,target,left,aqua,pleasantness,conservative,no,z,1,0.600014517608,1,615
2019_Apr_24,113,001,4,recog,31,TIMES,HF,target,right,yellow,imageability,conservative,no,z,1,0.666708459903,1,616
2019_Apr_24,113,001,4,recog,32,HUSBAND,HF,lure,-,-,-,conservative,no,m,1,0.760079319181,3,619
2019_Apr_24,113,001,4,recog,33,JEOPARDY,LF,target,right,yellow,imageability,conservative,no,z,1,0.586803821789,1,620
2019_Apr_24,113,001,4,recog,34,VILLAGE,HF,target,left,aqua,pleasantness,liberal,no,z,1,0.613339594973,3,623
2019_Apr_24,113,001,4,recog,35,WAYSIDE,LF,lure,-,-,-,liberal,no,m,1,1.33310677001,1,624
2019_Apr_24,113,001,4,recog,36,DECIDED,HF,target,right,yellow,imageability,conservative,no,m,0,0.666657868074,-1,623
2019_Apr_24,113,001,4,recog,37,SLEEP,HF,lure,-,-,-,conservative,no,m,1,0.653364685597,3,626
2019_Apr_24,113,001,4,recog,38,INSIDE,HF,lure,-,-,-,conservative,no,m,1,0.586797222903,3,629
2019_Apr_24,113,001,4,recog,39,SPRATS,LF,lure,-,-,-,liberal,no,m,1,0.693340284226,1,630
2019_Apr_24,113,001,4,recog,40,LUNACY,LF,lure,-,-,-,conservative,no,m,1,0.520125643699,3,633
2019_Apr_24,113,001,4,recog,41,FILAMENTS,LF,target,right,yellow,imageability,conservative,no,z,1,1.30645111616,1,634
2019_Apr_24,113,001,4,recog,42,COVER,HF,target,left,aqua,pleasantness,conservative,no,z,1,0.70668369194,1,635
2019_Apr_24,113,001,4,recog,43,YANKED,LF,target,right,yellow,imageability,liberal,no,z,1,0.653414910834,3,638
2019_Apr_24,113,001,4,recog,44,OEDIPAL,LF,lure,-,-,-,conservative,yes,z,0,0.560026820982,-3,635
2019_Apr_24,113,001,4,recog,45,TERMS,HF,target,left,aqua,pleasantness,liberal,no,m,0,0.72001243534,-3,632
2019_Apr_24,113,001,4,recog,46,UNDER,HF,target,right,yellow,imageability,liberal,no,z,1,0.693321953819,3,635
2019_Apr_24,113,001,4,recog,47,SCHOOL,HF,target,left,aqua,pleasantness,conservative,no,m,0,1.07983058342,-1,634
2019_Apr_24,113,001,4,recog,48,REACHED,HF,lure,-,-,-,liberal,no,z,0,1.67974025139,-1,633
2019_Apr_24,113,001,4,recog,49,BAYING,LF,target,left,aqua,pleasantness,conservative,no,m,0,0.546745736559,-1,632
2019_Apr_24,113,001,4,recog,50,REEDY,LF,target,right,yellow,imageability,liberal,no,m,0,0.759957238915,-3,629
2019_Apr_24,113,001,4,recog,51,VAULTED,LF,lure,-,-,-,conservative,yes,m,1,1.37319931638,3,632
2019_Apr_24,113,001,4,recog,52,VIBRATE,LF,lure,-,-,-,conservative,no,m,1,1.42641310638,3,635
2019_Apr_24,113,001,4,recog,53,PASSED,HF,lure,-,-,-,conservative,no,m,1,0.533348070981,3,638
2019_Apr_24,113,001,4,recog,54,BRING,HF,target,left,aqua,pleasantness,liberal,no,z,1,0.813377062266,3,641
2019_Apr_24,113,001,4,recog,55,REPORT,HF,lure,-,-,-,conservative,no,m,1,0.613392753061,3,644
2019_Apr_24,113,001,4,recog,56,YORKER,LF,target,left,aqua,pleasantness,liberal,no,z,1,0.706507353811,3,647
2019_Apr_24,113,001,4,recog,57,AMONG,HF,lure,-,-,-,liberal,no,m,1,0.719969908881,1,648
2019_Apr_24,113,001,4,recog,58,INJECT,LF,lure,-,-,-,liberal,no,m,1,0.560188494856,1,649
2019_Apr_24,113,001,4,recog,59,OUTSIDE,HF,lure,-,-,-,conservative,no,z,0,0.719971008657,-3,646
2019_Apr_24,113,001,4,recog,60,IDEAS,HF,target,right,yellow,imageability,liberal,no,m,0,0.426861467131,-3,643
2019_Apr_24,113,001,4,recog,61,INFECT,LF,lure,-,-,-,conservative,no,m,1,0.666653835389,3,646
2019_Apr_24,113,001,4,recog,62,SMALL,HF,target,left,aqua,pleasantness,conservative,no,m,0,1.07983058342,-1,645
2019_Apr_24,113,001,4,recog,63,ENOUGH,HF,lure,-,-,-,liberal,no,m,1,1.66625606647,1,646
2019_Apr_24,113,001,4,recog,64,MOVED,HF,target,left,aqua,pleasantness,conservative,no,m,0,0.786718475632,-1,645
2019_Apr_24,113,001,4,recog,65,DELEGATED,LF,target,right,yellow,imageability,liberal,no,m,0,0.879902731744,-3,642
2019_Apr_24,113,001,4,recog,66,LIZARD,LF,lure,-,-,-,conservative,no,m,1,0.706557945639,3,645
2019_Apr_24,113,001,4,recog,67,LONGER,HF,target,right,yellow,imageability,liberal,no,m,0,0.679805874068,-3,642
2019_Apr_24,113,001,4,recog,68,DRUDGERY,LF,target,right,yellow,imageability,liberal,no,z,1,0.839790388593,3,645
2019_Apr_24,113,001,4,recog,69,LARGE,HF,target,left,aqua,pleasantness,conservative,no,m,0,0.653376783594,-1,644
2019_Apr_24,113,001,4,recog,70,AMPLIFY,LF,target,left,aqua,pleasantness,liberal,no,z,1,0.893257504271,3,647
2019_Apr_24,113,001,4,recog,71,NAGGED,LF,lure,-,-,-,liberal,no,m,1,0.599990321556,1,648
2019_Apr_24,113,001,4,recog,72,THING,HF,target,right,yellow,imageability,conservative,no,m,0,0.746629961941,-1,647
2019_Apr_24,113,001,4,recog,73,MINISTER,HF,lure,-,-,-,conservative,no,m,1,0.760001964984,3,650
2019_Apr_24,113,001,4,recog,74,NOTHING,HF,lure,-,-,-,conservative,no,m,1,1.3064038239,3,653
2019_Apr_24,113,001,4,recog,75,WREATH,LF,target,right,yellow,imageability,conservative,no,m,0,0.626667971781,-1,652
2019_Apr_24,113,001,4,recog,76,DIFFERENT,HF,target,right,yellow,imageability,conservative,no,z,1,0.640117329021,1,653
2019_Apr_24,113,001,4,recog,77,DUBIOUSLY,LF,lure,-,-,-,liberal,no,m,1,0.786612526106,1,654
2019_Apr_24,113,001,4,recog,78,EFFECT,HF,lure,-,-,-,liberal,no,m,1,0.93326243147,1,655
2019_Apr_24,113,001,4,recog,79,TWENTY,HF,target,right,yellow,imageability,conservative,no,m,0,0.506727978121,-1,654
2019_Apr_24,113,001,4,recog,80,BLACK,HF,lure,-,-,-,liberal,no,m,1,0.7334482281,1,655
2019_Apr_24,113,001,4,recog,81,ESCALATED,LF,target,left,aqua,pleasantness,liberal,no,z,1,0.986647060548,3,658
2019_Apr_24,113,001,4,recog,82,BACHELORS,LF,lure,-,-,-,liberal,no,m,1,0.706672327069,1,659
2019_Apr_24,113,001,4,recog,83,GAZELLE,LF,target,right,yellow,imageability,liberal,no,z,1,0.666688296478,3,662
2019_Apr_24,113,001,4,recog,84,TOFFEE,LF,lure,-,-,-,conservative,no,m,1,0.693350549205,3,665
2019_Apr_24,113,001,4,recog,85,BUZZARD,LF,target,left,aqua,pleasantness,liberal,no,m,0,0.80002009013,-3,662
2019_Apr_24,113,001,4,recog,86,THOUSAND,HF,target,left,aqua,pleasantness,conservative,no,z,1,0.946540949633,1,663
2019_Apr_24,113,001,4,recog,87,WISPY,LF,lure,-,-,-,conservative,no,m,1,0.613393486303,3,666
2019_Apr_24,113,001,4,recog,88,IMPORTANT,HF,lure,-,-,-,conservative,no,m,1,0.80001972348,3,669
2019_Apr_24,113,001,4,recog,89,HAPPEN,HF,lure,-,-,-,liberal,no,m,1,0.666419573303,1,670
2019_Apr_24,113,001,4,recog,90,TOTAL,HF,lure,-,-,-,liberal,no,z,0,1.45302843337,-1,669
2019_Apr_24,113,001,4,recog,91,LABOUR,HF,lure,-,-,-,liberal,no,m,1,0.560024254723,1,670
2019_Apr_24,113,001,4,recog,92,FREEDOM,HF,lure,-,-,-,liberal,yes,z,0,0.653153886378,-1,669
2019_Apr_24,113,001,4,recog,93,USING,HF,lure,-,-,-,liberal,no,m,1,1.18644989911,1,670
2019_Apr_24,113,001,4,recog,94,ROYALS,LF,target,left,aqua,pleasantness,conservative,no,z,1,0.69337034598,1,671
2019_Apr_24,113,001,4,recog,95,SMOCK,LF,target,left,aqua,pleasantness,conservative,no,z,1,0.813268546481,1,672
