subj,session,cycle,task,trial,item,wf,type,source,colour,encoding,bias,null,response,corr,rt,points,total
114,001,0,source,0,FRIEND,HF,target,right,aqua,imageability,liberal,no,None,-1,-1,-,-
114,001,0,source,1,YACHTING,LF,target,right,aqua,imageability,liberal,no,2,0,6.23785924772,-,-
114,001,0,source,2,HEALTH,HF,target,left,yellow,pleasantness,liberal,no,8,0,4.3319515902,-,-
114,001,0,source,3,FRUGAL,LF,target,right,aqua,imageability,liberal,no,3,0,3.41239587433,-,-
114,001,0,source,4,STRAIGHT,HF,target,left,yellow,pleasantness,liberal,no,8,0,3.50525604957,-,-
114,001,0,source,5,WHITE,HF,target,right,aqua,imageability,liberal,no,1,0,3.47893327527,-,-
114,001,0,source,6,WOMAN,HF,target,left,yellow,pleasantness,conservative,no,1,1,3.30553019856,-,-
114,001,0,source,7,EARLIER,HF,target,right,aqua,imageability,conservative,no,1,0,3.25239082979,-,-
114,001,0,source,8,NEGATION,LF,target,left,yellow,pleasantness,conservative,no,8,0,4.1985959672,-,-
114,001,0,source,9,CARRIED,HF,target,right,aqua,imageability,liberal,no,9,1,2.83926064096,-,-
114,001,0,source,10,BOWER,LF,target,left,yellow,pleasantness,conservative,no,3,1,3.26543728559,-,-
114,001,0,source,11,EXACTLY,HF,target,left,yellow,pleasantness,liberal,no,1,1,3.41228552553,-,-
114,001,0,source,12,LEVEL,HF,target,right,aqua,imageability,conservative,no,7,1,3.0923857853,-,-
114,001,0,source,13,SIGNPOST,LF,target,left,yellow,pleasantness,liberal,no,7,0,3.30567464186,-,-
114,001,0,source,14,OATHS,LF,target,right,aqua,imageability,liberal,no,3,0,3.30567427521,-,-
114,001,0,source,15,LEGALITY,LF,target,left,yellow,pleasantness,liberal,no,2,1,2.85250799754,-,-
114,001,0,source,16,ROPED,LF,target,right,aqua,imageability,conservative,yes,8,1,1.94605409511,-,-
114,001,0,source,17,IGNOBLE,LF,target,left,yellow,pleasantness,liberal,no,7,0,3.43875567603,-,-
114,001,0,source,18,VAINLY,LF,target,left,yellow,pleasantness,conservative,no,1,1,2.8791830815,-,-
114,001,0,source,19,HICKORY,LF,target,left,yellow,pleasantness,liberal,no,1,1,2.34602491319,-,-
114,001,0,source,20,VALUE,HF,target,left,yellow,pleasantness,conservative,no,8,0,3.21239836724,-,-
114,001,0,source,21,FANATICS,LF,target,left,yellow,pleasantness,conservative,no,1,1,3.15900274005,-,-
114,001,0,source,22,SICKENED,LF,target,left,yellow,pleasantness,conservative,no,7,0,3.45227248897,-,-
114,001,0,source,23,EMIGRATED,LF,target,right,aqua,imageability,conservative,no,9,1,2.26590654301,-,-
114,001,0,source,24,ALDER,LF,target,right,aqua,imageability,conservative,no,9,1,1.519701479,-,-
114,001,0,source,25,DEGREE,HF,target,right,aqua,imageability,conservative,no,9,1,1.95952728181,-,-
114,001,0,source,26,PHANTOMS,LF,target,right,aqua,imageability,liberal,no,9,1,0.986578138312,-,-
114,001,0,source,27,ORDER,HF,target,left,yellow,pleasantness,conservative,yes,8,0,1.14648199925,-,-
114,001,0,source,28,HOWEVER,HF,target,left,yellow,pleasantness,liberal,no,3,1,3.11888416449,-,-
114,001,0,source,29,CORNER,HF,target,left,yellow,pleasantness,liberal,no,2,1,2.50580412755,-,-
114,001,0,source,30,NAPPY,LF,target,right,aqua,imageability,conservative,no,8,1,1.93290168984,-,-
114,001,0,source,31,RIVER,HF,target,left,yellow,pleasantness,conservative,no,9,0,2.03948764422,-,-
114,001,0,source,32,NEEDED,HF,target,left,yellow,pleasantness,conservative,no,1,1,2.94574907777,-,-
114,001,0,source,33,ALREADY,HF,target,right,aqua,imageability,conservative,yes,8,1,1.07987127686,-,-
114,001,0,source,34,RIPEN,LF,target,right,aqua,imageability,liberal,no,7,1,2.5057703997,-,-
114,001,0,source,35,UNION,HF,target,right,aqua,imageability,liberal,no,9,1,2.75920349424,-,-
114,001,0,source,36,CAMPANILE,LF,target,right,aqua,imageability,conservative,no,3,0,3.74549641204,-,-
114,001,0,source,37,WANTED,HF,target,right,aqua,imageability,liberal,yes,9,1,1.35976425681,-,-
114,001,0,source,38,NUMBER,HF,target,left,yellow,pleasantness,liberal,no,2,1,2.1195048308,-,-
114,001,0,source,39,SUMMER,HF,target,right,aqua,imageability,conservative,no,8,1,2.38605220336,-,-
114,001,0,source,40,COMES,HF,target,right,aqua,imageability,conservative,no,1,0,2.75924052158,-,-
114,001,0,source,41,PEDALLING,LF,target,left,yellow,pleasantness,liberal,no,1,1,1.95952288253,-,-
114,001,0,source,42,DYNAMISM,LF,target,left,yellow,pleasantness,liberal,no,1,1,0.946362411894,-,-
114,001,0,source,43,TRYING,HF,target,right,aqua,imageability,liberal,no,7,1,2.67923689948,-,-
114,001,0,source,44,VEGAN,LF,target,right,aqua,imageability,conservative,no,9,1,2.02599209448,-,-
114,001,0,source,45,EXCEPT,HF,target,left,yellow,pleasantness,conservative,no,9,0,2.37274069054,-,-
114,001,0,source,46,PINAFORE,LF,target,left,yellow,pleasantness,conservative,no,1,1,2.67925009737,-,-
114,001,0,source,47,DWARFED,LF,target,right,aqua,imageability,liberal,no,9,1,2.18619254068,-,-
114,001,0,recog,0,EMIGRATED,LF,target,right,aqua,imageability,conservative,no,z,1,2.18605359655,1,1
114,001,0,recog,1,WOMAN,HF,target,left,yellow,pleasantness,conservative,no,z,1,1.49276317091,1,2
114,001,0,recog,2,SWIFTNESS,LF,lure,-,-,-,conservative,no,m,1,1.13313749171,3,5
114,001,0,recog,3,ALREADY,HF,target,right,aqua,imageability,conservative,no,z,1,1.61319551832,1,6
114,001,0,recog,4,GNARLED,LF,lure,-,-,-,liberal,no,m,1,0.893271435343,1,7
114,001,0,recog,5,DEGREE,HF,target,right,aqua,imageability,conservative,no,z,1,1.90621267474,1,8
114,001,0,recog,6,CAPITAL,HF,lure,-,-,-,conservative,no,m,1,2.21289145417,3,11
114,001,0,recog,7,HEMMED,LF,lure,-,-,-,conservative,no,z,0,1.67961267201,-3,8
114,001,0,recog,8,BASIC,HF,lure,-,-,-,liberal,no,m,1,1.33314782998,1,9
114,001,0,recog,9,EARLIER,HF,target,right,aqua,imageability,conservative,no,z,1,2.19939553778,1,10
114,001,0,recog,10,ENDEARING,LF,lure,-,-,-,conservative,no,m,1,1.37308970076,3,13
114,001,0,recog,11,ANSWER,HF,lure,-,-,-,conservative,no,m,1,1.34640435176,3,16
114,001,0,recog,12,WITHIN,HF,lure,-,-,-,conservative,no,m,1,0.946401638852,3,19
114,001,0,recog,13,BOMBARDED,LF,lure,-,-,-,liberal,no,m,1,1.85295855795,1,20
114,001,0,recog,14,VAINLY,LF,target,left,yellow,pleasantness,conservative,no,z,1,1.54643668653,1,21
114,001,0,recog,15,NEEDED,HF,target,left,yellow,pleasantness,conservative,no,z,1,1.95951884985,1,22
114,001,0,recog,16,YACHTING,LF,target,right,aqua,imageability,liberal,no,z,1,2.83918108715,3,25
114,001,0,recog,17,IGNOBLE,LF,target,left,yellow,pleasantness,liberal,no,z,1,3.30566730973,3,28
114,001,0,recog,18,SEEMED,HF,lure,-,-,-,conservative,no,m,1,1.67969222582,3,31
114,001,0,recog,19,PEACEABLY,LF,lure,-,-,-,conservative,no,m,1,1.87955262169,3,34
114,001,0,recog,20,OATHS,LF,target,right,aqua,imageability,liberal,yes,z,1,1.21295561042,3,37
114,001,0,recog,21,SUMMER,HF,target,right,aqua,imageability,conservative,no,z,1,3.07897088921,1,38
114,001,0,recog,22,GEARING,LF,lure,-,-,-,conservative,no,m,1,1.51970001258,3,41
114,001,0,recog,23,NAPPY,LF,target,right,aqua,imageability,conservative,no,z,1,1.77293110645,1,42
114,001,0,recog,24,CHAIR,HF,lure,-,-,-,liberal,no,m,1,2.0261075758,1,43
114,001,0,recog,25,BETTER,HF,lure,-,-,-,conservative,no,z,0,1.47974970983,-3,40
114,001,0,recog,26,CAMPANILE,LF,target,right,aqua,imageability,conservative,no,z,1,2.41250878939,1,41
114,001,0,recog,27,VEGAN,LF,target,right,aqua,imageability,conservative,no,z,1,0.959919185087,1,42
114,001,0,recog,28,ADOPTIVE,LF,lure,-,-,-,liberal,no,m,1,1.59969960194,1,43
114,001,0,recog,29,RIVER,HF,target,left,yellow,pleasantness,conservative,no,z,1,1.14632325823,1,44
114,001,0,recog,30,NEGATION,LF,target,left,yellow,pleasantness,conservative,no,z,1,1.58629827027,1,45
114,001,0,recog,31,ENFORCING,LF,lure,-,-,-,liberal,no,m,1,1.34644614498,1,46
114,001,0,recog,32,NUMBER,HF,target,left,yellow,pleasantness,liberal,no,z,1,0.853055342333,3,49
114,001,0,recog,33,LEVEL,HF,target,right,aqua,imageability,conservative,no,z,1,1.33308330708,1,50
114,001,0,recog,34,HEALTH,HF,target,left,yellow,pleasantness,liberal,no,z,1,2.94574284548,3,53
114,001,0,recog,35,LEGALITY,LF,target,left,yellow,pleasantness,liberal,no,m,0,3.30566437682,-3,50
114,001,0,recog,36,NUCLEAR,HF,lure,-,-,-,conservative,no,m,1,0.999790300557,3,53
114,001,0,recog,37,BOWER,LF,target,left,yellow,pleasantness,conservative,no,z,1,1.43975174817,1,54
114,001,0,recog,38,HICKORY,LF,target,left,yellow,pleasantness,liberal,no,z,1,1.03991144232,3,57
114,001,0,recog,39,RICKETS,LF,lure,-,-,-,liberal,no,m,1,1.11984944169,1,58
114,001,0,recog,40,EXCEPT,HF,target,left,yellow,pleasantness,conservative,no,z,1,1.78604538454,1,59
114,001,0,recog,41,FANATICS,LF,target,left,yellow,pleasantness,conservative,no,z,1,0.773317877145,1,60
114,001,0,recog,42,HANDS,HF,lure,-,-,-,liberal,no,m,1,1.10666660802,1,61
114,001,0,recog,43,DWARFED,LF,target,right,aqua,imageability,liberal,no,z,1,1.23983269511,3,64
114,001,0,recog,44,PHANTOMS,LF,target,right,aqua,imageability,liberal,no,z,1,0.813309239864,3,67
114,001,0,recog,45,GROUND,HF,lure,-,-,-,liberal,no,m,1,1.14654065639,1,68
114,001,0,recog,46,LIMELIGHT,LF,lure,-,-,-,conservative,no,m,1,1.30646174785,3,71
114,001,0,recog,47,UNION,HF,target,right,aqua,imageability,liberal,no,z,1,0.826422051585,3,74
114,001,0,recog,48,ORDER,HF,target,left,yellow,pleasantness,conservative,no,m,0,1.3995825809,-1,73
114,001,0,recog,49,AHEAD,HF,lure,-,-,-,liberal,no,m,1,2.14612712333,1,74
114,001,0,recog,50,ASKED,HF,lure,-,-,-,liberal,no,m,1,1.54636116541,1,75
114,001,0,recog,51,SWAGGER,LF,lure,-,-,-,conservative,no,m,1,1.05308071157,3,78
114,001,0,recog,52,PINAFORE,LF,target,left,yellow,pleasantness,conservative,no,z,1,1.02658416535,1,79
114,001,0,recog,53,MOODILY,LF,lure,-,-,-,liberal,no,m,1,0.840021717828,1,80
114,001,0,recog,54,PATCHY,LF,lure,-,-,-,liberal,no,m,1,0.999889651139,1,81
114,001,0,recog,55,TRYING,HF,target,right,aqua,imageability,liberal,no,m,0,1.53299796092,-3,78
114,001,0,recog,56,PRACTICE,HF,lure,-,-,-,liberal,no,m,1,1.03990704304,1,79
114,001,0,recog,57,EXACTLY,HF,target,left,yellow,pleasantness,liberal,no,z,1,0.919987945934,3,82
114,001,0,recog,58,CORNER,HF,target,left,yellow,pleasantness,liberal,no,z,1,0.89332129393,3,85
114,001,0,recog,59,HOWEVER,HF,target,left,yellow,pleasantness,liberal,no,z,1,1.30643315241,3,88
114,001,0,recog,60,OBVIOUSLY,HF,lure,-,-,-,liberal,no,z,0,0.986643027863,-1,87
114,001,0,recog,61,EVENING,HF,lure,-,-,-,conservative,no,m,1,2.23940779711,3,90
114,001,0,recog,62,CARRIED,HF,target,right,aqua,imageability,liberal,yes,z,1,1.02659662999,3,93
114,001,0,recog,63,STOOD,HF,lure,-,-,-,liberal,no,m,1,1.46613464609,1,94
114,001,0,recog,64,SIGNPOST,LF,target,left,yellow,pleasantness,liberal,no,z,1,0.933300558652,3,97
114,001,0,recog,65,AXIOM,LF,lure,-,-,-,conservative,no,m,1,1.07987384306,3,100
114,001,0,recog,66,PEDALLING,LF,target,left,yellow,pleasantness,liberal,no,z,1,1.22647718934,3,103
114,001,0,recog,67,TABLE,HF,lure,-,-,-,liberal,no,z,0,1.06631963619,-1,102
114,001,0,recog,68,FINAL,HF,lure,-,-,-,conservative,no,m,1,1.71959266992,3,105
114,001,0,recog,69,WANTED,HF,target,right,aqua,imageability,liberal,no,z,1,2.37270293001,3,108
114,001,0,recog,70,WHITE,HF,target,right,aqua,imageability,liberal,no,z,1,0.760048890719,3,111
114,001,0,recog,71,ROPED,LF,target,right,aqua,imageability,conservative,no,z,1,1.09319598757,1,112
114,001,0,recog,72,RIPEN,LF,target,right,aqua,imageability,liberal,no,z,1,0.879937926016,3,115
114,001,0,recog,73,FIFTIETH,LF,lure,-,-,-,liberal,no,m,1,0.839974425442,1,116
114,001,0,recog,74,AMONG,HF,lure,-,-,-,conservative,no,m,1,1.7196274976,3,119
114,001,0,recog,75,FRUGAL,LF,target,right,aqua,imageability,liberal,no,z,1,0.919928555551,3,122
114,001,0,recog,76,CRICKETER,LF,lure,-,-,-,liberal,no,m,1,1.06631853635,1,123
114,001,0,recog,77,EIGHT,HF,lure,-,-,-,conservative,no,m,1,0.959961711545,3,126
114,001,0,recog,78,QUALITY,HF,lure,-,-,-,conservative,no,z,0,2.07943977998,-3,123
114,001,0,recog,79,PAVILIONS,LF,lure,-,-,-,conservative,no,m,1,0.906339154346,3,126
114,001,0,recog,80,SICKENED,LF,target,left,yellow,pleasantness,conservative,no,m,0,1.57296256133,-1,125
114,001,0,recog,81,PASSED,HF,lure,-,-,-,conservative,no,m,1,1.01323012606,3,128
114,001,0,recog,82,FRIEND,HF,target,right,aqua,imageability,liberal,no,z,1,1.15979827795,3,131
114,001,0,recog,83,CENTRAL,HF,lure,-,-,-,liberal,no,m,1,0.773331075034,1,132
114,001,0,recog,84,HUBBUB,LF,lure,-,-,-,conservative,no,m,1,1.14657071815,3,135
114,001,0,recog,85,ALDER,LF,target,right,aqua,imageability,conservative,no,z,1,1.27981599246,1,136
114,001,0,recog,86,DYNAMISM,LF,target,left,yellow,pleasantness,liberal,no,z,1,0.919818206748,3,139
114,001,0,recog,87,ODOURS,LF,lure,-,-,-,conservative,no,m,1,0.853248544387,3,142
114,001,0,recog,88,ADHERE,LF,lure,-,-,-,liberal,no,m,1,2.18614451517,1,143
114,001,0,recog,89,VALUE,HF,target,left,yellow,pleasantness,conservative,no,m,0,2.37267066853,-1,142
114,001,0,recog,90,STRAIGHT,HF,target,left,yellow,pleasantness,liberal,yes,z,1,0.839997521776,3,145
114,001,0,recog,91,YARDSTICK,LF,lure,-,-,-,liberal,yes,z,0,1.55968550954,-1,144
114,001,0,recog,92,DUCHY,LF,lure,-,-,-,liberal,no,m,1,0.906581115152,1,145
114,001,0,recog,93,ASTERN,LF,lure,-,-,-,conservative,no,m,1,0.999955273932,3,148
114,001,0,recog,94,COMES,HF,target,right,aqua,imageability,conservative,no,m,0,0.813314372383,-1,147
114,001,0,recog,95,NORTH,HF,lure,-,-,-,liberal,no,m,1,0.999870954198,1,148
114,001,1,source,0,CHURCH,HF,target,left,yellow,pleasantness,conservative,yes,2,1,2.95909321867,-,-
114,001,1,source,1,CLASS,HF,target,left,yellow,pleasantness,liberal,no,1,1,2.53262072196,-,-
114,001,1,source,2,SWOOPING,LF,target,left,yellow,pleasantness,liberal,no,1,1,1.43955927924,-,-
114,001,1,source,3,LIGHT,HF,target,left,yellow,pleasantness,conservative,no,1,1,0.906343553565,-,-
114,001,1,source,4,IDYLL,LF,target,right,aqua,imageability,liberal,yes,2,0,1.26646231976,-,-
114,001,1,source,5,MOPED,LF,target,right,aqua,imageability,liberal,no,2,0,2.90590912395,-,-
114,001,1,source,6,PLACE,HF,target,left,yellow,pleasantness,conservative,no,8,0,1.42643986875,-,-
114,001,1,source,7,UPTIGHT,LF,target,right,aqua,imageability,conservative,no,9,1,1.58615089417,-,-
114,001,1,source,8,MAGGOT,LF,target,left,yellow,pleasantness,conservative,yes,8,0,0.919765415369,-,-
114,001,1,source,9,USING,HF,target,right,aqua,imageability,liberal,no,9,1,1.83949270332,-,-
114,001,1,source,10,PADDLE,LF,target,left,yellow,pleasantness,liberal,no,1,1,1.45304016478,-,-
114,001,1,source,11,KNOWLEDGE,HF,target,right,aqua,imageability,conservative,no,8,1,3.46556017234,-,-
114,001,1,source,12,SMUDGE,LF,target,left,yellow,pleasantness,conservative,no,1,1,1.08000655496,-,-
114,001,1,source,13,WAITING,HF,target,left,yellow,pleasantness,liberal,no,1,1,2.21279137034,-,-
114,001,1,source,14,HECTOR,LF,target,left,yellow,pleasantness,liberal,no,7,0,2.27939769346,-,-
114,001,1,source,15,GOBBLE,LF,target,left,yellow,pleasantness,conservative,no,2,1,1.54636153195,-,-
114,001,1,source,16,VERBALLY,LF,target,right,aqua,imageability,conservative,no,9,1,1.67936264572,-,-
114,001,1,source,17,MAILBOX,LF,target,right,aqua,imageability,conservative,no,9,1,0.973232164397,-,-
114,001,1,source,18,TAILED,LF,target,left,yellow,pleasantness,conservative,no,3,1,2.81255732814,-,-
114,001,1,source,19,SOLEMNITY,LF,target,right,aqua,imageability,conservative,no,9,1,1.67945356446,-,-
114,001,1,source,20,GIRLS,HF,target,right,aqua,imageability,conservative,no,9,1,2.0661594288,-,-
114,001,1,source,21,PIZZA,LF,target,right,aqua,imageability,conservative,no,2,0,1.61272626079,-,-
114,001,1,source,22,REVERE,LF,target,left,yellow,pleasantness,liberal,no,2,1,1.11982231284,-,-
114,001,1,source,23,TACITLY,LF,target,right,aqua,imageability,liberal,no,8,1,1.21320380364,-,-
114,001,1,source,24,EDUCATION,HF,target,left,yellow,pleasantness,liberal,no,1,1,1.3728195111,-,-
114,001,1,source,25,SYNDICATE,LF,target,right,aqua,imageability,liberal,no,9,1,2.3061138374,-,-
114,001,1,source,26,NOTHING,HF,target,right,aqua,imageability,liberal,no,7,1,4.09199828131,-,-
114,001,1,source,27,SUING,LF,target,right,aqua,imageability,liberal,no,9,1,1.78624958475,-,-
114,001,1,source,28,HOSPITAL,HF,target,right,aqua,imageability,conservative,no,9,1,0.959904154181,-,-
114,001,1,source,29,GLASS,HF,target,right,aqua,imageability,liberal,no,8,1,2.10629670112,-,-
114,001,1,source,30,CLEAR,HF,target,right,aqua,imageability,liberal,no,2,0,1.23977623763,-,-
114,001,1,source,31,DOTTY,LF,target,left,yellow,pleasantness,conservative,no,2,1,0.973271757946,-,-
114,001,1,source,32,SUCCESS,HF,target,left,yellow,pleasantness,liberal,no,1,1,1.37283857469,-,-
114,001,1,source,33,BRING,HF,target,right,aqua,imageability,conservative,no,9,1,1.90626033372,-,-
114,001,1,source,34,WRITE,HF,target,left,yellow,pleasantness,conservative,no,8,0,1.33306204388,-,-
114,001,1,source,35,IRISES,LF,target,left,yellow,pleasantness,liberal,no,1,1,1.38647306862,-,-
114,001,1,source,36,SOUND,HF,target,right,aqua,imageability,liberal,no,2,0,1.29312457237,-,-
114,001,1,source,37,HISTORY,HF,target,right,aqua,imageability,conservative,no,8,1,1.30620292306,-,-
114,001,1,source,38,SARDINES,LF,target,right,aqua,imageability,liberal,no,8,1,1.83957299043,-,-
114,001,1,source,39,TATTERS,LF,target,left,yellow,pleasantness,conservative,no,2,1,2.33276729158,-,-
114,001,1,source,40,WINDOW,HF,target,left,yellow,pleasantness,liberal,no,3,1,2.33271193388,-,-
114,001,1,source,41,CAUGHT,HF,target,left,yellow,pleasantness,conservative,yes,3,1,1.07983168319,-,-
114,001,1,source,42,PREPARED,HF,target,left,yellow,pleasantness,liberal,no,7,0,2.55913926463,-,-
114,001,1,source,43,DOUBT,HF,target,right,aqua,imageability,conservative,no,9,1,1.65276418277,-,-
114,001,1,source,44,SENSE,HF,target,right,aqua,imageability,liberal,no,9,1,1.63942957367,-,-
114,001,1,source,45,BUSINESS,HF,target,left,yellow,pleasantness,conservative,no,1,1,1.33310933632,-,-
114,001,1,source,46,CHLORIDE,LF,target,right,aqua,imageability,conservative,no,8,1,2.1059176292,-,-
114,001,1,source,47,EPIDEMICS,LF,target,left,yellow,pleasantness,liberal,no,1,1,2.35935988883,-,-
114,001,1,recog,0,ENERGY,HF,lure,-,-,-,conservative,no,z,0,5.21163655713,-3,145
114,001,1,recog,1,CLASS,HF,target,left,yellow,pleasantness,liberal,no,z,1,3.18568772241,3,148
114,001,1,recog,2,PREPARED,HF,target,left,yellow,pleasantness,liberal,yes,z,1,1.09319342126,3,151
114,001,1,recog,3,VERBALLY,LF,target,right,aqua,imageability,conservative,no,z,1,1.41281820601,1,152
114,001,1,recog,4,EBULLIENT,LF,lure,-,-,-,liberal,no,m,1,1.0532416522,1,153
114,001,1,recog,5,BUSINESS,HF,target,left,yellow,pleasantness,conservative,no,z,1,0.959894622443,1,154
114,001,1,recog,6,CYANIDE,LF,lure,-,-,-,liberal,no,m,1,2.34609236883,1,155
114,001,1,recog,7,EGOISM,LF,lure,-,-,-,conservative,no,m,1,1.18649902451,3,158
114,001,1,recog,8,COLDEST,LF,lure,-,-,-,liberal,yes,z,0,0.919909492019,-1,157
114,001,1,recog,9,GLASS,HF,target,right,aqua,imageability,liberal,no,z,1,1.63962277572,3,160
114,001,1,recog,10,RATHER,HF,lure,-,-,-,conservative,no,m,1,1.63965247083,3,163
114,001,1,recog,11,USING,HF,target,right,aqua,imageability,liberal,no,z,1,1.19982446847,3,166
114,001,1,recog,12,JOYFULLY,LF,lure,-,-,-,conservative,no,m,1,0.746449591126,3,169
114,001,1,recog,13,OFFER,HF,lure,-,-,-,liberal,yes,z,0,0.786600061459,-1,168
114,001,1,recog,14,NOTHING,HF,target,right,aqua,imageability,liberal,no,z,1,1.78623675357,3,171
114,001,1,recog,15,GIVEN,HF,lure,-,-,-,conservative,no,m,1,1.15983310563,3,174
114,001,1,recog,16,TRIED,HF,lure,-,-,-,liberal,no,m,1,1.97282852966,1,175
114,001,1,recog,17,SWOOPING,LF,target,left,yellow,pleasantness,liberal,no,z,1,0.760019562207,3,178
114,001,1,recog,18,AFTERNOON,HF,lure,-,-,-,conservative,no,m,1,1.06666351389,3,181
114,001,1,recog,19,GIRLS,HF,target,right,aqua,imageability,conservative,no,z,1,1.1995707762,1,182
114,001,1,recog,20,SENSE,HF,target,right,aqua,imageability,liberal,no,z,1,1.0399125421,3,185
114,001,1,recog,21,SYNDICATE,LF,target,right,aqua,imageability,liberal,no,z,1,0.813252049149,3,188
114,001,1,recog,22,WAITING,HF,target,left,yellow,pleasantness,liberal,no,z,1,1.71962383157,3,191
114,001,1,recog,23,MAILBOX,LF,target,right,aqua,imageability,conservative,no,z,1,1.78634673578,1,192
114,001,1,recog,24,CHURCH,HF,target,left,yellow,pleasantness,conservative,no,z,1,0.666526622721,1,193
114,001,1,recog,25,REACHED,HF,lure,-,-,-,conservative,no,m,1,1.01316926919,3,196
114,001,1,recog,26,DOUBT,HF,target,right,aqua,imageability,conservative,no,z,1,1.00004472607,1,197
114,001,1,recog,27,WINDOW,HF,target,left,yellow,pleasantness,liberal,no,z,1,0.613391286694,3,200
114,001,1,recog,28,GUSHED,LF,lure,-,-,-,conservative,no,m,1,0.959741013823,3,203
114,001,1,recog,29,STUDENT,HF,lure,-,-,-,liberal,no,m,1,0.960059229052,1,204
114,001,1,recog,30,HECTOR,LF,target,left,yellow,pleasantness,liberal,no,z,1,0.680026938324,3,207
114,001,1,recog,31,CLEAR,HF,target,right,aqua,imageability,liberal,no,z,1,0.640123561374,3,210
114,001,1,recog,32,UMPIRE,LF,lure,-,-,-,conservative,no,m,1,0.666483729612,3,213
114,001,1,recog,33,BLOOD,HF,lure,-,-,-,liberal,no,m,1,1.3331097028,1,214
114,001,1,recog,34,SMALL,HF,lure,-,-,-,liberal,no,m,1,1.38626153616,1,215
114,001,1,recog,35,HISTORY,HF,target,right,aqua,imageability,conservative,no,z,1,0.720007302822,1,216
114,001,1,recog,36,TACITLY,LF,target,right,aqua,imageability,liberal,no,z,1,0.893249438843,3,219
114,001,1,recog,37,EPIDEMICS,LF,target,left,yellow,pleasantness,liberal,no,z,1,0.746705483063,3,222
114,001,1,recog,38,PIZZA,LF,target,right,aqua,imageability,conservative,no,z,1,0.799968398525,1,223
114,001,1,recog,39,DIFFERENT,HF,lure,-,-,-,liberal,no,m,1,1.95954927825,1,224
114,001,1,recog,40,WETTER,LF,lure,-,-,-,conservative,no,m,1,0.986583270831,3,227
114,001,1,recog,41,SUING,LF,target,right,aqua,imageability,liberal,no,z,1,2.03950597462,3,230
114,001,1,recog,42,RETURN,HF,lure,-,-,-,liberal,no,m,1,1.22647828911,1,231
114,001,1,recog,43,UNJUSTLY,LF,lure,-,-,-,liberal,no,m,1,0.75997153658,1,232
114,001,1,recog,44,IDYLL,LF,target,right,aqua,imageability,liberal,no,m,0,0.733310750336,-3,229
114,001,1,recog,45,SOLEMNITY,LF,target,right,aqua,imageability,conservative,no,z,1,1.55973060231,1,230
114,001,1,recog,46,REVERE,LF,target,left,yellow,pleasantness,liberal,no,z,1,0.866490035201,3,233
114,001,1,recog,47,IDEAS,HF,lure,-,-,-,liberal,no,m,1,2.46599020273,1,234
114,001,1,recog,48,FATHER,HF,lure,-,-,-,conservative,no,m,1,0.706632000278,3,237
114,001,1,recog,49,INCLUDING,HF,lure,-,-,-,conservative,no,m,1,1.09324144688,3,240
114,001,1,recog,50,THANK,HF,lure,-,-,-,conservative,no,m,1,1.03977359796,3,243
114,001,1,recog,51,TAILED,LF,target,left,yellow,pleasantness,conservative,no,z,1,0.919899226981,1,244
114,001,1,recog,52,PADDLE,LF,target,left,yellow,pleasantness,liberal,no,z,1,0.839922733838,3,247
114,001,1,recog,53,ODDER,LF,lure,-,-,-,conservative,no,m,1,0.919893727871,3,250
114,001,1,recog,54,WRITE,HF,target,left,yellow,pleasantness,conservative,no,z,1,0.666759418324,1,251
114,001,1,recog,55,SMUDGE,LF,target,left,yellow,pleasantness,conservative,no,z,1,0.826438548858,1,252
114,001,1,recog,56,PRUDENTLY,LF,lure,-,-,-,liberal,yes,z,0,0.759936342249,-1,251
114,001,1,recog,57,NOVAS,LF,lure,-,-,-,conservative,no,m,1,1.13322327787,3,254
114,001,1,recog,58,DECIDED,HF,lure,-,-,-,conservative,no,m,1,0.853070373298,3,257
114,001,1,recog,59,CREAK,LF,lure,-,-,-,conservative,no,m,1,0.733304151334,3,260
114,001,1,recog,60,INLAID,LF,lure,-,-,-,liberal,no,m,1,1.05316356476,1,261
114,001,1,recog,61,SEVEN,HF,lure,-,-,-,conservative,no,m,1,0.826687475201,3,264
114,001,1,recog,62,ACORNS,LF,lure,-,-,-,conservative,no,m,1,0.640097532189,3,267
114,001,1,recog,63,VARIOUS,HF,lure,-,-,-,liberal,no,z,0,1.26652354316,-1,266
114,001,1,recog,64,NEARLY,HF,lure,-,-,-,liberal,no,m,1,2.46600156766,1,267
114,001,1,recog,65,WASHBASIN,LF,lure,-,-,-,liberal,no,m,1,0.666703694034,1,268
114,001,1,recog,66,SOUND,HF,target,right,aqua,imageability,liberal,no,z,1,0.813244716963,3,271
114,001,1,recog,67,TATTERS,LF,target,left,yellow,pleasantness,conservative,no,z,1,0.999992301338,1,272
114,001,1,recog,68,PLACE,HF,target,left,yellow,pleasantness,conservative,no,z,1,0.706616602722,1,273
114,001,1,recog,69,FRONT,HF,lure,-,-,-,conservative,no,m,1,0.719775606878,3,276
114,001,1,recog,70,REIGNING,LF,lure,-,-,-,liberal,no,m,1,0.959916618885,1,277
114,001,1,recog,71,EDUCATION,HF,target,left,yellow,pleasantness,liberal,no,z,1,0.760012963205,3,280
114,001,1,recog,72,CAUGHT,HF,target,left,yellow,pleasantness,conservative,no,z,1,0.99986398872,1,281
114,001,1,recog,73,MAGGOT,LF,target,left,yellow,pleasantness,conservative,no,z,1,3.23903459089,1,282
114,001,1,recog,74,SARDINES,LF,target,right,aqua,imageability,liberal,no,z,1,1.42642997031,3,285
114,001,1,recog,75,FUMING,LF,lure,-,-,-,conservative,no,m,1,1.10653536255,3,288
114,001,1,recog,76,IRISES,LF,target,left,yellow,pleasantness,liberal,no,z,1,0.760025427793,3,291
114,001,1,recog,77,LIGHT,HF,target,left,yellow,pleasantness,conservative,no,z,1,0.746690452215,1,292
114,001,1,recog,78,UPTIGHT,LF,target,right,aqua,imageability,conservative,no,z,1,0.746662956662,1,293
114,001,1,recog,79,SUCCESS,HF,target,left,yellow,pleasantness,liberal,no,z,1,0.773322276422,3,296
114,001,1,recog,80,ANIMAL,HF,lure,-,-,-,liberal,no,m,1,0.733344478183,1,297
114,001,1,recog,81,GOBBLE,LF,target,left,yellow,pleasantness,conservative,no,z,1,0.826414352865,1,298
114,001,1,recog,82,TYCOONS,LF,lure,-,-,-,liberal,no,m,1,0.733341545332,1,299
114,001,1,recog,83,MOPED,LF,target,right,aqua,imageability,liberal,no,z,1,0.74666992214,3,302
114,001,1,recog,84,BRING,HF,target,right,aqua,imageability,conservative,no,z,1,0.959809936117,1,303
114,001,1,recog,85,GAZELLE,LF,lure,-,-,-,conservative,no,m,1,0.773347572424,3,306
114,001,1,recog,86,HOSPITAL,HF,target,right,aqua,imageability,conservative,no,z,1,0.546747569577,1,307
114,001,1,recog,87,FEELING,HF,lure,-,-,-,conservative,no,m,1,2.22586165555,3,310
114,001,1,recog,88,MAYBE,HF,lure,-,-,-,liberal,no,m,1,1.1066614755,1,311
114,001,1,recog,89,WAXEN,LF,lure,-,-,-,conservative,no,m,1,0.759994632797,3,314
114,001,1,recog,90,CHLORIDE,LF,target,right,aqua,imageability,conservative,no,z,1,0.999895150308,1,315
114,001,1,recog,91,KNOWLEDGE,HF,target,right,aqua,imageability,conservative,no,z,1,0.813337468659,1,316
114,001,1,recog,92,TWINE,LF,lure,-,-,-,liberal,no,m,1,0.933305691229,1,317
114,001,1,recog,93,ESTRANGED,LF,lure,-,-,-,liberal,no,m,1,1.879579384,1,318
114,001,1,recog,94,EATERS,LF,lure,-,-,-,liberal,no,m,1,1.30647384585,1,319
114,001,1,recog,95,DOTTY,LF,target,left,yellow,pleasantness,conservative,no,z,1,0.786618391867,1,320
114,001,2,source,0,POUNDS,HF,target,right,aqua,imageability,conservative,no,7,1,2.4392865235,-,-
114,001,2,source,1,YORKER,LF,target,left,yellow,pleasantness,liberal,no,3,1,2.73233850754,-,-
114,001,2,source,2,SEABED,LF,target,right,aqua,imageability,liberal,no,9,1,1.51974290563,-,-
114,001,2,source,3,ERUDITE,LF,target,left,yellow,pleasantness,liberal,no,1,1,1.47964705981,-,-
114,001,2,source,4,HAMLETS,LF,target,right,aqua,imageability,conservative,no,9,1,1.91950659046,-,-
114,001,2,source,5,CUPID,LF,target,left,yellow,pleasantness,liberal,no,1,1,1.18645906425,-,-
114,001,2,source,6,THEORY,HF,target,left,yellow,pleasantness,conservative,no,1,1,1.29323345481,-,-
114,001,2,source,7,MATERIAL,HF,target,right,aqua,imageability,liberal,no,2,0,1.14654908841,-,-
114,001,2,source,8,USUAL,HF,target,right,aqua,imageability,liberal,no,8,1,1.50640719675,-,-
114,001,2,source,9,STEADFAST,LF,target,right,aqua,imageability,conservative,no,9,1,1.63965760346,-,-
114,001,2,source,10,MAJOR,HF,target,right,aqua,imageability,liberal,no,9,1,1.34624964348,-,-
114,001,2,source,11,ACIDITY,LF,target,right,aqua,imageability,conservative,no,9,1,1.29311357427,-,-
114,001,2,source,12,WIPERS,LF,target,left,yellow,pleasantness,liberal,no,1,1,1.35970339994,-,-
114,001,2,source,13,ICILY,LF,target,left,yellow,pleasantness,conservative,no,1,1,0.906351252343,-,-
114,001,2,source,14,PHYSICAL,HF,target,right,aqua,imageability,conservative,no,8,1,1.62611292826,-,-
114,001,2,source,15,ACCORDING,HF,target,right,aqua,imageability,conservative,no,8,1,1.17322563881,-,-
114,001,2,source,16,ZEBRA,LF,target,right,aqua,imageability,conservative,yes,8,1,0.853323698975,-,-
114,001,2,source,17,DEXTERITY,LF,target,right,aqua,imageability,conservative,no,2,0,1.38641991059,-,-
114,001,2,source,18,HELICAL,LF,target,right,aqua,imageability,liberal,no,8,1,2.13278811495,-,-
114,001,2,source,19,BUTCHERED,LF,target,right,aqua,imageability,liberal,no,1,0,1.35954099288,-,-
114,001,2,source,20,MOVED,HF,target,right,aqua,imageability,conservative,no,2,0,1.57302415138,-,-
114,001,2,source,21,BEHIND,HF,target,right,aqua,imageability,liberal,no,8,1,2.30607571034,-,-
114,001,2,source,22,SHORT,HF,target,left,yellow,pleasantness,conservative,no,1,1,1.29312457237,-,-
114,001,2,source,23,ROCKER,LF,target,right,aqua,imageability,liberal,no,9,1,1.73292287975,-,-
114,001,2,source,24,RANGE,HF,target,left,yellow,pleasantness,liberal,no,7,0,1.71959963546,-,-
114,001,2,source,25,TOADS,LF,target,right,aqua,imageability,liberal,yes,7,1,0.813342601177,-,-
114,001,2,source,26,BEYOND,HF,target,left,yellow,pleasantness,liberal,no,3,1,1.86625613971,-,-
114,001,2,source,27,LIVED,HF,target,left,yellow,pleasantness,conservative,no,2,1,1.15980890964,-,-
114,001,2,source,28,WRONG,HF,target,left,yellow,pleasantness,liberal,no,3,1,1.79959152604,-,-
114,001,2,source,29,FURTHER,HF,target,left,yellow,pleasantness,conservative,no,8,0,1.77276979911,-,-
114,001,2,source,30,VEERED,LF,target,left,yellow,pleasantness,conservative,yes,7,0,1.11988830206,-,-
114,001,2,source,31,IMPORTANT,HF,target,right,aqua,imageability,liberal,yes,7,1,1.30644891656,-,-
114,001,2,source,32,LIKELY,HF,target,right,aqua,imageability,conservative,no,7,1,2.51931287523,-,-
114,001,2,source,33,ATROCITY,LF,target,left,yellow,pleasantness,liberal,no,3,1,2.62571662571,-,-
114,001,2,source,34,SINCE,HF,target,left,yellow,pleasantness,conservative,no,2,1,1.29308387905,-,-
114,001,2,source,35,HOMESTEAD,LF,target,right,aqua,imageability,liberal,no,2,0,1.58611863269,-,-
114,001,2,source,36,GIBBERISH,LF,target,left,yellow,pleasantness,conservative,no,1,1,1.15966336639,-,-
114,001,2,source,37,QUESTION,HF,target,left,yellow,pleasantness,liberal,no,7,0,1.97285639192,-,-
114,001,2,source,38,RUPTURE,LF,target,left,yellow,pleasantness,conservative,no,1,1,1.21293251414,-,-
114,001,2,source,39,SNIGGERED,LF,target,left,yellow,pleasantness,conservative,no,1,1,0.813254982,-,-
114,001,2,source,40,FIELD,HF,target,right,aqua,imageability,conservative,no,9,1,1.54644585168,-,-
114,001,2,source,41,MENFOLK,LF,target,left,yellow,pleasantness,liberal,no,8,0,1.7595459054,-,-
114,001,2,source,42,ALMOST,HF,target,left,yellow,pleasantness,conservative,no,8,0,1.1599702168,-,-
114,001,2,source,43,DEBACLE,LF,target,left,yellow,pleasantness,conservative,no,8,0,1.31977875973,-,-
114,001,2,source,44,PEWTER,LF,target,right,aqua,imageability,conservative,no,1,0,1.89287073351,-,-
114,001,2,source,45,OUGHT,HF,target,left,yellow,pleasantness,liberal,no,2,1,1.07982105156,-,-
114,001,2,source,46,HIGHER,HF,target,right,aqua,imageability,liberal,no,1,0,1.37305377319,-,-
114,001,2,source,47,GREATER,HF,target,left,yellow,pleasantness,liberal,no,8,0,1.45283669769,-,-
114,001,2,recog,0,STEADFAST,LF,target,right,aqua,imageability,conservative,no,z,1,1.35954319255,1,321
114,001,2,recog,1,SHORT,HF,target,left,yellow,pleasantness,conservative,no,z,1,0.706695423345,1,322
114,001,2,recog,2,TOADS,LF,target,right,aqua,imageability,liberal,no,z,1,0.653370917891,3,325
114,001,2,recog,3,ICILY,LF,target,left,yellow,pleasantness,conservative,no,z,1,0.64009239967,1,326
114,001,2,recog,4,SINCE,HF,target,left,yellow,pleasantness,conservative,no,z,1,0.653368351632,1,327
114,001,2,recog,5,LULLED,LF,lure,-,-,-,conservative,no,m,1,0.693361547426,3,330
114,001,2,recog,6,SEABED,LF,target,right,aqua,imageability,liberal,no,z,1,0.853233880131,3,333
114,001,2,recog,7,THRASH,LF,lure,-,-,-,conservative,no,m,1,0.653362852521,3,336
114,001,2,recog,8,ITSELF,HF,lure,-,-,-,conservative,no,m,1,0.786641121493,3,339
114,001,2,recog,9,LIKELY,HF,target,right,aqua,imageability,conservative,no,z,1,1.14648309897,1,340
114,001,2,recog,10,THEORY,HF,target,left,yellow,pleasantness,conservative,no,z,1,0.973191470955,1,341
114,001,2,recog,11,POINT,HF,lure,-,-,-,conservative,no,m,1,0.666729356511,3,344
114,001,2,recog,12,LANGUAGE,HF,lure,-,-,-,liberal,no,m,1,0.866621280671,1,345
114,001,2,recog,13,BEAUTIFUL,HF,lure,-,-,-,liberal,no,m,1,1.41309866065,1,346
114,001,2,recog,14,OUGHT,HF,target,left,yellow,pleasantness,liberal,no,z,1,0.560114440159,3,349
114,001,2,recog,15,ACCORDING,HF,target,right,aqua,imageability,conservative,no,z,1,0.693377678166,1,350
114,001,2,recog,16,EXPECT,HF,lure,-,-,-,liberal,no,z,0,1.03967608046,-1,349
114,001,2,recog,17,TROUBLE,HF,lure,-,-,-,conservative,no,m,1,1.55964994873,3,352
114,001,2,recog,18,POUNDS,HF,target,right,aqua,imageability,conservative,no,z,1,1.09307720675,1,353
114,001,2,recog,19,PHRASED,LF,lure,-,-,-,conservative,no,m,1,0.69335494854,3,356
114,001,2,recog,20,GARDEN,HF,lure,-,-,-,conservative,no,m,1,1.23969778349,3,359
114,001,2,recog,21,POSITION,HF,lure,-,-,-,conservative,no,m,1,1.77282149089,3,362
114,001,2,recog,22,TRUTH,HF,lure,-,-,-,conservative,no,m,1,0.906735456898,3,365
114,001,2,recog,23,DEXTERITY,LF,target,right,aqua,imageability,conservative,no,z,1,0.666498027393,1,366
114,001,2,recog,24,ROCKER,LF,target,right,aqua,imageability,liberal,no,z,1,0.693324153544,3,369
114,001,2,recog,25,HELICAL,LF,target,right,aqua,imageability,liberal,no,z,1,0.560074113309,3,372
114,001,2,recog,26,USUAL,HF,target,right,aqua,imageability,liberal,no,z,1,0.640135292779,3,375
114,001,2,recog,27,CUPID,LF,target,left,yellow,pleasantness,liberal,no,z,1,0.520101814182,3,378
114,001,2,recog,28,HAMLETS,LF,target,right,aqua,imageability,conservative,no,z,1,0.560038552387,1,379
114,001,2,recog,29,WIPERS,LF,target,left,yellow,pleasantness,liberal,no,z,1,0.613239877857,3,382
114,001,2,recog,30,PEWTER,LF,target,right,aqua,imageability,conservative,no,z,1,0.640049873269,1,383
114,001,2,recog,31,MOLARS,LF,lure,-,-,-,liberal,no,m,1,0.746759007685,1,384
114,001,2,recog,32,AFIELD,LF,lure,-,-,-,liberal,yes,z,0,0.986571906018,-1,383
114,001,2,recog,33,MATERIAL,HF,target,right,aqua,imageability,liberal,no,z,1,1.33313389902,3,386
114,001,2,recog,34,HINDERED,LF,lure,-,-,-,conservative,no,m,1,1.23984882573,3,389
114,001,2,recog,35,VEERED,LF,target,left,yellow,pleasantness,conservative,no,z,1,0.919978414197,1,390
114,001,2,recog,36,LONGER,HF,lure,-,-,-,conservative,no,m,1,0.919934787904,3,393
114,001,2,recog,37,WHETHER,HF,lure,-,-,-,conservative,no,z,0,1.81291220419,-3,390
114,001,2,recog,38,VIOLATING,LF,lure,-,-,-,liberal,no,m,1,2.18604443141,1,391
114,001,2,recog,39,CEASELESS,LF,lure,-,-,-,conservative,no,m,1,1.27979252965,3,394
114,001,2,recog,40,LIVED,HF,target,left,yellow,pleasantness,conservative,no,z,1,0.906609343947,1,395
114,001,2,recog,41,FURTHER,HF,target,left,yellow,pleasantness,conservative,no,z,1,0.81330264092,1,396
114,001,2,recog,42,ATROCITY,LF,target,left,yellow,pleasantness,liberal,no,z,1,0.693201340036,3,399
114,001,2,recog,43,SLOWLY,HF,lure,-,-,-,liberal,no,m,1,1.33303894766,1,400
114,001,2,recog,44,ABBOT,LF,lure,-,-,-,conservative,no,m,1,0.773313477868,3,403
114,001,2,recog,45,ALERTING,LF,lure,-,-,-,liberal,no,z,0,0.866653908743,-1,402
114,001,2,recog,46,QUESTION,HF,target,left,yellow,pleasantness,liberal,yes,z,1,0.733335312922,3,405
114,001,2,recog,47,MIDDLE,HF,lure,-,-,-,liberal,no,m,1,1.37312452844,1,406
114,001,2,recog,48,BESOTTED,LF,lure,-,-,-,liberal,no,m,1,0.720074758632,1,407
114,001,2,recog,49,PRIVATE,HF,lure,-,-,-,liberal,no,m,1,0.720054961741,1,408
114,001,2,recog,50,THOUSAND,HF,lure,-,-,-,conservative,no,m,1,0.666649069521,3,411
114,001,2,recog,51,IMPORTANT,HF,target,right,aqua,imageability,liberal,no,z,1,0.68005516706,3,414
114,001,2,recog,52,FIELD,HF,target,right,aqua,imageability,conservative,no,z,1,0.786655052565,1,415
114,001,2,recog,53,APART,HF,lure,-,-,-,liberal,yes,z,0,0.68004160258,-1,414
114,001,2,recog,54,MAJOR,HF,target,right,aqua,imageability,liberal,no,z,1,0.826610121178,3,417
114,001,2,recog,55,DEBACLE,LF,target,left,yellow,pleasantness,conservative,no,z,1,1.45305006322,1,418
114,001,2,recog,56,RANGE,HF,target,left,yellow,pleasantness,liberal,no,z,1,0.680032804026,3,421
114,001,2,recog,57,BAUXITE,LF,lure,-,-,-,liberal,no,m,1,0.786653952673,1,422
114,001,2,recog,58,ABATED,LF,lure,-,-,-,conservative,no,m,1,0.87976525398,3,425
114,001,2,recog,59,MIGHTILY,LF,lure,-,-,-,liberal,no,m,1,1.33311923465,1,426
114,001,2,recog,60,UDDER,LF,lure,-,-,-,conservative,no,z,0,1.01327081944,-3,423
114,001,2,recog,61,ZEBRA,LF,target,right,aqua,imageability,conservative,no,z,1,0.826661079656,1,424
114,001,2,recog,62,RUPTURE,LF,target,left,yellow,pleasantness,conservative,no,z,1,0.626717830426,1,425
114,001,2,recog,63,ROYALS,LF,lure,-,-,-,liberal,no,z,0,1.8260679089,-1,424
114,001,2,recog,64,WATCH,HF,lure,-,-,-,liberal,no,m,1,0.999999266816,1,425
114,001,2,recog,65,KIBBUTZIM,LF,lure,-,-,-,liberal,no,m,1,0.613386887359,1,426
114,001,2,recog,66,GIBBERISH,LF,target,left,yellow,pleasantness,conservative,no,z,1,1.87958195026,1,427
114,001,2,recog,67,MELODIC,LF,lure,-,-,-,conservative,no,m,1,0.760058055981,3,430
114,001,2,recog,68,INITIATES,LF,lure,-,-,-,conservative,no,m,1,0.986597568612,3,433
114,001,2,recog,69,YORKER,LF,target,left,yellow,pleasantness,liberal,no,z,1,0.773329608608,3,436
114,001,2,recog,70,TOMBSTONE,LF,lure,-,-,-,liberal,no,m,1,0.706807971816,1,437
114,001,2,recog,71,RUNNING,HF,lure,-,-,-,conservative,no,m,1,1.17293748539,3,440
114,001,2,recog,72,GENERAL,HF,lure,-,-,-,liberal,no,m,1,1.13316938654,1,441
114,001,2,recog,73,BUTCHERED,LF,target,right,aqua,imageability,liberal,no,z,1,0.626445807749,3,444
114,001,2,recog,74,BEHIND,HF,target,right,aqua,imageability,liberal,no,z,1,0.719979807269,3,447
114,001,2,recog,75,PHYSICAL,HF,target,right,aqua,imageability,conservative,no,m,0,0.999861789052,-1,446
114,001,2,recog,76,GAPED,LF,lure,-,-,-,conservative,no,m,1,0.746676154435,3,449
114,001,2,recog,77,ACIDITY,LF,target,right,aqua,imageability,conservative,no,z,1,0.65339144785,1,450
114,001,2,recog,78,ERUDITE,LF,target,left,yellow,pleasantness,liberal,no,z,1,1.226454093,3,453
114,001,2,recog,79,MOVED,HF,target,right,aqua,imageability,conservative,no,z,1,0.720017934451,1,454
114,001,2,recog,80,SECOND,HF,lure,-,-,-,conservative,no,m,1,0.653397313668,3,457
114,001,2,recog,81,TURNED,HF,lure,-,-,-,liberal,no,m,1,0.826606088551,1,458
114,001,2,recog,82,HIGHER,HF,target,right,aqua,imageability,liberal,no,z,1,0.693348716246,3,461
114,001,2,recog,83,BEECHES,LF,lure,-,-,-,liberal,no,m,1,0.6000981041,1,462
114,001,2,recog,84,CANNOT,HF,lure,-,-,-,liberal,no,m,1,0.666653468739,1,463
114,001,2,recog,85,MENFOLK,LF,target,left,yellow,pleasantness,liberal,no,z,1,0.586794656585,3,466
114,001,2,recog,86,EFFECT,HF,lure,-,-,-,liberal,no,m,1,0.720013535116,1,467
114,001,2,recog,87,SNIGGERED,LF,target,left,yellow,pleasantness,conservative,yes,m,0,0.959945214214,-1,466
114,001,2,recog,88,WRONG,HF,target,left,yellow,pleasantness,liberal,no,z,1,1.013242224,3,469
114,001,2,recog,89,GREATER,HF,target,left,yellow,pleasantness,liberal,no,z,1,1.98617487028,3,472
114,001,2,recog,90,ALMOST,HF,target,left,yellow,pleasantness,conservative,no,m,0,1.6527619831,-1,471
114,001,2,recog,91,BEYOND,HF,target,left,yellow,pleasantness,liberal,no,z,1,2.0661583289,3,474
114,001,2,recog,92,HOMESTEAD,LF,target,right,aqua,imageability,liberal,no,z,1,0.693354215357,3,477
114,001,2,recog,93,APPEARED,HF,lure,-,-,-,conservative,no,m,1,1.14651975979,3,480
114,001,2,recog,94,FEIGNED,LF,lure,-,-,-,conservative,no,m,1,0.719746645074,3,483
114,001,2,recog,95,DUSTER,LF,lure,-,-,-,liberal,no,z,0,1.13326103834,-1,482
114,001,3,source,0,BULBOUS,LF,target,right,aqua,imageability,conservative,no,2,0,1.79959042626,-,-
114,001,3,source,1,WALKED,HF,target,right,aqua,imageability,conservative,no,8,1,1.78626571549,-,-
114,001,3,source,2,UNLESS,HF,target,left,yellow,pleasantness,liberal,yes,8,0,0.853270174237,-,-
114,001,3,source,3,MUGGING,LF,target,right,aqua,imageability,conservative,no,9,1,1.22651385004,-,-
114,001,3,source,4,SYSTEM,HF,target,left,yellow,pleasantness,liberal,no,9,0,1.06653043535,-,-
114,001,3,source,5,ENTIRELY,HF,target,left,yellow,pleasantness,liberal,no,2,1,1.26653087535,-,-
114,001,3,source,6,SCRABBLE,LF,target,left,yellow,pleasantness,conservative,no,1,1,1.23989685136,-,-
114,001,3,source,7,ANVIL,LF,target,right,aqua,imageability,conservative,no,1,0,1.11989453435,-,-
114,001,3,source,8,SAYING,HF,target,left,yellow,pleasantness,liberal,no,2,1,1.1731699144,-,-
114,001,3,source,9,EQUALLED,LF,target,left,yellow,pleasantness,liberal,no,1,1,1.0665458329,-,-
114,001,3,source,10,DEVELOPED,HF,target,right,aqua,imageability,liberal,no,9,1,1.38619811321,-,-
114,001,3,source,11,SEQUEL,LF,target,right,aqua,imageability,liberal,yes,9,1,0.799963632482,-,-
114,001,3,source,12,URBANE,LF,target,right,aqua,imageability,liberal,no,2,0,1.90596521483,-,-
114,001,3,source,13,SIPHON,LF,target,left,yellow,pleasantness,liberal,no,1,1,0.866619814187,-,-
114,001,3,source,14,ENCLOSE,LF,target,right,aqua,imageability,liberal,no,9,1,1.51960066194,-,-
114,001,3,source,15,HUMAN,HF,target,left,yellow,pleasantness,conservative,no,1,1,1.01323489193,-,-
114,001,3,source,16,ADDED,HF,target,right,aqua,imageability,liberal,no,8,1,1.39974755421,-,-
114,001,3,source,17,UNTIL,HF,target,right,aqua,imageability,conservative,no,9,1,1.81331877166,-,-
114,001,3,source,18,HUSBAND,HF,target,right,aqua,imageability,liberal,no,9,1,1.09324914555,-,-
114,001,3,source,19,RECENT,HF,target,right,aqua,imageability,liberal,no,7,1,1.27973093954,-,-
114,001,3,source,20,TRADE,HF,target,right,aqua,imageability,liberal,no,3,0,2.42579757259,-,-
114,001,3,source,21,HOURS,HF,target,left,yellow,pleasantness,conservative,no,1,1,2.06618729094,-,-
114,001,3,source,22,FOUND,HF,target,right,aqua,imageability,conservative,no,1,0,1.13318625046,-,-
114,001,3,source,23,TALKING,HF,target,right,aqua,imageability,conservative,no,8,1,1.97292274772,-,-
114,001,3,source,24,CHIEF,HF,target,left,yellow,pleasantness,liberal,no,1,1,1.11963607627,-,-
114,001,3,source,25,CUCKOO,LF,target,right,aqua,imageability,liberal,no,9,1,1.26648174995,-,-
114,001,3,source,26,ENOUGH,HF,target,right,aqua,imageability,conservative,no,7,1,1.63971442764,-,-
114,001,3,source,27,OUTSIDE,HF,target,left,yellow,pleasantness,conservative,no,3,1,1.75935893576,-,-
114,001,3,source,28,WICKEDLY,LF,target,right,aqua,imageability,conservative,no,9,1,1.37311059737,-,-
114,001,3,source,29,DULLED,LF,target,left,yellow,pleasantness,conservative,no,8,0,1.15969819424,-,-
114,001,3,source,30,SUPPORT,HF,target,left,yellow,pleasantness,liberal,no,2,1,1.63965357072,-,-
114,001,3,source,31,CASES,HF,target,right,aqua,imageability,liberal,yes,2,0,0.933185443981,-,-
114,001,3,source,32,YEARN,LF,target,right,aqua,imageability,conservative,no,3,0,1.93287346105,-,-
114,001,3,source,33,PAMPERED,LF,target,left,yellow,pleasantness,liberal,no,1,1,1.7594718507,-,-
114,001,3,source,34,REUNITED,LF,target,right,aqua,imageability,liberal,no,8,1,2.03946198174,-,-
114,001,3,source,35,DRYER,LF,target,left,yellow,pleasantness,liberal,no,1,1,1.26648614928,-,-
114,001,3,source,36,SILENCER,LF,target,right,aqua,imageability,liberal,no,9,1,1.43976091337,-,-
114,001,3,source,37,CIRCUSES,LF,target,left,yellow,pleasantness,conservative,yes,9,0,0.613385054399,-,-
114,001,3,source,38,DUPLICITY,LF,target,left,yellow,pleasantness,liberal,no,9,0,1.77306785097,-,-
114,001,3,source,39,CODING,LF,target,left,yellow,pleasantness,liberal,no,1,1,1.03988358018,-,-
114,001,3,source,40,LUNACY,LF,target,left,yellow,pleasantness,conservative,no,1,1,0.826627351693,-,-
114,001,3,source,41,FAUCET,LF,target,left,yellow,pleasantness,conservative,no,1,1,0.773340973421,-,-
114,001,3,source,42,CLOSE,HF,target,left,yellow,pleasantness,conservative,no,2,1,1.42623750144,-,-
114,001,3,source,43,MOTHER,HF,target,left,yellow,pleasantness,conservative,no,1,1,0.906434472301,-,-
114,001,3,source,44,AEONS,LF,target,left,yellow,pleasantness,conservative,no,2,1,1.03986818262,-,-
114,001,3,source,45,ESCALATED,LF,target,right,aqua,imageability,conservative,no,9,1,1.11965990567,-,-
114,001,3,source,46,COUNCIL,HF,target,left,yellow,pleasantness,conservative,no,2,1,1.54611480527,-,-
114,001,3,source,47,INTEREST,HF,target,right,aqua,imageability,conservative,no,8,1,1.26649421465,-,-
114,001,3,recog,0,AMALGAM,LF,lure,-,-,-,liberal,no,m,1,1.17332168983,1,483
114,001,3,recog,1,AROUND,HF,lure,-,-,-,conservative,no,m,1,1.39985093742,3,486
114,001,3,recog,2,ANVIL,LF,target,right,aqua,imageability,conservative,no,z,1,0.746445924975,1,487
114,001,3,recog,3,LICENSING,LF,lure,-,-,-,liberal,no,m,1,1.02653613989,1,488
114,001,3,recog,4,RECENT,HF,target,right,aqua,imageability,liberal,yes,z,1,0.893326426507,3,491
114,001,3,recog,5,CUISINE,LF,lure,-,-,-,liberal,no,m,1,0.853294736939,1,492
114,001,3,recog,6,FLAGGED,LF,lure,-,-,-,conservative,no,m,1,1.4930747872,3,495
114,001,3,recog,7,CUCKOO,LF,target,right,aqua,imageability,liberal,no,z,1,0.799767497578,3,498
114,001,3,recog,8,SCRABBLE,LF,target,left,yellow,pleasantness,conservative,no,z,1,0.840005587088,1,499
114,001,3,recog,9,ADDED,HF,target,right,aqua,imageability,liberal,no,z,1,0.653317026561,3,502
114,001,3,recog,10,MYRIADS,LF,lure,-,-,-,conservative,no,m,1,0.68022343982,3,505
114,001,3,recog,11,DRINK,HF,lure,-,-,-,liberal,no,m,1,0.693110054708,1,506
114,001,3,recog,12,ROLLERS,LF,lure,-,-,-,liberal,no,z,0,1.15958674543,-1,505
114,001,3,recog,13,TRADE,HF,target,right,aqua,imageability,liberal,no,z,1,0.626744226087,3,508
114,001,3,recog,14,PONCE,LF,lure,-,-,-,liberal,no,m,1,0.826667678426,1,509
114,001,3,recog,15,REUNITED,LF,target,right,aqua,imageability,liberal,no,z,1,0.760041558533,3,512
114,001,3,recog,16,EGGSHELL,LF,lure,-,-,-,conservative,no,m,1,0.626696200576,3,515
114,001,3,recog,17,OUTSIDE,HF,target,left,yellow,pleasantness,conservative,no,z,1,0.813334535807,1,516
114,001,3,recog,18,HUSBAND,HF,target,right,aqua,imageability,liberal,no,z,1,0.613356825546,3,519
114,001,3,recog,19,DEVELOPED,HF,target,right,aqua,imageability,liberal,no,z,1,0.640000014566,3,522
114,001,3,recog,20,DIETING,LF,lure,-,-,-,liberal,yes,z,0,0.706692857086,-1,521
114,001,3,recog,21,INSIDE,HF,lure,-,-,-,liberal,no,m,1,1.03960055928,1,522
114,001,3,recog,22,CIRCUSES,LF,target,left,yellow,pleasantness,conservative,no,z,1,0.800068115583,1,523
114,001,3,recog,23,ESCALATED,LF,target,right,aqua,imageability,conservative,no,z,1,1.21329068951,1,524
114,001,3,recog,24,SPEAK,HF,lure,-,-,-,conservative,no,m,1,0.853417916922,3,527
114,001,3,recog,25,LOCAL,HF,lure,-,-,-,liberal,no,m,1,1.38642247685,1,528
114,001,3,recog,26,CAGED,LF,lure,-,-,-,conservative,no,m,1,0.853362192633,3,531
114,001,3,recog,27,MEMBERS,HF,lure,-,-,-,liberal,no,m,1,1.17318824481,1,532
114,001,3,recog,28,THING,HF,lure,-,-,-,conservative,no,m,1,0.733272256446,3,535
114,001,3,recog,29,EQUALLED,LF,target,left,yellow,pleasantness,liberal,no,z,1,0.946578710224,3,538
114,001,3,recog,30,CLOSE,HF,target,left,yellow,pleasantness,conservative,no,z,1,0.799990394968,1,539
114,001,3,recog,31,NEITHER,HF,lure,-,-,-,conservative,no,m,1,0.693492426304,3,542
114,001,3,recog,32,AEONS,LF,target,left,yellow,pleasantness,conservative,no,z,1,0.693337718025,1,543
114,001,3,recog,33,FORCE,HF,lure,-,-,-,liberal,no,m,1,0.800031454884,1,544
114,001,3,recog,34,ENTIRELY,HF,target,left,yellow,pleasantness,liberal,no,m,0,1.95948622189,-3,541
114,001,3,recog,35,SIPHON,LF,target,left,yellow,pleasantness,liberal,no,z,1,0.76002286165,3,544
114,001,3,recog,36,SEQUEL,LF,target,right,aqua,imageability,liberal,no,z,1,0.826637250138,3,547
114,001,3,recog,37,CHEEKBONE,LF,lure,-,-,-,liberal,no,m,1,0.906384980306,1,548
114,001,3,recog,38,LUNACY,LF,target,left,yellow,pleasantness,conservative,no,z,1,0.693359714351,1,549
114,001,3,recog,39,AGATE,LF,lure,-,-,-,liberal,no,m,1,0.693427170161,1,550
114,001,3,recog,40,ABLAZE,LF,lure,-,-,-,conservative,no,m,1,0.653502896545,3,553
114,001,3,recog,41,ACROSS,HF,lure,-,-,-,conservative,no,m,1,1.65298231412,3,556
114,001,3,recog,42,CASES,HF,target,right,aqua,imageability,liberal,no,z,1,0.839993489091,3,559
114,001,3,recog,43,SUPPORT,HF,target,left,yellow,pleasantness,liberal,no,m,0,0.893196647405,-3,556
114,001,3,recog,44,DUPLICITY,LF,target,left,yellow,pleasantness,liberal,no,z,1,0.680025105248,3,559
114,001,3,recog,45,WALKED,HF,target,right,aqua,imageability,conservative,no,z,1,2.31939272222,1,560
114,001,3,recog,46,TODAY,HF,lure,-,-,-,liberal,no,m,1,0.746671388508,1,561
114,001,3,recog,47,ENOUGH,HF,target,right,aqua,imageability,conservative,no,z,1,0.76012184564,1,562
114,001,3,recog,48,DULLED,LF,target,left,yellow,pleasantness,conservative,no,z,1,0.666679497925,1,563
114,001,3,recog,49,SILENCER,LF,target,right,aqua,imageability,liberal,no,z,1,0.600069875363,3,566
114,001,3,recog,50,OPENED,HF,lure,-,-,-,liberal,no,z,0,0.600061443402,-1,565
114,001,3,recog,51,CODING,LF,target,left,yellow,pleasantness,liberal,no,z,1,0.639822210069,3,568
114,001,3,recog,52,HERSELF,HF,lure,-,-,-,liberal,no,m,1,0.813370829914,1,569
114,001,3,recog,53,PARENTS,HF,lure,-,-,-,liberal,no,m,1,1.61299278447,1,570
114,001,3,recog,54,VAULTED,LF,lure,-,-,-,conservative,no,m,1,0.653410511557,3,573
114,001,3,recog,55,UNLESS,HF,target,left,yellow,pleasantness,liberal,no,m,0,1.173139486,-3,570
114,001,3,recog,56,SAYING,HF,target,left,yellow,pleasantness,liberal,no,z,1,0.866600017413,3,573
114,001,3,recog,57,ROUND,HF,lure,-,-,-,liberal,no,z,0,0.906606044504,-1,572
114,001,3,recog,58,WHATEVER,HF,lure,-,-,-,liberal,no,m,1,0.813312905957,1,573
114,001,3,recog,59,ENCLOSE,LF,target,right,aqua,imageability,liberal,no,z,1,1.5596811102,3,576
114,001,3,recog,60,SYSTEM,HF,target,left,yellow,pleasantness,liberal,no,z,1,0.706597539131,3,579
114,001,3,recog,61,SWEARS,LF,lure,-,-,-,conservative,no,m,1,0.560110407532,3,582
114,001,3,recog,62,PAMPERED,LF,target,left,yellow,pleasantness,liberal,no,z,1,0.60005777725,3,585
114,001,3,recog,63,AEROSOL,LF,lure,-,-,-,liberal,no,m,1,1.07982618408,1,586
114,001,3,recog,64,FAUCET,LF,target,left,yellow,pleasantness,conservative,no,z,1,0.733072088915,1,587
114,001,3,recog,65,TAWNY,LF,lure,-,-,-,conservative,no,m,1,0.626850908855,3,590
114,001,3,recog,66,COUNCIL,HF,target,left,yellow,pleasantness,conservative,no,z,1,0.613331162953,1,591
114,001,3,recog,67,DRYER,LF,target,left,yellow,pleasantness,liberal,no,z,1,0.719797236845,3,594
114,001,3,recog,68,TWENTY,HF,lure,-,-,-,conservative,no,m,1,0.693369246204,3,597
114,001,3,recog,69,HOURS,HF,target,left,yellow,pleasantness,conservative,no,z,1,0.746631794958,1,598
114,001,3,recog,70,HUMAN,HF,target,left,yellow,pleasantness,conservative,no,z,1,0.626819380675,1,599
114,001,3,recog,71,AREAS,HF,lure,-,-,-,conservative,no,m,1,0.719779273029,3,602
114,001,3,recog,72,MUGGING,LF,target,right,aqua,imageability,conservative,yes,m,0,0.81330887333,-1,601
114,001,3,recog,73,FOUND,HF,target,right,aqua,imageability,conservative,no,z,1,2.10611009807,1,602
114,001,3,recog,74,TAKEN,HF,lure,-,-,-,conservative,no,m,1,0.813336002175,3,605
114,001,3,recog,75,BEGAN,HF,lure,-,-,-,conservative,no,m,1,0.866600384004,3,608
114,001,3,recog,76,TALKING,HF,target,right,aqua,imageability,conservative,no,m,0,1.35972136375,-1,607
114,001,3,recog,77,FREEDOM,HF,lure,-,-,-,conservative,no,m,1,0.986545510357,3,610
114,001,3,recog,78,UNTIL,HF,target,right,aqua,imageability,conservative,no,z,1,0.680048201466,1,611
114,001,3,recog,79,MOUTH,HF,lure,-,-,-,conservative,yes,m,1,0.959889123216,3,614
114,001,3,recog,80,INTEREST,HF,target,right,aqua,imageability,conservative,no,z,1,2.86566333566,1,615
114,001,3,recog,81,BULBOUS,LF,target,right,aqua,imageability,conservative,no,z,1,0.760095449863,1,616
114,001,3,recog,82,MADDENED,LF,lure,-,-,-,conservative,no,m,1,1.05335090111,3,619
114,001,3,recog,83,OXIDE,LF,lure,-,-,-,conservative,no,m,1,0.879947824404,3,622
114,001,3,recog,84,MOTHER,HF,target,left,yellow,pleasantness,conservative,no,z,1,0.626758157159,1,623
114,001,3,recog,85,SANDAL,LF,lure,-,-,-,liberal,no,m,1,0.786404293147,1,624
114,001,3,recog,86,UNWARY,LF,lure,-,-,-,liberal,no,m,1,0.813310339698,1,625
114,001,3,recog,87,CHIEF,HF,target,left,yellow,pleasantness,liberal,no,z,1,0.680024005356,3,628
114,001,3,recog,88,PILGRIM,LF,lure,-,-,-,conservative,no,m,1,0.65336871834,3,631
114,001,3,recog,89,YEARN,LF,target,right,aqua,imageability,conservative,no,z,1,0.773459021002,1,632
114,001,3,recog,90,EJECTED,LF,lure,-,-,-,liberal,no,m,1,0.666754652513,1,633
114,001,3,recog,91,HACKNEY,LF,lure,-,-,-,conservative,no,m,1,0.799922939157,3,636
114,001,3,recog,92,NECESSARY,HF,lure,-,-,-,liberal,no,m,1,0.799976830371,1,637
114,001,3,recog,93,WICKEDLY,LF,target,right,aqua,imageability,conservative,no,z,1,0.879908597446,1,638
114,001,3,recog,94,BLACK,HF,lure,-,-,-,conservative,no,m,1,0.666477130726,3,641
114,001,3,recog,95,URBANE,LF,target,right,aqua,imageability,liberal,no,z,1,0.813309239922,3,644
114,001,4,source,0,BENIGNLY,LF,target,left,yellow,pleasantness,liberal,no,2,1,1.45305886178,-,-
114,001,4,source,1,REPORT,HF,target,right,aqua,imageability,conservative,no,8,1,1.31978939136,-,-
114,001,4,source,2,FAMILY,HF,target,right,aqua,imageability,conservative,no,9,1,0.919918657164,-,-
114,001,4,source,3,PUMPKIN,LF,target,right,aqua,imageability,liberal,no,9,1,0.74666992214,-,-
114,001,4,source,4,KIDNAP,LF,target,left,yellow,pleasantness,conservative,no,9,0,1.75937909912,-,-
114,001,4,source,5,NAUGHT,LF,target,left,yellow,pleasantness,conservative,no,8,0,1.57308097545,-,-
114,001,4,source,6,COACHED,LF,target,right,aqua,imageability,conservative,yes,8,1,0.760041192058,-,-
114,001,4,source,7,SPOKE,HF,target,left,yellow,pleasantness,conservative,no,1,1,1.53278092935,-,-
114,001,4,source,8,BAPTIZED,LF,target,left,yellow,pleasantness,liberal,no,1,1,0.773351971642,-,-
114,001,4,source,9,LATER,HF,target,right,aqua,imageability,conservative,no,2,0,0.919921223423,-,-
114,001,4,source,10,ZOOLOGY,LF,target,left,yellow,pleasantness,liberal,no,1,1,0.786668250337,-,-
114,001,4,source,11,THYROID,LF,target,left,yellow,pleasantness,liberal,no,1,1,0.839994588867,-,-
114,001,4,source,12,NATIONAL,HF,target,left,yellow,pleasantness,conservative,no,2,1,1.7729358722,-,-
114,001,4,source,13,TERMS,HF,target,right,aqua,imageability,liberal,no,9,1,1.34645237739,-,-
114,001,4,source,14,LOITERING,LF,target,right,aqua,imageability,liberal,no,9,1,0.826596190105,-,-
114,001,4,source,15,EVIDENCE,HF,target,left,yellow,pleasantness,conservative,no,9,0,0.760002331575,-,-
114,001,4,source,16,ATONEMENT,LF,target,left,yellow,pleasantness,conservative,no,2,1,1.53303388844,-,-
114,001,4,source,17,RELAXES,LF,target,right,aqua,imageability,conservative,no,9,1,1.10648623726,-,-
114,001,4,source,18,AGNOSTIC,LF,target,right,aqua,imageability,liberal,no,9,1,1.47967088933,-,-
114,001,4,source,19,SLEEP,HF,target,right,aqua,imageability,liberal,no,9,1,0.719955611159,-,-
114,001,4,source,20,NEMESIS,LF,target,right,aqua,imageability,conservative,no,1,0,1.7196894543,-,-
114,001,4,source,21,ECONOMIC,HF,target,right,aqua,imageability,liberal,no,8,1,1.74626885378,-,-
114,001,4,source,22,RESEARCH,HF,target,right,aqua,imageability,liberal,no,8,1,1.22651128378,-,-
114,001,4,source,23,MORNING,HF,target,left,yellow,pleasantness,conservative,no,1,1,1.46638723847,-,-
114,001,4,source,24,SCABS,LF,target,right,aqua,imageability,conservative,yes,2,0,0.613348026993,-,-
114,001,4,source,25,COVER,HF,target,left,yellow,pleasantness,liberal,no,3,1,1.74606025417,-,-
114,001,4,source,26,FUTURE,HF,target,right,aqua,imageability,conservative,no,2,0,1.3994344715,-,-
114,001,4,source,27,POTASH,LF,target,left,yellow,pleasantness,liberal,yes,2,1,1.09313953004,-,-
114,001,4,source,28,INHABITS,LF,target,right,aqua,imageability,conservative,no,3,0,1.54637472983,-,-
114,001,4,source,29,CADDIE,LF,target,right,aqua,imageability,liberal,no,1,0,1.43975724722,-,-
114,001,4,source,30,FOCUSES,LF,target,right,aqua,imageability,liberal,no,2,0,1.50615203788,-,-
114,001,4,source,31,GETTING,HF,target,left,yellow,pleasantness,liberal,no,2,1,2.38600307808,-,-
114,001,4,source,32,WHOLE,HF,target,right,aqua,imageability,liberal,no,8,1,1.06651027198,-,-
114,001,4,source,33,DOCTOR,HF,target,left,yellow,pleasantness,liberal,no,1,1,1.63965613698,-,-
114,001,4,source,34,ABOVE,HF,target,left,yellow,pleasantness,liberal,no,1,1,1.5994037498,-,-
114,001,4,source,35,BELIEVE,HF,target,left,yellow,pleasantness,liberal,no,8,0,2.3993307217,-,-
114,001,4,source,36,HAPPEN,HF,target,right,aqua,imageability,conservative,no,9,1,1.43951125373,-,-
114,001,4,source,37,AMICABLY,LF,target,left,yellow,pleasantness,conservative,no,1,1,1.43976274633,-,-
114,001,4,source,38,SOVIET,HF,target,left,yellow,pleasantness,conservative,no,1,1,0.746695218026,-,-
114,001,4,source,39,KILOWATT,LF,target,left,yellow,pleasantness,conservative,no,8,0,1.89287843229,-,-
114,001,4,source,40,PAUNCH,LF,target,left,yellow,pleasantness,liberal,no,3,1,2.31944478047,-,-
114,001,4,source,41,FIGURE,HF,target,left,yellow,pleasantness,liberal,no,7,0,1.33309613843,-,-
114,001,4,source,42,UPSTART,LF,target,right,aqua,imageability,liberal,no,7,1,1.75941905938,-,-
114,001,4,source,43,DIZZINESS,LF,target,right,aqua,imageability,conservative,no,8,1,1.26646488602,-,-
114,001,4,source,44,DAUGHTER,HF,target,right,aqua,imageability,conservative,yes,8,1,0.839975158684,-,-
114,001,4,source,45,ALLOWED,HF,target,right,aqua,imageability,liberal,no,7,1,1.57300618768,-,-
114,001,4,source,46,POLICE,HF,target,left,yellow,pleasantness,conservative,no,1,1,1.87958744948,-,-
114,001,4,source,47,ANEMONES,LF,target,left,yellow,pleasantness,conservative,no,1,1,1.50636760308,-,-
114,001,4,recog,0,LOITERING,LF,target,right,aqua,imageability,liberal,no,z,1,1.11964817427,3,647
114,001,4,recog,1,MORNING,HF,target,left,yellow,pleasantness,conservative,no,z,1,0.853296203306,1,648
114,001,4,recog,2,PLEASE,HF,lure,-,-,-,liberal,no,m,1,0.83995756146,1,649
114,001,4,recog,3,MAKES,HF,lure,-,-,-,liberal,no,m,1,0.626684835763,1,650
114,001,4,recog,4,YOUNG,HF,lure,-,-,-,liberal,no,m,1,0.746615664335,1,651
114,001,4,recog,5,PAUNCH,LF,target,left,yellow,pleasantness,liberal,no,z,1,0.639824776328,3,654
114,001,4,recog,6,RESEARCH,HF,target,right,aqua,imageability,liberal,no,z,1,0.61346534139,3,657
114,001,4,recog,7,SAVOURED,LF,lure,-,-,-,liberal,no,m,1,0.919909125427,1,658
114,001,4,recog,8,MUSIC,HF,lure,-,-,-,conservative,no,m,1,0.613384687691,3,661
114,001,4,recog,9,CERTAIN,HF,lure,-,-,-,conservative,no,m,1,1.0265530037,3,664
114,001,4,recog,10,FAMILY,HF,target,right,aqua,imageability,conservative,no,z,1,0.626718197018,1,665
114,001,4,recog,11,UNBEATEN,LF,lure,-,-,-,conservative,no,m,1,0.693246799288,3,668
114,001,4,recog,12,HAVING,HF,lure,-,-,-,conservative,no,m,1,1.132956021,3,671
114,001,4,recog,13,COVER,HF,target,left,yellow,pleasantness,liberal,no,z,1,0.599897569977,3,674
114,001,4,recog,14,SOCIAL,HF,lure,-,-,-,conservative,no,m,1,0.7200142683,3,677
114,001,4,recog,15,ZOOLOGY,LF,target,left,yellow,pleasantness,liberal,no,z,1,0.666830906761,3,680
114,001,4,recog,16,REPORT,HF,target,right,aqua,imageability,conservative,no,m,0,1.75932777405,-1,679
114,001,4,recog,17,AMICABLY,LF,target,left,yellow,pleasantness,conservative,no,z,1,0.67970505706,1,680
114,001,4,recog,18,BANALITY,LF,lure,-,-,-,conservative,no,m,1,0.97321383399,3,683
114,001,4,recog,19,DEPARTS,LF,lure,-,-,-,conservative,no,m,1,1.1597799476,3,686
114,001,4,recog,20,KILOWATT,LF,target,left,yellow,pleasantness,conservative,no,z,1,0.866667473223,1,687
114,001,4,recog,21,ACTION,HF,lure,-,-,-,conservative,no,m,1,0.719951211824,3,690
114,001,4,recog,22,DIZZINESS,LF,target,right,aqua,imageability,conservative,no,z,1,0.706477291998,1,691
114,001,4,recog,23,FIGURE,HF,target,left,yellow,pleasantness,liberal,no,z,1,1.15998084843,3,694
114,001,4,recog,24,PIECE,HF,lure,-,-,-,conservative,no,m,1,0.760022494942,3,697
114,001,4,recog,25,SERIOUS,HF,lure,-,-,-,liberal,no,m,1,0.959916985477,1,698
114,001,4,recog,26,AGNOSTIC,LF,target,right,aqua,imageability,liberal,no,z,1,0.706431099446,3,701
114,001,4,recog,27,LATER,HF,target,right,aqua,imageability,conservative,no,z,1,0.91971189063,1,702
114,001,4,recog,28,MONEY,HF,lure,-,-,-,liberal,no,m,1,0.720020500594,1,703
114,001,4,recog,29,THYROID,LF,target,left,yellow,pleasantness,liberal,no,z,1,0.560079979012,3,706
114,001,4,recog,30,PUMPKIN,LF,target,right,aqua,imageability,liberal,no,z,1,0.773442890262,3,709
114,001,4,recog,31,HAPPEN,HF,target,right,aqua,imageability,conservative,no,z,1,1.50638373382,1,710
114,001,4,recog,32,TOTAL,HF,lure,-,-,-,liberal,no,m,1,1.19985819631,1,711
114,001,4,recog,33,INHABITS,LF,target,right,aqua,imageability,conservative,no,z,1,0.760013329796,1,712
114,001,4,recog,34,DAWDLING,LF,lure,-,-,-,conservative,no,m,1,0.7999255053,3,715
114,001,4,recog,35,TORMENTS,LF,lure,-,-,-,liberal,no,m,1,0.906636472908,1,716
114,001,4,recog,36,AFOOT,LF,lure,-,-,-,conservative,no,m,1,0.706413868815,3,719
114,001,4,recog,37,JAMMING,LF,lure,-,-,-,liberal,no,m,1,0.853293637163,1,720
114,001,4,recog,38,POLICE,HF,target,left,yellow,pleasantness,conservative,no,z,1,0.60010616947,1,721
114,001,4,recog,39,BAPTIZED,LF,target,left,yellow,pleasantness,liberal,no,z,1,0.666786180576,3,724
114,001,4,recog,40,GETTING,HF,target,left,yellow,pleasantness,liberal,no,z,1,0.706633833353,3,727
114,001,4,recog,41,LEARN,HF,lure,-,-,-,liberal,no,m,1,0.986602334422,1,728
114,001,4,recog,42,POTASH,LF,target,left,yellow,pleasantness,liberal,no,m,0,1.70637500857,-3,725
114,001,4,recog,43,PICTURE,HF,lure,-,-,-,conservative,no,m,1,1.43974918197,3,728
114,001,4,recog,44,NATIONAL,HF,target,left,yellow,pleasantness,conservative,no,z,1,1.19980613806,1,729
114,001,4,recog,45,MEETING,HF,lure,-,-,-,conservative,no,z,0,0.75997226988,-3,726
114,001,4,recog,46,UPSTART,LF,target,right,aqua,imageability,liberal,no,z,1,0.733181704534,3,729
114,001,4,recog,47,GNOMES,LF,lure,-,-,-,liberal,no,m,1,0.853298036382,1,730
114,001,4,recog,48,KIDNAP,LF,target,left,yellow,pleasantness,conservative,no,z,1,0.666774449171,1,731
114,001,4,recog,49,COACHED,LF,target,right,aqua,imageability,conservative,no,z,1,0.653345622122,1,732
114,001,4,recog,50,LARGE,HF,lure,-,-,-,liberal,no,m,1,0.72000620293,1,733
114,001,4,recog,51,BENIGNLY,LF,target,left,yellow,pleasantness,liberal,no,z,1,1.66628612822,3,736
114,001,4,recog,52,DEMEANOUR,LF,lure,-,-,-,conservative,no,m,1,0.640053905896,3,739
114,001,4,recog,53,NEMESIS,LF,target,right,aqua,imageability,conservative,no,z,1,0.839967826498,1,740
114,001,4,recog,54,REQUIRED,HF,lure,-,-,-,liberal,no,m,1,2.37269999715,1,741
114,001,4,recog,55,TERMS,HF,target,right,aqua,imageability,liberal,no,m,0,0.76006062224,-3,738
114,001,4,recog,56,AVAILABLE,HF,lure,-,-,-,liberal,no,m,1,0.933236402343,1,739
114,001,4,recog,57,JOLLITY,LF,lure,-,-,-,liberal,yes,z,0,0.813344434253,-1,738
114,001,4,recog,58,FUTURE,HF,target,right,aqua,imageability,conservative,no,z,1,1.73292691237,1,739
114,001,4,recog,59,SPOKE,HF,target,left,yellow,pleasantness,conservative,no,z,1,0.653354787268,1,740
114,001,4,recog,60,BELIEVE,HF,target,left,yellow,pleasantness,liberal,no,z,1,0.68002547184,3,743
114,001,4,recog,61,ALLOWED,HF,target,right,aqua,imageability,liberal,no,z,1,0.573240449652,3,746
114,001,4,recog,62,DOCTOR,HF,target,left,yellow,pleasantness,liberal,no,z,1,0.533403428621,3,749
114,001,4,recog,63,ABOVE,HF,target,left,yellow,pleasantness,liberal,no,z,1,0.560088410974,3,752
114,001,4,recog,64,RELAXES,LF,target,right,aqua,imageability,conservative,no,z,1,0.640086533967,1,753
114,001,4,recog,65,REJOICED,LF,lure,-,-,-,conservative,no,m,1,1.6263321595,3,756
114,001,4,recog,66,ATONEMENT,LF,target,left,yellow,pleasantness,conservative,no,m,0,1.49298276869,-1,755
114,001,4,recog,67,EVOCATION,LF,lure,-,-,-,conservative,no,m,1,0.826616720064,3,758
114,001,4,recog,68,PROBABLY,HF,lure,-,-,-,liberal,no,z,0,0.760004531243,-1,757
114,001,4,recog,69,ALONE,HF,lure,-,-,-,conservative,no,m,1,1.07981481927,3,760
114,001,4,recog,70,OLDER,HF,lure,-,-,-,liberal,no,z,0,0.706640065648,-1,759
114,001,4,recog,71,SOVIET,HF,target,left,yellow,pleasantness,conservative,no,z,1,0.959974909434,1,760
114,001,4,recog,72,HIPPY,LF,lure,-,-,-,liberal,no,m,1,0.666661900701,1,761
114,001,4,recog,73,NAUGHT,LF,target,left,yellow,pleasantness,conservative,no,m,0,1.22638957016,-1,760
114,001,4,recog,74,FEUDALISM,LF,lure,-,-,-,liberal,no,m,1,0.919747818145,1,761
114,001,4,recog,75,STAFF,HF,lure,-,-,-,conservative,no,m,1,0.813278811518,3,764
114,001,4,recog,76,WIZENED,LF,lure,-,-,-,conservative,no,m,1,1.77294723724,3,767
114,001,4,recog,77,SCABS,LF,target,right,aqua,imageability,conservative,no,z,1,1.06654436642,1,768
114,001,4,recog,78,FOCUSES,LF,target,right,aqua,imageability,liberal,no,m,0,1.55968404305,-3,765
114,001,4,recog,79,EVIDENCE,HF,target,left,yellow,pleasantness,conservative,no,m,0,0.999857389717,-1,764
114,001,4,recog,80,WHOLE,HF,target,right,aqua,imageability,liberal,yes,z,1,0.653509495431,3,767
114,001,4,recog,81,SIBLINGS,LF,lure,-,-,-,conservative,no,m,1,0.853300235933,3,770
114,001,4,recog,82,WESTERN,HF,lure,-,-,-,conservative,no,m,1,0.68005773332,3,773
114,001,4,recog,83,GRUBS,LF,lure,-,-,-,liberal,no,m,1,0.973092486965,1,774
114,001,4,recog,84,ANEMONES,LF,target,left,yellow,pleasantness,conservative,no,z,1,0.759827093338,1,775
114,001,4,recog,85,CADDIE,LF,target,right,aqua,imageability,liberal,no,z,1,0.840023917495,3,778
114,001,4,recog,86,KENNEL,LF,lure,-,-,-,liberal,no,m,1,0.640017245198,1,779
114,001,4,recog,87,SACRAMENT,LF,lure,-,-,-,liberal,yes,z,0,0.653341222671,-1,778
114,001,4,recog,88,VEILING,LF,lure,-,-,-,liberal,no,m,1,0.613366723876,1,779
114,001,4,recog,89,MINISTER,HF,lure,-,-,-,conservative,yes,m,1,1.306458815,3,782
114,001,4,recog,90,SKIDDED,LF,lure,-,-,-,liberal,no,m,1,1.09325207851,1,783
114,001,4,recog,91,DETACH,LF,lure,-,-,-,conservative,no,m,1,0.653368718224,3,786
114,001,4,recog,92,DAUGHTER,HF,target,right,aqua,imageability,conservative,no,z,1,0.839932998759,1,787
114,001,4,recog,93,ECONOMIC,HF,target,right,aqua,imageability,liberal,no,z,1,0.706687357975,3,790
114,001,4,recog,94,SLEEP,HF,target,right,aqua,imageability,liberal,no,z,1,1.14659051504,3,793
114,001,4,recog,95,YONDER,LF,lure,-,-,-,conservative,no,m,1,0.613347293809,3,796
