subj,session,cycle,task,trial,item,wf,type,source,colour,encoding,bias,null,response,corr,rt,points,total
115,001,0,source,0,CANNOT,HF,target,left,aqua,imageability,conservative,no,2,1,4.10559281508,-,-
115,001,0,source,1,DAPPER,LF,target,right,yellow,pleasantness,liberal,no,3,0,5.17146922295,-,-
115,001,0,source,2,UMPIRE,LF,target,left,aqua,imageability,liberal,no,1,1,1.9064176083,-,-
115,001,0,source,3,VIVACIOUS,LF,target,right,yellow,pleasantness,conservative,no,2,0,4.8919721789,-,-
115,001,0,source,4,OCCUPANCY,LF,target,left,aqua,imageability,liberal,no,1,1,1.77279656152,-,-
115,001,0,source,5,HAVING,HF,target,left,aqua,imageability,conservative,no,1,1,0.879907497634,-,-
115,001,0,source,6,CORNER,HF,target,left,aqua,imageability,liberal,no,1,1,2.18621637019,-,-
115,001,0,source,7,HALLMARK,LF,target,left,aqua,imageability,conservative,no,1,1,0.893129558304,-,-
115,001,0,source,8,ASSERTIVE,LF,target,right,yellow,pleasantness,liberal,no,8,1,4.61190102775,-,-
115,001,0,source,9,FATHER,HF,target,right,yellow,pleasantness,conservative,no,9,1,2.2392805844,-,-
115,001,0,source,10,COUNCIL,HF,target,right,yellow,pleasantness,liberal,no,9,1,2.65268609539,-,-
115,001,0,source,11,DIFFERENT,HF,target,right,yellow,pleasantness,liberal,no,9,1,3.97200842904,-,-
115,001,0,source,12,DURING,HF,target,left,aqua,imageability,liberal,no,1,1,2.1328889319,-,-
115,001,0,source,13,TALKING,HF,target,left,aqua,imageability,conservative,yes,2,1,1.74666405642,-,-
115,001,0,source,14,FISHY,LF,target,left,aqua,imageability,liberal,no,1,1,3.62575695253,-,-
115,001,0,source,15,FUTURE,HF,target,right,yellow,pleasantness,conservative,no,8,1,6.8911638097,-,-
115,001,0,source,16,FOUND,HF,target,left,aqua,imageability,conservative,no,2,1,2.65244010186,-,-
115,001,0,source,17,BAYING,LF,target,right,yellow,pleasantness,liberal,no,9,1,5.57154672374,-,-
115,001,0,source,18,GUSHED,LF,target,right,yellow,pleasantness,conservative,no,3,0,4.66521086888,-,-
115,001,0,source,19,YEOMAN,LF,target,right,yellow,pleasantness,conservative,no,9,1,2.31923178163,-,-
115,001,0,source,20,HOPPER,LF,target,left,aqua,imageability,conservative,no,3,1,4.35845656839,-,-
115,001,0,source,21,ALDER,LF,target,right,yellow,pleasantness,liberal,no,7,1,2.98563815708,-,-
115,001,0,source,22,SYSTEM,HF,target,left,aqua,imageability,liberal,no,1,1,3.27909707543,-,-
115,001,0,source,23,MACARONI,LF,target,right,yellow,pleasantness,liberal,no,9,1,1.43960840469,-,-
115,001,0,source,24,HUNDRED,HF,target,left,aqua,imageability,conservative,yes,8,0,0.613591820843,-,-
115,001,0,source,25,MYSELF,HF,target,right,yellow,pleasantness,liberal,yes,9,1,0.85340141965,-,-
115,001,0,source,26,INROADS,LF,target,left,aqua,imageability,liberal,no,1,1,2.34614369395,-,-
115,001,0,source,27,MERELY,HF,target,right,yellow,pleasantness,liberal,no,9,1,1.89296678464,-,-
115,001,0,source,28,WATCH,HF,target,left,aqua,imageability,liberal,no,2,1,2.63934378751,-,-
115,001,0,source,29,FUELLED,LF,target,left,aqua,imageability,liberal,no,2,1,1.97309835269,-,-
115,001,0,source,30,HADJI,LF,target,left,aqua,imageability,liberal,no,2,1,1.14674705633,-,-
115,001,0,source,31,SMALL,HF,target,right,yellow,pleasantness,liberal,no,2,0,2.10633446175,-,-
115,001,0,source,32,RUPTURE,LF,target,left,aqua,imageability,conservative,no,1,1,1.97295060992,-,-
115,001,0,source,33,BANALITY,LF,target,left,aqua,imageability,conservative,no,1,1,1.30678656193,-,-
115,001,0,source,34,ASPIRED,LF,target,left,aqua,imageability,conservative,no,2,1,1.87964427356,-,-
115,001,0,source,35,SOMEONE,HF,target,left,aqua,imageability,liberal,no,2,1,0.773459020997,-,-
115,001,0,source,36,INSIDE,HF,target,right,yellow,pleasantness,conservative,no,9,1,2.54583801674,-,-
115,001,0,source,37,WONDROUS,LF,target,left,aqua,imageability,conservative,no,3,1,4.15886086298,-,-
115,001,0,source,38,TRADE,HF,target,left,aqua,imageability,liberal,no,3,1,3.0658580775,-,-
115,001,0,source,39,ANOINTED,LF,target,right,yellow,pleasantness,conservative,no,8,1,3.05232989969,-,-
115,001,0,source,40,LANGUAGE,HF,target,right,yellow,pleasantness,conservative,no,9,1,0.98644176039,-,-
115,001,0,source,41,GETTING,HF,target,left,aqua,imageability,conservative,yes,9,0,0.866654641946,-,-
115,001,0,source,42,SUCCESS,HF,target,right,yellow,pleasantness,conservative,no,9,1,1.67949095836,-,-
115,001,0,source,43,MYRIADS,LF,target,right,yellow,pleasantness,liberal,no,9,1,0.919820772999,-,-
115,001,0,source,44,HAMLETS,LF,target,right,yellow,pleasantness,conservative,no,9,1,0.720144413967,-,-
115,001,0,source,45,PITCHER,LF,target,right,yellow,pleasantness,conservative,no,9,1,1.31996609615,-,-
115,001,0,source,46,PROBABLY,HF,target,right,yellow,pleasantness,conservative,no,8,1,2.27946844867,-,-
115,001,0,source,47,ALMOST,HF,target,right,yellow,pleasantness,liberal,no,8,1,1.18673621941,-,-
115,001,0,recog,0,FUELLED,LF,target,left,aqua,imageability,liberal,no,m,0,2.73292507939,-3,-3
115,001,0,recog,1,VIVACIOUS,LF,target,right,yellow,pleasantness,conservative,no,z,1,3.78557099461,1,-2
115,001,0,recog,2,MYRIADS,LF,target,right,yellow,pleasantness,liberal,no,z,1,1.41309426135,3,1
115,001,0,recog,3,HOPPER,LF,target,left,aqua,imageability,conservative,no,z,1,2.159340752,1,2
115,001,0,recog,4,HUNDRED,HF,target,left,aqua,imageability,conservative,no,z,1,0.893348789499,1,3
115,001,0,recog,5,MAJOR,HF,lure,-,-,-,liberal,no,z,0,5.49142175463,-1,2
115,001,0,recog,6,GETTING,HF,target,left,aqua,imageability,conservative,no,z,1,2.25282049364,1,3
115,001,0,recog,7,SEPULCHRE,LF,lure,-,-,-,conservative,no,m,1,3.21254647665,3,6
115,001,0,recog,8,HALLMARK,LF,target,left,aqua,imageability,conservative,no,z,1,1.11991799727,1,7
115,001,0,recog,9,ASSERTIVE,LF,target,right,yellow,pleasantness,liberal,no,z,1,2.38618674832,3,10
115,001,0,recog,10,SMALL,HF,target,right,yellow,pleasantness,liberal,no,z,1,1.29317846372,3,13
115,001,0,recog,11,NEITHER,HF,lure,-,-,-,liberal,no,m,1,1.3999330575,1,14
115,001,0,recog,12,ORCHARDS,LF,lure,-,-,-,conservative,no,m,1,0.880036176813,3,17
115,001,0,recog,13,BRACES,LF,lure,-,-,-,liberal,no,m,1,2.17322343911,1,18
115,001,0,recog,14,PROBABLY,HF,target,right,yellow,pleasantness,conservative,no,z,1,2.21270595084,1,19
115,001,0,recog,15,GUSHED,LF,target,right,yellow,pleasantness,conservative,no,z,1,1.26635380395,1,20
115,001,0,recog,16,ACTION,HF,lure,-,-,-,conservative,no,m,1,1.66641077474,3,23
115,001,0,recog,17,MARKET,HF,lure,-,-,-,liberal,no,z,0,3.55908757296,-1,22
115,001,0,recog,18,BAYING,LF,target,right,yellow,pleasantness,liberal,no,z,1,1.46649172164,3,25
115,001,0,recog,19,ORDER,HF,lure,-,-,-,liberal,no,z,0,1.63970709539,-1,24
115,001,0,recog,20,TODAY,HF,lure,-,-,-,liberal,no,m,1,1.83942378123,1,25
115,001,0,recog,21,DOUBT,HF,lure,-,-,-,conservative,no,m,1,1.28001322719,3,28
115,001,0,recog,22,DULLED,LF,lure,-,-,-,liberal,no,z,0,1.65323490659,-1,27
115,001,0,recog,23,TALKING,HF,target,left,aqua,imageability,conservative,no,m,0,1.49290138189,-1,26
115,001,0,recog,24,UDDER,LF,lure,-,-,-,conservative,no,m,1,2.61272809393,3,29
115,001,0,recog,25,BYGONE,LF,lure,-,-,-,liberal,no,m,1,1.37296982015,1,30
115,001,0,recog,26,ANOINTED,LF,target,right,yellow,pleasantness,conservative,no,z,1,1.10662591459,1,31
115,001,0,recog,27,TRADE,HF,target,left,aqua,imageability,liberal,yes,z,1,1.69281383605,3,34
115,001,0,recog,28,FRIEND,HF,lure,-,-,-,conservative,no,m,1,3.62550436006,3,37
115,001,0,recog,29,MODERN,HF,lure,-,-,-,liberal,no,m,1,2.6126917998,1,38
115,001,0,recog,30,DURING,HF,target,left,aqua,imageability,liberal,no,z,1,1.31996646276,3,41
115,001,0,recog,31,HAVING,HF,target,left,aqua,imageability,conservative,yes,m,0,1.14673275864,-1,40
115,001,0,recog,32,ASPIRED,LF,target,left,aqua,imageability,conservative,no,z,1,2.06625474665,1,41
115,001,0,recog,33,OCCUPANCY,LF,target,left,aqua,imageability,liberal,no,z,1,0.986793703446,3,44
115,001,0,recog,34,FISHY,LF,target,left,aqua,imageability,liberal,no,z,1,0.653571818747,3,47
115,001,0,recog,35,SYSTEM,HF,target,left,aqua,imageability,liberal,no,z,1,0.666572815185,3,50
115,001,0,recog,36,GLASS,HF,lure,-,-,-,conservative,no,m,1,1.02666481897,3,53
115,001,0,recog,37,AFRAID,HF,lure,-,-,-,liberal,no,m,1,1.06667451206,1,54
115,001,0,recog,38,HYENA,LF,lure,-,-,-,liberal,no,m,1,1.04011234316,1,55
115,001,0,recog,39,SLIGHTLY,HF,lure,-,-,-,liberal,no,m,1,1.29320779231,1,56
115,001,0,recog,40,MIDDLE,HF,lure,-,-,-,conservative,no,m,1,1.1600688342,3,59
115,001,0,recog,41,JOURNEYED,LF,lure,-,-,-,liberal,no,m,1,1.38654382388,1,60
115,001,0,recog,42,YEOMAN,LF,target,right,yellow,pleasantness,conservative,yes,m,0,1.05306604725,-1,59
115,001,0,recog,43,REUNITED,LF,lure,-,-,-,conservative,no,m,1,1.10667430676,3,62
115,001,0,recog,44,INJECT,LF,lure,-,-,-,conservative,no,m,1,0.893184916014,3,65
115,001,0,recog,45,HADJI,LF,target,left,aqua,imageability,liberal,no,z,1,0.840069010168,3,68
115,001,0,recog,46,EIGHT,HF,lure,-,-,-,conservative,no,m,1,0.98644176039,3,71
115,001,0,recog,47,DOTTY,LF,lure,-,-,-,conservative,no,m,1,0.786712243292,3,74
115,001,0,recog,48,UMPIRE,LF,target,left,aqua,imageability,liberal,no,z,1,0.693833004487,3,77
115,001,0,recog,49,CORNER,HF,target,left,aqua,imageability,liberal,no,z,1,0.68018567929,3,80
115,001,0,recog,50,LIFEBOAT,LF,lure,-,-,-,liberal,no,m,1,0.72011215252,1,81
115,001,0,recog,51,ALDER,LF,target,right,yellow,pleasantness,liberal,no,z,1,0.866628979431,3,84
115,001,0,recog,52,LANGUAGE,HF,target,right,yellow,pleasantness,conservative,no,z,1,2.4928020313,1,85
115,001,0,recog,53,MERELY,HF,target,right,yellow,pleasantness,liberal,yes,z,1,1.026666652,3,88
115,001,0,recog,54,CHURCH,HF,lure,-,-,-,conservative,no,m,1,0.999992301246,3,91
115,001,0,recog,55,CRUCIALLY,LF,lure,-,-,-,liberal,no,m,1,1.50624735584,1,92
115,001,0,recog,56,BANALITY,LF,target,left,aqua,imageability,conservative,no,z,1,1.11995355818,1,93
115,001,0,recog,57,RUPTURE,LF,target,left,aqua,imageability,conservative,no,z,1,0.880160090097,1,94
115,001,0,recog,58,INROADS,LF,target,left,aqua,imageability,liberal,no,z,1,1.01335733878,3,97
115,001,0,recog,59,DAPPER,LF,target,right,yellow,pleasantness,liberal,no,z,1,0.853405818939,3,100
115,001,0,recog,60,HAMLETS,LF,target,right,yellow,pleasantness,conservative,no,z,1,0.746808499718,1,101
115,001,0,recog,61,RETURN,HF,lure,-,-,-,conservative,no,z,0,0.826727068893,-3,98
115,001,0,recog,62,EXCEPT,HF,lure,-,-,-,conservative,no,m,1,1.1330084459,3,101
115,001,0,recog,63,BREAK,HF,lure,-,-,-,conservative,no,m,1,0.800078014044,3,104
115,001,0,recog,64,SWIFTNESS,LF,lure,-,-,-,liberal,no,m,1,0.920024240078,1,105
115,001,0,recog,65,FALCON,LF,lure,-,-,-,liberal,no,m,1,0.680205842695,1,106
115,001,0,recog,66,POINT,HF,lure,-,-,-,conservative,no,m,1,0.586723168191,3,109
115,001,0,recog,67,ANGERS,LF,lure,-,-,-,conservative,no,m,1,0.653585016611,3,112
115,001,0,recog,68,BUCKED,LF,lure,-,-,-,liberal,no,m,1,1.34657225794,1,113
115,001,0,recog,69,COLDEST,LF,lure,-,-,-,liberal,no,m,1,0.680502428041,1,114
115,001,0,recog,70,OUGHT,HF,lure,-,-,-,liberal,no,m,1,0.760146408311,1,115
115,001,0,recog,71,PITCHER,LF,target,right,yellow,pleasantness,conservative,no,z,1,0.693487660363,1,116
115,001,0,recog,72,INSIDE,HF,target,right,yellow,pleasantness,conservative,no,z,1,0.853148093972,1,117
115,001,0,recog,73,MYSELF,HF,target,right,yellow,pleasantness,liberal,no,z,1,1.37318098598,3,120
115,001,0,recog,74,ENVIRONS,LF,lure,-,-,-,conservative,no,m,1,0.733480489523,3,123
115,001,0,recog,75,AUGMENT,LF,lure,-,-,-,conservative,no,m,1,0.840163594863,3,126
115,001,0,recog,76,RUINOUS,LF,lure,-,-,-,liberal,no,m,1,0.826736967292,1,127
115,001,0,recog,77,FUTURE,HF,target,right,yellow,pleasantness,conservative,no,z,1,0.68023003878,1,128
115,001,0,recog,78,SUCCESS,HF,target,right,yellow,pleasantness,conservative,no,z,1,0.933399176013,1,129
115,001,0,recog,79,ALMOST,HF,target,right,yellow,pleasantness,liberal,no,z,1,1.2265706742,3,132
115,001,0,recog,80,SOMEONE,HF,target,left,aqua,imageability,liberal,no,z,1,0.893125159016,3,135
115,001,0,recog,81,NORTH,HF,lure,-,-,-,liberal,no,m,1,0.69348252786,1,136
115,001,0,recog,82,HUSBAND,HF,lure,-,-,-,liberal,no,m,1,0.866722830913,1,137
115,001,0,recog,83,FATHER,HF,target,right,yellow,pleasantness,conservative,no,z,1,0.586961829576,1,138
115,001,0,recog,84,SINCE,HF,lure,-,-,-,liberal,no,m,1,1.11969253375,1,139
115,001,0,recog,85,DIFFERENT,HF,target,right,yellow,pleasantness,liberal,no,z,1,0.706807605196,3,142
115,001,0,recog,86,WATCH,HF,target,left,aqua,imageability,liberal,no,z,1,0.826746499083,3,145
115,001,0,recog,87,UNDER,HF,lure,-,-,-,conservative,no,m,1,1.06664041758,3,148
115,001,0,recog,88,CANNOT,HF,target,left,aqua,imageability,conservative,no,z,1,1.73313624522,1,149
115,001,0,recog,89,VERBALLY,LF,lure,-,-,-,conservative,no,m,1,0.826703606023,3,152
115,001,0,recog,90,BORAX,LF,lure,-,-,-,conservative,no,m,1,0.867041779307,3,155
115,001,0,recog,91,COUNCIL,HF,target,right,yellow,pleasantness,liberal,no,z,1,0.720114352165,3,158
115,001,0,recog,92,FOUND,HF,target,left,aqua,imageability,conservative,no,m,0,2.49159955919,-1,157
115,001,0,recog,93,WAXEN,LF,lure,-,-,-,conservative,no,m,1,0.720110686091,3,160
115,001,0,recog,94,WONDROUS,LF,target,left,aqua,imageability,conservative,no,z,1,1.13337285361,1,161
115,001,0,recog,95,MACARONI,LF,target,right,yellow,pleasantness,liberal,no,z,1,1.58650980271,3,164
115,001,1,source,0,BEAUTIFUL,HF,target,left,aqua,imageability,liberal,no,1,1,2.71939506854,-,-
115,001,1,source,1,FIFTIETH,LF,target,left,aqua,imageability,liberal,no,1,1,1.21326905973,-,-
115,001,1,source,2,CHLORIDE,LF,target,left,aqua,imageability,conservative,no,1,1,1.15990642714,-,-
115,001,1,source,3,LOLLED,LF,target,right,yellow,pleasantness,conservative,no,8,1,1.79966924685,-,-
115,001,1,source,4,EXACTLY,HF,target,left,aqua,imageability,conservative,no,8,0,1.37320041617,-,-
115,001,1,source,5,BAFFLING,LF,target,right,yellow,pleasantness,liberal,no,8,1,2.11959941548,-,-
115,001,1,source,6,APART,HF,target,right,yellow,pleasantness,conservative,no,9,1,1.10667064069,-,-
115,001,1,source,7,PLACE,HF,target,right,yellow,pleasantness,conservative,no,9,1,0.920213042863,-,-
115,001,1,source,8,PARENTS,HF,target,left,aqua,imageability,liberal,no,3,1,2.79944854922,-,-
115,001,1,source,9,ELATION,LF,target,right,yellow,pleasantness,conservative,no,8,1,3.412468096,-,-
115,001,1,source,10,HERSELF,HF,target,left,aqua,imageability,conservative,no,1,1,1.319948499,-,-
115,001,1,source,11,CRACKLE,LF,target,left,aqua,imageability,conservative,no,1,1,1.58620185254,-,-
115,001,1,source,12,PIPELINES,LF,target,right,yellow,pleasantness,conservative,no,8,1,3.23887035078,-,-
115,001,1,source,13,GLIDED,LF,target,right,yellow,pleasantness,liberal,no,8,1,1.45326452847,-,-
115,001,1,source,14,WISPY,LF,target,left,aqua,imageability,liberal,yes,8,0,0.973379173916,-,-
115,001,1,source,15,VEILING,LF,target,left,aqua,imageability,liberal,no,1,1,1.09338222409,-,-
115,001,1,source,16,HIMSELF,HF,target,left,aqua,imageability,liberal,no,1,1,0.813461748556,-,-
115,001,1,source,17,WANTED,HF,target,left,aqua,imageability,liberal,yes,8,0,0.573262812743,-,-
115,001,1,source,18,SELECTS,LF,target,right,yellow,pleasantness,liberal,yes,8,1,0.480290089064,-,-
115,001,1,source,19,POWER,HF,target,right,yellow,pleasantness,liberal,no,9,1,2.86568349908,-,-
115,001,1,source,20,FORCE,HF,target,right,yellow,pleasantness,liberal,no,9,1,0.653547622661,-,-
115,001,1,source,21,GREATER,HF,target,right,yellow,pleasantness,conservative,no,7,1,1.23991848119,-,-
115,001,1,source,22,VOICE,HF,target,right,yellow,pleasantness,conservative,no,7,1,2.05266791167,-,-
115,001,1,source,23,BUSINESS,HF,target,right,yellow,pleasantness,conservative,no,9,1,1.91982663872,-,-
115,001,1,source,24,MEANS,HF,target,left,aqua,imageability,conservative,no,2,1,1.46654341328,-,-
115,001,1,source,25,ITSELF,HF,target,left,aqua,imageability,liberal,no,1,1,1.45292908274,-,-
115,001,1,source,26,ATTACK,HF,target,left,aqua,imageability,conservative,no,2,1,1.27993917251,-,-
115,001,1,source,27,BUILDING,HF,target,right,yellow,pleasantness,liberal,no,9,1,1.21329398903,-,-
115,001,1,source,28,IDEAS,HF,target,left,aqua,imageability,conservative,no,2,1,1.13304987253,-,-
115,001,1,source,29,GEARING,LF,target,left,aqua,imageability,conservative,no,1,1,1.95936817423,-,-
115,001,1,source,30,CHOICE,HF,target,right,yellow,pleasantness,liberal,no,9,1,1.1199594239,-,-
115,001,1,source,31,ODOURS,LF,target,left,aqua,imageability,liberal,no,2,1,1.706458595,-,-
115,001,1,source,32,PUTTS,LF,target,left,aqua,imageability,liberal,no,1,1,1.37343834434,-,-
115,001,1,source,33,EQUALLED,LF,target,right,yellow,pleasantness,conservative,no,9,1,2.11956678743,-,-
115,001,1,source,34,NAUGHT,LF,target,right,yellow,pleasantness,liberal,no,9,1,1.94620623716,-,-
115,001,1,source,35,BOXCAR,LF,target,left,aqua,imageability,conservative,no,1,1,0.880031410918,-,-
115,001,1,source,36,TAKEN,HF,target,right,yellow,pleasantness,liberal,no,9,1,1.97280616663,-,-
115,001,1,source,37,COMES,HF,target,left,aqua,imageability,liberal,no,3,1,1.25329928284,-,-
115,001,1,source,38,SCENARIOS,LF,target,right,yellow,pleasantness,conservative,no,3,0,2.15951305745,-,-
115,001,1,source,39,FLYWHEEL,LF,target,right,yellow,pleasantness,liberal,no,7,1,2.17287662856,-,-
115,001,1,source,40,SUBJECT,HF,target,left,aqua,imageability,conservative,no,1,1,1.75947441704,-,-
115,001,1,source,41,WESTERN,HF,target,right,yellow,pleasantness,liberal,no,7,1,2.4258664948,-,-
115,001,1,source,42,CUPID,LF,target,left,aqua,imageability,conservative,no,1,1,1.63949922902,-,-
115,001,1,source,43,JARRED,LF,target,left,aqua,imageability,conservative,no,1,1,1.02667508397,-,-
115,001,1,source,44,ABETTED,LF,target,left,aqua,imageability,liberal,yes,1,1,0.5203166461,-,-
115,001,1,source,45,SIFTED,LF,target,right,yellow,pleasantness,liberal,no,9,1,1.47983549595,-,-
115,001,1,source,46,EARLIER,HF,target,right,yellow,pleasantness,conservative,no,9,1,1.2265358465,-,-
115,001,1,source,47,AGELESS,LF,target,right,yellow,pleasantness,conservative,no,9,1,2.2526085946,-,-
115,001,1,recog,0,PIPELINES,LF,target,right,yellow,pleasantness,conservative,no,z,1,1.42654141893,1,165
115,001,1,recog,1,VOICE,HF,target,right,yellow,pleasantness,conservative,no,z,1,1.01333534234,1,166
115,001,1,recog,2,EXACTLY,HF,target,left,aqua,imageability,conservative,no,z,1,0.600274442262,1,167
115,001,1,recog,3,COMES,HF,target,left,aqua,imageability,liberal,no,z,1,1.73311388217,3,170
115,001,1,recog,4,OTHERS,HF,lure,-,-,-,conservative,no,m,1,1.20006239657,3,173
115,001,1,recog,5,FIELD,HF,lure,-,-,-,conservative,no,m,1,1.03997229915,3,176
115,001,1,recog,6,LOLLED,LF,target,right,yellow,pleasantness,conservative,no,z,1,0.653578417679,1,177
115,001,1,recog,7,BUILDING,HF,target,right,yellow,pleasantness,liberal,no,z,1,0.879760121479,3,180
115,001,1,recog,8,INORGANIC,LF,lure,-,-,-,liberal,no,m,1,0.653584283396,1,181
115,001,1,recog,9,ALABASTER,LF,lure,-,-,-,conservative,no,m,1,0.840082941247,3,184
115,001,1,recog,10,GEYSER,LF,lure,-,-,-,liberal,no,m,1,0.680135087476,1,185
115,001,1,recog,11,PLACE,HF,target,right,yellow,pleasantness,conservative,no,z,1,1.02644265491,1,186
115,001,1,recog,12,AGELESS,LF,target,right,yellow,pleasantness,conservative,no,z,1,0.800072881541,1,187
115,001,1,recog,13,SIFTED,LF,target,right,yellow,pleasantness,liberal,no,z,1,0.94641850282,3,190
115,001,1,recog,14,GREATER,HF,target,right,yellow,pleasantness,conservative,no,z,1,1.31961708596,1,191
115,001,1,recog,15,WESTERN,HF,target,right,yellow,pleasantness,liberal,no,z,1,0.546836655162,3,194
115,001,1,recog,16,SHORT,HF,lure,-,-,-,conservative,no,m,1,0.613474139884,3,197
115,001,1,recog,17,TOMBSTONE,LF,lure,-,-,-,conservative,no,m,1,0.720115818594,3,200
115,001,1,recog,18,WREATH,LF,lure,-,-,-,conservative,no,m,1,0.560233587539,3,203
115,001,1,recog,19,ABETTED,LF,target,left,aqua,imageability,liberal,no,z,1,2.7193580412,3,206
115,001,1,recog,20,VAULTED,LF,lure,-,-,-,conservative,no,m,1,1.31988214307,3,209
115,001,1,recog,21,HOARD,LF,lure,-,-,-,liberal,no,m,1,0.893203612989,1,210
115,001,1,recog,22,PARENTS,HF,target,left,aqua,imageability,liberal,no,z,1,1.0134379924,3,213
115,001,1,recog,23,RABBIS,LF,lure,-,-,-,conservative,no,m,1,1.20000483922,3,216
115,001,1,recog,24,ELATION,LF,target,right,yellow,pleasantness,conservative,yes,m,0,0.600114968065,-1,215
115,001,1,recog,25,EARLIER,HF,target,right,yellow,pleasantness,conservative,no,z,1,3.53232890252,1,216
115,001,1,recog,26,SCENARIOS,LF,target,right,yellow,pleasantness,conservative,no,z,1,1.23992581334,1,217
115,001,1,recog,27,POWER,HF,target,right,yellow,pleasantness,liberal,yes,m,0,0.506969938931,-3,214
115,001,1,recog,28,MUGGING,LF,lure,-,-,-,conservative,no,m,1,3.23917280184,3,217
115,001,1,recog,29,ITSELF,HF,target,left,aqua,imageability,liberal,no,z,1,0.639905429968,3,220
115,001,1,recog,30,BOOKS,HF,lure,-,-,-,liberal,no,m,1,0.813384761012,1,221
115,001,1,recog,31,HEDGED,LF,lure,-,-,-,conservative,no,m,1,1.31991917041,3,224
115,001,1,recog,32,NOSTRIL,LF,lure,-,-,-,conservative,no,m,1,0.693229568789,3,227
115,001,1,recog,33,MOUTH,HF,lure,-,-,-,conservative,no,m,1,0.560185561976,3,230
115,001,1,recog,34,MANDARIN,LF,lure,-,-,-,conservative,no,m,1,0.733427331458,3,233
115,001,1,recog,35,WANTED,HF,target,left,aqua,imageability,liberal,no,z,1,4.37200857568,3,236
115,001,1,recog,36,HOURS,HF,lure,-,-,-,liberal,no,m,1,1.13332996055,1,237
115,001,1,recog,37,ATTACK,HF,target,left,aqua,imageability,conservative,no,z,1,2.93257101001,1,238
115,001,1,recog,38,STOOD,HF,lure,-,-,-,liberal,no,m,1,1.06668441046,1,239
115,001,1,recog,39,SUBJECT,HF,target,left,aqua,imageability,conservative,no,z,1,1.13303667467,1,240
115,001,1,recog,40,IDEAS,HF,target,left,aqua,imageability,conservative,no,z,1,1.5731308341,1,241
115,001,1,recog,41,MAPPED,LF,lure,-,-,-,conservative,no,m,1,0.960022201741,3,244
115,001,1,recog,42,GEARING,LF,target,left,aqua,imageability,conservative,no,z,1,0.720093455545,1,245
115,001,1,recog,43,UNBEATEN,LF,lure,-,-,-,liberal,no,m,1,1.14642920775,1,246
115,001,1,recog,44,TOWARDS,HF,lure,-,-,-,liberal,no,m,1,0.946680260467,1,247
115,001,1,recog,45,BOWER,LF,lure,-,-,-,liberal,yes,z,0,0.959782073927,-1,246
115,001,1,recog,46,REACHED,HF,lure,-,-,-,conservative,no,m,1,2.26591974085,3,249
115,001,1,recog,47,GLIDED,LF,target,right,yellow,pleasantness,liberal,no,z,1,1.90644363742,3,252
115,001,1,recog,48,VEILING,LF,target,left,aqua,imageability,liberal,no,z,1,0.853376856958,3,255
115,001,1,recog,49,OBNOXIOUS,LF,lure,-,-,-,conservative,no,m,1,0.920053568666,3,258
115,001,1,recog,50,UNION,HF,lure,-,-,-,liberal,no,m,1,1.91977201422,1,259
115,001,1,recog,51,PUTTS,LF,target,left,aqua,imageability,liberal,no,z,1,0.800114674779,3,262
115,001,1,recog,52,BEAUTIFUL,HF,target,left,aqua,imageability,liberal,no,z,1,0.826763729629,3,265
115,001,1,recog,53,NAUGHT,LF,target,right,yellow,pleasantness,liberal,no,z,1,0.746890986372,3,268
115,001,1,recog,54,HERSELF,HF,target,left,aqua,imageability,conservative,no,z,1,0.826883610232,1,269
115,001,1,recog,55,JARRED,LF,target,left,aqua,imageability,conservative,no,z,1,0.693569047195,1,270
115,001,1,recog,56,TOGETHER,HF,lure,-,-,-,liberal,no,m,1,1.35965317478,1,271
115,001,1,recog,57,HANDS,HF,lure,-,-,-,conservative,no,m,1,0.880038743065,3,274
115,001,1,recog,58,CHOICE,HF,target,right,yellow,pleasantness,liberal,no,z,1,1.00029585213,3,277
115,001,1,recog,59,FORCE,HF,target,right,yellow,pleasantness,liberal,no,z,1,0.62660418211,3,280
115,001,1,recog,60,WHATEVER,HF,lure,-,-,-,conservative,no,m,1,0.706835467355,3,283
115,001,1,recog,61,NUCLEAR,HF,lure,-,-,-,liberal,no,m,1,0.626868139402,1,284
115,001,1,recog,62,CHLORIDE,LF,target,left,aqua,imageability,conservative,no,z,1,0.600141363794,1,285
115,001,1,recog,63,SELECTS,LF,target,right,yellow,pleasantness,liberal,no,m,0,1.22655637651,-3,282
115,001,1,recog,64,MONEY,HF,lure,-,-,-,liberal,no,m,1,2.02639169649,1,283
115,001,1,recog,65,BOXCAR,LF,target,left,aqua,imageability,conservative,no,z,1,0.73342843128,1,284
115,001,1,recog,66,RECENT,HF,lure,-,-,-,liberal,no,z,0,3.09251739735,-1,283
115,001,1,recog,67,SLOWLY,HF,lure,-,-,-,conservative,no,m,1,1.1733176572,3,286
115,001,1,recog,68,FLYWHEEL,LF,target,right,yellow,pleasantness,liberal,no,z,1,0.733431364139,3,289
115,001,1,recog,69,FIFTIETH,LF,target,left,aqua,imageability,liberal,no,z,1,0.73312964629,3,292
115,001,1,recog,70,BAFFLING,LF,target,right,yellow,pleasantness,liberal,no,z,1,0.546836288555,3,295
115,001,1,recog,71,MEANS,HF,target,left,aqua,imageability,conservative,no,m,0,1.7330801543,-1,294
115,001,1,recog,72,TURNED,HF,lure,-,-,-,conservative,no,m,1,0.813420688532,3,297
115,001,1,recog,73,MAMMAL,LF,lure,-,-,-,liberal,no,m,1,1.70640103765,1,298
115,001,1,recog,74,HYDRAULIC,LF,lure,-,-,-,conservative,no,m,1,1.82638905692,3,301
115,001,1,recog,75,ODOURS,LF,target,left,aqua,imageability,liberal,no,z,1,0.786493012097,3,304
115,001,1,recog,76,WASHBASIN,LF,lure,-,-,-,liberal,no,m,1,0.893363453793,1,305
115,001,1,recog,77,BLOOD,HF,lure,-,-,-,conservative,no,m,1,0.786518674612,3,308
115,001,1,recog,78,ZIGZAG,LF,lure,-,-,-,liberal,yes,z,0,0.786751836886,-1,307
115,001,1,recog,79,WISPY,LF,target,left,aqua,imageability,liberal,no,z,1,0.773454621709,3,310
115,001,1,recog,80,CLEAR,HF,lure,-,-,-,liberal,no,z,0,1.82612326659,-1,309
115,001,1,recog,81,APART,HF,target,right,yellow,pleasantness,conservative,no,z,1,1.12007893789,1,310
115,001,1,recog,82,CRACKLE,LF,target,left,aqua,imageability,conservative,no,z,1,0.693435602119,1,311
115,001,1,recog,83,EQUALLED,LF,target,right,yellow,pleasantness,conservative,no,z,1,0.640122828127,1,312
115,001,1,recog,84,CUPID,LF,target,left,aqua,imageability,conservative,no,z,1,0.640169753867,1,313
115,001,1,recog,85,BUSINESS,HF,target,right,yellow,pleasantness,conservative,no,z,1,1.11999535142,1,314
115,001,1,recog,86,WEEKS,HF,lure,-,-,-,conservative,no,m,1,1.23989538493,3,317
115,001,1,recog,87,AMEND,LF,lure,-,-,-,liberal,no,z,0,1.50645668864,-1,316
115,001,1,recog,88,TAKEN,HF,target,right,yellow,pleasantness,liberal,no,z,1,0.74687595547,3,319
115,001,1,recog,89,CUSTODIAN,LF,lure,-,-,-,liberal,no,m,1,0.880076137014,1,320
115,001,1,recog,90,JOVIAL,LF,lure,-,-,-,liberal,no,m,1,1.25322339512,1,321
115,001,1,recog,91,ABUSING,LF,lure,-,-,-,liberal,no,m,1,1.09335032925,1,322
115,001,1,recog,92,BEYOND,HF,lure,-,-,-,liberal,no,m,1,0.773588066784,1,323
115,001,1,recog,93,HEALTH,HF,lure,-,-,-,conservative,no,m,1,2.07965241224,3,326
115,001,1,recog,94,SHALL,HF,lure,-,-,-,liberal,no,m,1,1.1330583045,1,327
115,001,1,recog,95,HIMSELF,HF,target,left,aqua,imageability,liberal,no,z,1,0.69345906499,3,330
115,001,2,source,0,DAILIES,LF,target,left,aqua,imageability,liberal,no,1,1,5.11845523394,-,-
115,001,2,source,1,VILLAGE,HF,target,left,aqua,imageability,conservative,no,1,1,1.53288357944,-,-
115,001,2,source,2,AVAILABLE,HF,target,left,aqua,imageability,conservative,no,3,1,1.65295151911,-,-
115,001,2,source,3,MOTHER,HF,target,left,aqua,imageability,liberal,no,3,1,2.75930101176,-,-
115,001,2,source,4,BEQUEST,LF,target,right,yellow,pleasantness,conservative,no,3,0,2.65252845423,-,-
115,001,2,source,5,WOMAN,HF,target,right,yellow,pleasantness,conservative,no,7,1,2.13297398481,-,-
115,001,2,source,6,DECIDED,HF,target,right,yellow,pleasantness,conservative,no,9,1,1.41314961906,-,-
115,001,2,source,7,SIESTA,LF,target,right,yellow,pleasantness,liberal,no,9,1,0.680091827809,-,-
115,001,2,source,8,WITHIN,HF,target,left,aqua,imageability,liberal,no,3,1,1.87966956946,-,-
115,001,2,source,9,ENLIGHTEN,LF,target,left,aqua,imageability,liberal,no,3,1,1.39983114065,-,-
115,001,2,source,10,BROUGHT,HF,target,right,yellow,pleasantness,liberal,no,9,1,1.22659413707,-,-
115,001,2,source,11,PUFFS,LF,target,right,yellow,pleasantness,liberal,no,9,1,0.680225639492,-,-
115,001,2,source,12,FRACTIONS,LF,target,left,aqua,imageability,liberal,no,1,1,1.35963374459,-,-
115,001,2,source,13,BOVINE,LF,target,right,yellow,pleasantness,liberal,no,2,0,1.34653486399,-,-
115,001,2,source,14,PASSED,HF,target,right,yellow,pleasantness,conservative,yes,3,0,1.39983517334,-,-
115,001,2,source,15,FRONT,HF,target,left,aqua,imageability,liberal,no,1,1,1.85298238745,-,-
115,001,2,source,16,ASTERN,LF,target,left,aqua,imageability,conservative,no,8,0,1.49314260953,-,-
115,001,2,source,17,THEORY,HF,target,left,aqua,imageability,conservative,no,3,1,1.46638650533,-,-
115,001,2,source,18,FREEDOM,HF,target,left,aqua,imageability,conservative,yes,3,1,0.626901134063,-,-
115,001,2,source,19,SUMMER,HF,target,right,yellow,pleasantness,conservative,no,9,1,1.22657360706,-,-
115,001,2,source,20,ADOPTIVE,LF,target,left,aqua,imageability,liberal,no,2,1,1.19970532101,-,-
115,001,2,source,21,TREES,HF,target,left,aqua,imageability,liberal,no,1,1,1.1067307643,-,-
115,001,2,source,22,DERANGED,LF,target,right,yellow,pleasantness,conservative,no,9,1,1.06658212701,-,-
115,001,2,source,23,RESEARCH,HF,target,right,yellow,pleasantness,liberal,no,9,1,1.53290777552,-,-
115,001,2,source,24,PLIABLE,LF,target,right,yellow,pleasantness,conservative,no,7,1,1.58636902549,-,-
115,001,2,source,25,ANSWER,HF,target,right,yellow,pleasantness,liberal,no,8,1,2.65249069367,-,-
115,001,2,source,26,LOVELIEST,LF,target,left,aqua,imageability,conservative,no,2,1,2.58583121251,-,-
115,001,2,source,27,LAVISHED,LF,target,left,aqua,imageability,conservative,no,1,1,2.43921246876,-,-
115,001,2,source,28,FIGURE,HF,target,right,yellow,pleasantness,liberal,no,3,0,2.11954882367,-,-
115,001,2,source,29,GUESSWORK,LF,target,left,aqua,imageability,conservative,yes,3,1,1.09326967563,-,-
115,001,2,source,30,GENERAL,HF,target,right,yellow,pleasantness,liberal,no,9,1,2.93264066541,-,-
115,001,2,source,31,PEEKED,LF,target,right,yellow,pleasantness,liberal,no,9,1,2.06600325401,-,-
115,001,2,source,32,PREPARED,HF,target,right,yellow,pleasantness,liberal,no,9,1,1.11993706085,-,-
115,001,2,source,33,BIRCHES,LF,target,left,aqua,imageability,liberal,no,1,1,2.14596508285,-,-
115,001,2,source,34,ENOUGH,HF,target,right,yellow,pleasantness,conservative,no,7,1,1.95938577138,-,-
115,001,2,source,35,TROUBLE,HF,target,left,aqua,imageability,liberal,no,2,1,2.19930791865,-,-
115,001,2,source,36,WRITE,HF,target,left,aqua,imageability,liberal,no,1,1,1.6665086589,-,-
115,001,2,source,37,VEXED,LF,target,right,yellow,pleasantness,conservative,no,8,1,1.37328216961,-,-
115,001,2,source,38,RANGE,HF,target,left,aqua,imageability,conservative,yes,8,0,0.586608786698,-,-
115,001,2,source,39,TEDIUM,LF,target,left,aqua,imageability,conservative,no,7,0,1.65319201353,-,-
115,001,2,source,40,FARAWAY,LF,target,left,aqua,imageability,conservative,no,1,1,1.69283986518,-,-
115,001,2,source,41,CENTRAL,HF,target,right,yellow,pleasantness,conservative,no,9,1,1.04006871688,-,-
115,001,2,source,42,SOLEMNITY,LF,target,right,yellow,pleasantness,conservative,no,7,1,1.54642605493,-,-
115,001,2,source,43,FLAGGED,LF,target,right,yellow,pleasantness,liberal,no,9,1,1.74612367719,-,-
115,001,2,source,44,EVENING,HF,target,left,aqua,imageability,conservative,no,2,1,1.20004956531,-,-
115,001,2,source,45,HEMMED,LF,target,right,yellow,pleasantness,conservative,no,8,1,3.02570284128,-,-
115,001,2,source,46,VANDALS,LF,target,left,aqua,imageability,liberal,no,3,1,2.07967257564,-,-
115,001,2,source,47,DUMMIES,LF,target,right,yellow,pleasantness,liberal,no,9,1,0.986695452676,-,-
115,001,2,recog,0,SIESTA,LF,target,right,yellow,pleasantness,liberal,no,z,1,1.29546316073,3,333
115,001,2,recog,1,ADDED,HF,lure,-,-,-,conservative,no,m,1,1.63975182149,3,336
115,001,2,recog,2,ASTERN,LF,target,left,aqua,imageability,conservative,no,z,1,3.45250601786,1,337
115,001,2,recog,3,OUTSIDE,HF,lure,-,-,-,conservative,no,m,1,0.98649015256,3,340
115,001,2,recog,4,FARAWAY,LF,target,left,aqua,imageability,conservative,yes,m,0,0.866806783996,-1,339
115,001,2,recog,5,WINDOW,HF,lure,-,-,-,liberal,no,z,0,0.893167318861,-1,338
115,001,2,recog,6,ENOUGH,HF,target,right,yellow,pleasantness,conservative,no,m,0,1.38639754754,-1,337
115,001,2,recog,7,POUNDS,HF,lure,-,-,-,conservative,no,m,1,0.786660551656,3,340
115,001,2,recog,8,PASSED,HF,target,right,yellow,pleasantness,conservative,no,m,0,1.70646446072,-1,339
115,001,2,recog,9,BEQUEST,LF,target,right,yellow,pleasantness,conservative,no,z,1,0.773373234877,1,340
115,001,2,recog,10,PEEKED,LF,target,right,yellow,pleasantness,liberal,no,z,1,0.933411274056,3,343
115,001,2,recog,11,SOCIAL,HF,lure,-,-,-,liberal,yes,z,0,0.880053407358,-1,342
115,001,2,recog,12,AMBIENCE,LF,lure,-,-,-,liberal,no,m,1,1.22632064799,1,343
115,001,2,recog,13,PENALIZED,LF,lure,-,-,-,liberal,no,m,1,0.880224979599,1,344
115,001,2,recog,14,CONCERNED,HF,lure,-,-,-,conservative,no,m,1,1.23989501832,3,347
115,001,2,recog,15,SOLEMNITY,LF,target,right,yellow,pleasantness,conservative,no,z,1,0.69360020882,1,348
115,001,2,recog,16,VILLAGE,HF,target,left,aqua,imageability,conservative,no,z,1,0.613309166577,1,349
115,001,2,recog,17,FREEDOM,HF,target,left,aqua,imageability,conservative,no,z,1,0.853371724455,1,350
115,001,2,recog,18,WITHIN,HF,target,left,aqua,imageability,liberal,no,z,1,0.933366181352,3,353
115,001,2,recog,19,BOVINE,LF,target,right,yellow,pleasantness,liberal,no,z,1,0.600138797543,3,356
115,001,2,recog,20,CENTRAL,HF,target,right,yellow,pleasantness,conservative,no,z,1,0.92008069761,1,357
115,001,2,recog,21,REEDY,LF,lure,-,-,-,conservative,no,m,1,0.613585221911,3,360
115,001,2,recog,22,EXUDED,LF,lure,-,-,-,liberal,no,m,1,1.22663666352,1,361
115,001,2,recog,23,ENLIGHTEN,LF,target,left,aqua,imageability,liberal,no,z,1,0.773446922955,3,364
115,001,2,recog,24,VEXED,LF,target,right,yellow,pleasantness,conservative,no,m,0,0.626607848184,-1,363
115,001,2,recog,25,PUFFS,LF,target,right,yellow,pleasantness,liberal,no,z,1,1.26666835306,3,366
115,001,2,recog,26,PICTURE,HF,lure,-,-,-,liberal,yes,z,0,0.746761573977,-1,365
115,001,2,recog,27,ADOPTIVE,LF,target,left,aqua,imageability,liberal,no,z,1,0.893128458482,3,368
115,001,2,recog,28,FRONT,HF,target,left,aqua,imageability,liberal,no,z,1,0.839842446826,3,371
115,001,2,recog,29,ALTHOUGH,HF,lure,-,-,-,conservative,no,m,1,0.933496693568,3,374
115,001,2,recog,30,ISOLATING,LF,lure,-,-,-,conservative,no,m,1,0.840098338756,3,377
115,001,2,recog,31,MOTHER,HF,target,left,aqua,imageability,liberal,no,z,1,0.600173991848,3,380
115,001,2,recog,32,KITCHEN,HF,lure,-,-,-,conservative,no,m,1,1.94636791101,3,383
115,001,2,recog,33,DUMMIES,LF,target,right,yellow,pleasantness,liberal,no,z,1,0.680293828459,3,386
115,001,2,recog,34,MEMBERS,HF,lure,-,-,-,liberal,no,m,1,1.0000846863,1,387
115,001,2,recog,35,AVAILABLE,HF,target,left,aqua,imageability,conservative,no,z,1,2.90600114235,1,388
115,001,2,recog,36,LESSENED,LF,lure,-,-,-,liberal,no,m,1,0.746567272082,1,389
115,001,2,recog,37,EVENING,HF,target,left,aqua,imageability,conservative,no,z,1,1.03998439719,1,390
115,001,2,recog,38,NAIVELY,LF,lure,-,-,-,conservative,no,m,1,1.21325182919,3,393
115,001,2,recog,39,FLAGGED,LF,target,right,yellow,pleasantness,liberal,no,z,1,0.680071297797,3,396
115,001,2,recog,40,WRITE,HF,target,left,aqua,imageability,liberal,no,z,1,0.520174769056,3,399
115,001,2,recog,41,REREAD,LF,lure,-,-,-,conservative,no,m,1,0.786728740623,3,402
115,001,2,recog,42,PLIABLE,LF,target,right,yellow,pleasantness,conservative,no,z,1,1.05328857791,1,403
115,001,2,recog,43,DECIDED,HF,target,right,yellow,pleasantness,conservative,no,z,1,1.70674161587,1,404
115,001,2,recog,44,EASILY,HF,lure,-,-,-,liberal,no,z,0,1.10667833944,-1,403
115,001,2,recog,45,LOCAL,HF,lure,-,-,-,liberal,no,m,1,2.43937010992,1,404
115,001,2,recog,46,PIZZA,LF,lure,-,-,-,conservative,no,m,1,0.840190723808,3,407
115,001,2,recog,47,GUESSWORK,LF,target,left,aqua,imageability,conservative,no,z,1,0.906712360607,1,408
115,001,2,recog,48,BIRCHES,LF,target,left,aqua,imageability,liberal,no,z,1,0.706546580763,3,411
115,001,2,recog,49,DERANGED,LF,target,right,yellow,pleasantness,conservative,no,z,1,0.693526887349,1,412
115,001,2,recog,50,HOIST,LF,lure,-,-,-,conservative,no,m,1,0.626821213661,3,415
115,001,2,recog,51,STUDENT,HF,lure,-,-,-,conservative,no,m,1,0.680116023894,3,418
115,001,2,recog,52,PHYSICAL,HF,lure,-,-,-,liberal,no,m,1,0.746833795625,1,419
115,001,2,recog,53,FIVER,LF,lure,-,-,-,liberal,no,m,1,0.600162260413,1,420
115,001,2,recog,54,FRACTIONS,LF,target,left,aqua,imageability,liberal,no,z,1,0.760075653093,3,423
115,001,2,recog,55,LIKELY,HF,lure,-,-,-,liberal,no,m,1,1.29323968715,1,424
115,001,2,recog,56,RESEARCH,HF,target,right,yellow,pleasantness,liberal,no,z,1,1.9198108746,3,427
115,001,2,recog,57,SEQUEL,LF,lure,-,-,-,liberal,no,m,1,0.866716965195,1,428
115,001,2,recog,58,TREES,HF,target,left,aqua,imageability,liberal,no,z,1,0.693542651466,3,431
115,001,2,recog,59,RANGE,HF,target,left,aqua,imageability,conservative,no,z,1,1.05301728847,1,432
115,001,2,recog,60,CAPITAL,HF,lure,-,-,-,conservative,no,m,1,0.94674478336,3,435
115,001,2,recog,61,UPKEEP,LF,lure,-,-,-,conservative,no,m,1,0.760165838501,3,438
115,001,2,recog,62,LOVELIEST,LF,target,left,aqua,imageability,conservative,no,z,1,0.920016541324,1,439
115,001,2,recog,63,ANSWER,HF,target,right,yellow,pleasantness,liberal,no,z,1,0.89343164276,3,442
115,001,2,recog,64,SOUND,HF,lure,-,-,-,liberal,no,m,1,0.640129060451,1,443
115,001,2,recog,65,LEVEL,HF,lure,-,-,-,conservative,no,m,1,0.760083351847,3,446
115,001,2,recog,66,GALACTIC,LF,lure,-,-,-,liberal,no,m,1,0.960132917161,1,447
115,001,2,recog,67,SUMMER,HF,target,right,yellow,pleasantness,conservative,no,z,1,0.706941416879,1,448
115,001,2,recog,68,DOCTOR,HF,lure,-,-,-,conservative,no,m,1,0.760092150424,3,451
115,001,2,recog,69,TROUBLE,HF,target,left,aqua,imageability,liberal,no,z,1,0.720118751452,3,454
115,001,2,recog,70,WIRING,LF,lure,-,-,-,liberal,no,m,1,1.00010851578,1,455
115,001,2,recog,71,MUNCH,LF,lure,-,-,-,liberal,no,m,1,0.706730251045,1,456
115,001,2,recog,72,GENERAL,HF,target,right,yellow,pleasantness,liberal,no,z,1,1.38652072761,3,459
115,001,2,recog,73,DAYBREAK,LF,lure,-,-,-,liberal,no,m,1,0.746748376113,1,460
115,001,2,recog,74,THEORY,HF,target,left,aqua,imageability,conservative,no,z,1,0.600185723283,1,461
115,001,2,recog,75,APPEARED,HF,lure,-,-,-,liberal,no,m,1,1.14678591671,1,462
115,001,2,recog,76,LOUDEST,LF,lure,-,-,-,liberal,no,m,1,1.17330409273,1,463
115,001,2,recog,77,HAIRDO,LF,lure,-,-,-,conservative,no,m,1,0.680084129055,3,466
115,001,2,recog,78,TEDIUM,LF,target,left,aqua,imageability,conservative,no,z,1,0.719907585619,1,467
115,001,2,recog,79,LAVISHED,LF,target,left,aqua,imageability,conservative,no,z,1,0.626881703874,1,468
115,001,2,recog,80,DAILIES,LF,target,left,aqua,imageability,liberal,no,z,1,0.680184579468,3,471
115,001,2,recog,81,NUMBER,HF,lure,-,-,-,conservative,no,m,1,0.626895634953,3,474
115,001,2,recog,82,SITTING,HF,lure,-,-,-,liberal,no,m,1,0.853173023272,1,475
115,001,2,recog,83,MAKES,HF,lure,-,-,-,conservative,no,m,1,0.813402358165,3,478
115,001,2,recog,84,VANDALS,LF,target,left,aqua,imageability,liberal,no,z,1,0.840487309153,3,481
115,001,2,recog,85,CHEEKBONE,LF,lure,-,-,-,conservative,no,m,1,0.946528485024,3,484
115,001,2,recog,86,PSEUDONYM,LF,lure,-,-,-,conservative,no,m,1,0.773423826692,3,487
115,001,2,recog,87,WOMAN,HF,target,right,yellow,pleasantness,conservative,no,z,1,0.693449533199,1,488
115,001,2,recog,88,FIGURE,HF,target,right,yellow,pleasantness,liberal,no,z,1,0.586937266884,3,491
115,001,2,recog,89,BECAME,HF,lure,-,-,-,liberal,no,z,0,1.55974453333,-1,490
115,001,2,recog,90,PREPARED,HF,target,right,yellow,pleasantness,liberal,no,z,1,0.693447333555,3,493
115,001,2,recog,91,REVERE,LF,lure,-,-,-,conservative,yes,m,1,0.773738742405,3,496
115,001,2,recog,92,AQUARIUM,LF,lure,-,-,-,liberal,no,m,1,0.813788395704,1,497
115,001,2,recog,93,BROUGHT,HF,target,right,yellow,pleasantness,liberal,no,z,1,0.87988440137,3,500
115,001,2,recog,94,HEMMED,LF,target,right,yellow,pleasantness,conservative,no,z,1,0.653542856766,1,501
115,001,2,recog,95,PEOPLED,LF,lure,-,-,-,conservative,no,m,1,0.666796445668,3,504
115,001,3,source,0,CLASS,HF,target,right,yellow,pleasantness,conservative,no,9,1,3.46577463766,-,-
115,001,3,source,1,MILES,HF,target,left,aqua,imageability,conservative,no,1,1,2.06636986136,-,-
115,001,3,source,2,SUAVE,LF,target,right,yellow,pleasantness,liberal,yes,3,0,1.06666351384,-,-
115,001,3,source,3,UNTIL,HF,target,right,yellow,pleasantness,conservative,yes,3,0,0.520082384004,-,-
115,001,3,source,4,GNOMES,LF,target,right,yellow,pleasantness,conservative,no,9,1,3.45237000653,-,-
115,001,3,source,5,PEACEABLY,LF,target,left,aqua,imageability,conservative,no,2,1,1.95964532939,-,-
115,001,3,source,6,PORCHES,LF,target,right,yellow,pleasantness,liberal,yes,7,1,0.999994867497,-,-
115,001,3,source,7,BLACK,HF,target,left,aqua,imageability,liberal,no,1,1,1.45316517787,-,-
115,001,3,source,8,DWINDLE,LF,target,left,aqua,imageability,liberal,no,2,1,1.19989009112,-,-
115,001,3,source,9,NOTHING,HF,target,left,aqua,imageability,conservative,no,2,1,1.03998842987,-,-
115,001,3,source,10,TIMES,HF,target,left,aqua,imageability,liberal,no,1,1,1.13305207217,-,-
115,001,3,source,11,NEARLY,HF,target,left,aqua,imageability,conservative,no,2,1,1.05153656138,-,-
115,001,3,source,12,ATONEMENT,LF,target,right,yellow,pleasantness,conservative,no,2,0,1.51977480044,-,-
115,001,3,source,13,SACRAMENT,LF,target,left,aqua,imageability,liberal,no,1,1,1.04013104013,-,-
115,001,3,source,14,BINDINGS,LF,target,right,yellow,pleasantness,conservative,no,8,1,2.41280684119,-,-
115,001,3,source,15,HAPPEN,HF,target,right,yellow,pleasantness,liberal,no,8,1,0.76020323245,-,-
115,001,3,source,16,HOTEL,HF,target,right,yellow,pleasantness,liberal,no,9,1,0.853368424989,-,-
115,001,3,source,17,RUNNING,HF,target,right,yellow,pleasantness,conservative,no,9,1,0.640349391469,-,-
115,001,3,source,18,TYPHOID,LF,target,left,aqua,imageability,conservative,no,3,1,3.5456363827,-,-
115,001,3,source,19,ENERGY,HF,target,left,aqua,imageability,liberal,no,3,1,0.986507016498,-,-
115,001,3,source,20,CUDDLE,LF,target,left,aqua,imageability,conservative,no,1,1,1.28000699487,-,-
115,001,3,source,21,HYPNOSIS,LF,target,right,yellow,pleasantness,conservative,no,9,1,1.78637533114,-,-
115,001,3,source,22,LEOPARDS,LF,target,right,yellow,pleasantness,liberal,yes,7,1,0.853446878962,-,-
115,001,3,source,23,PAVILIONS,LF,target,right,yellow,pleasantness,liberal,no,9,1,0.760067954338,-,-
115,001,3,source,24,TRIED,HF,target,right,yellow,pleasantness,conservative,no,9,1,1.05329957613,-,-
115,001,3,source,25,GIVEN,HF,target,left,aqua,imageability,liberal,no,8,0,3.99857683027,-,-
115,001,3,source,26,IRONICAL,LF,target,left,aqua,imageability,conservative,no,2,1,1.26654847246,-,-
115,001,3,source,27,ROUND,HF,target,left,aqua,imageability,liberal,no,1,1,4.87823686794,-,-
115,001,3,source,28,DUPLICITY,LF,target,left,aqua,imageability,conservative,no,3,1,5.87817161183,-,-
115,001,3,source,29,EITHER,HF,target,right,yellow,pleasantness,liberal,no,8,1,2.15965310146,-,-
115,001,3,source,30,DREADING,LF,target,right,yellow,pleasantness,conservative,no,8,1,2.49283832543,-,-
115,001,3,source,31,RAPACIOUS,LF,target,left,aqua,imageability,liberal,no,3,1,1.57316676162,-,-
115,001,3,source,32,CHIEF,HF,target,right,yellow,pleasantness,liberal,no,9,1,1.026407094,-,-
115,001,3,source,33,ESCALATED,LF,target,left,aqua,imageability,liberal,no,3,1,2.34590723221,-,-
115,001,3,source,34,AFTERNOON,HF,target,left,aqua,imageability,liberal,no,1,1,2.11930319674,-,-
115,001,3,source,35,UTTERANCE,LF,target,left,aqua,imageability,conservative,no,2,1,2.39947736456,-,-
115,001,3,source,36,GAUCHE,LF,target,right,yellow,pleasantness,liberal,no,9,1,0.986679321953,-,-
115,001,3,source,37,MEETING,HF,target,right,yellow,pleasantness,conservative,no,9,1,0.826731101574,-,-
115,001,3,source,38,ALONE,HF,target,right,yellow,pleasantness,liberal,no,9,1,0.613489170786,-,-
115,001,3,source,39,ICONS,LF,target,left,aqua,imageability,liberal,no,1,1,1.03972153972,-,-
115,001,3,source,40,ROVERS,LF,target,left,aqua,imageability,liberal,no,1,1,0.786841655687,-,-
115,001,3,source,41,AHEAD,HF,target,right,yellow,pleasantness,liberal,no,9,1,2.75932740749,-,-
115,001,3,source,42,LOGGED,LF,target,right,yellow,pleasantness,conservative,no,9,1,1.1997397821,-,-
115,001,3,source,43,SPACE,HF,target,left,aqua,imageability,conservative,no,1,1,1.99970378126,-,-
115,001,3,source,44,FEELING,HF,target,right,yellow,pleasantness,conservative,no,9,1,0.840074875885,-,-
115,001,3,source,45,NATIONAL,HF,target,left,aqua,imageability,conservative,no,2,1,1.45321833594,-,-
115,001,3,source,46,BIGNESS,LF,target,right,yellow,pleasantness,liberal,no,8,1,1.15994602073,-,-
115,001,3,source,47,ECONOMIC,HF,target,left,aqua,imageability,conservative,no,2,1,1.70639700496,-,-
115,001,3,recog,0,ECONOMIC,HF,target,left,aqua,imageability,conservative,no,z,1,1.10660245172,1,505
115,001,3,recog,1,ENERGY,HF,target,left,aqua,imageability,liberal,no,z,1,0.640113662943,3,508
115,001,3,recog,2,DWINDLE,LF,target,left,aqua,imageability,liberal,no,z,1,0.613496136325,3,511
115,001,3,recog,3,FENCED,LF,lure,-,-,-,conservative,no,m,1,0.719806768598,3,514
115,001,3,recog,4,SACRAMENT,LF,target,left,aqua,imageability,liberal,no,z,1,0.653024840581,3,517
115,001,3,recog,5,UNFAILING,LF,lure,-,-,-,liberal,no,m,1,0.89345657206,1,518
115,001,3,recog,6,USUAL,HF,lure,-,-,-,conservative,no,m,1,0.840129866987,3,521
115,001,3,recog,7,IRONICAL,LF,target,left,aqua,imageability,conservative,no,z,1,0.866817415609,1,522
115,001,3,recog,8,CUDDLE,LF,target,left,aqua,imageability,conservative,no,z,1,0.560170164467,1,523
115,001,3,recog,9,HAPPEN,HF,target,right,yellow,pleasantness,liberal,no,z,1,0.733247327249,3,526
115,001,3,recog,10,FEELING,HF,target,right,yellow,pleasantness,conservative,no,z,1,0.533575734113,1,527
115,001,3,recog,11,BAIZE,LF,lure,-,-,-,liberal,no,m,1,0.640116962409,1,528
115,001,3,recog,12,LENGTHEN,LF,lure,-,-,-,conservative,no,m,1,0.653550922128,3,531
115,001,3,recog,13,OFTEN,HF,lure,-,-,-,liberal,no,m,1,0.893403047387,1,532
115,001,3,recog,14,OFFER,HF,lure,-,-,-,liberal,no,m,1,0.64022327854,1,533
115,001,3,recog,15,KIMONO,LF,lure,-,-,-,conservative,no,m,1,0.586845615047,3,536
115,001,3,recog,16,JEERED,LF,lure,-,-,-,liberal,no,m,1,1.54644071923,1,537
115,001,3,recog,17,JABBED,LF,lure,-,-,-,conservative,no,m,1,0.813382194761,3,540
115,001,3,recog,18,DUPLICITY,LF,target,left,aqua,imageability,conservative,no,z,1,0.72014954647,1,541
115,001,3,recog,19,LACING,LF,lure,-,-,-,conservative,no,m,1,0.680535422702,3,544
115,001,3,recog,20,FURTHER,HF,lure,-,-,-,conservative,no,m,1,0.840055079088,3,547
115,001,3,recog,21,CHIEF,HF,target,right,yellow,pleasantness,liberal,no,z,1,0.84015992879,3,550
115,001,3,recog,22,SECOND,HF,lure,-,-,-,conservative,no,m,1,0.666838605514,3,553
115,001,3,recog,23,ANYONE,HF,lure,-,-,-,conservative,no,z,0,1.74612880969,-3,550
115,001,3,recog,24,MILES,HF,target,left,aqua,imageability,conservative,no,z,1,1.23967615373,1,551
115,001,3,recog,25,ARRIVED,HF,lure,-,-,-,conservative,no,m,1,0.946712888521,3,554
115,001,3,recog,26,SPACE,HF,target,left,aqua,imageability,conservative,no,z,1,0.813150865523,1,555
115,001,3,recog,27,HOTEL,HF,target,right,yellow,pleasantness,liberal,no,z,1,0.760071987019,3,558
115,001,3,recog,28,SHUNNED,LF,lure,-,-,-,conservative,no,m,1,1.06605861172,3,561
115,001,3,recog,29,EVIDENCE,HF,lure,-,-,-,liberal,yes,z,0,1.05337216438,-1,560
115,001,3,recog,30,SUAVE,LF,target,right,yellow,pleasantness,liberal,no,z,1,1.23987118884,3,563
115,001,3,recog,31,DREADING,LF,target,right,yellow,pleasantness,conservative,no,z,1,1.04009584583,1,564
115,001,3,recog,32,GLOBULAR,LF,lure,-,-,-,liberal,no,m,1,0.600176924707,1,565
115,001,3,recog,33,WHOLE,HF,lure,-,-,-,conservative,no,m,1,0.98676400825,3,568
115,001,3,recog,34,PUCKERED,LF,lure,-,-,-,liberal,no,m,1,1.59975056036,1,569
115,001,3,recog,35,FOLLOWED,HF,lure,-,-,-,conservative,no,m,1,1.69299750634,3,572
115,001,3,recog,36,ATONEMENT,LF,target,right,yellow,pleasantness,conservative,yes,m,0,0.826709105133,-1,571
115,001,3,recog,37,CLUBBED,LF,lure,-,-,-,conservative,no,m,1,1.02668278273,3,574
115,001,3,recog,38,HARDLY,HF,lure,-,-,-,liberal,no,z,0,1.34626687402,-1,573
115,001,3,recog,39,PIGLETS,LF,lure,-,-,-,liberal,no,m,1,0.814386332292,1,574
115,001,3,recog,40,PORCHES,LF,target,right,yellow,pleasantness,liberal,no,z,1,1.53325238643,3,577
115,001,3,recog,41,RAPACIOUS,LF,target,left,aqua,imageability,liberal,no,z,1,1.03976406617,3,580
115,001,3,recog,42,TIMES,HF,target,left,aqua,imageability,liberal,no,z,1,1.04004782026,3,583
115,001,3,recog,43,NOTHING,HF,target,left,aqua,imageability,conservative,no,z,1,2.15930409126,1,584
115,001,3,recog,44,RUNNING,HF,target,right,yellow,pleasantness,conservative,no,z,1,1.71971365033,1,585
115,001,3,recog,45,HISTORY,HF,lure,-,-,-,conservative,no,m,1,1.19998760867,3,588
115,001,3,recog,46,EVOCATION,LF,lure,-,-,-,conservative,no,m,1,0.800145103189,3,591
115,001,3,recog,47,APOSTLE,LF,lure,-,-,-,conservative,no,m,1,0.546822724083,3,594
115,001,3,recog,48,MORNING,HF,lure,-,-,-,liberal,no,m,1,2.25294000764,1,595
115,001,3,recog,49,MYTHIC,LF,lure,-,-,-,conservative,no,m,1,0.906842872823,3,598
115,001,3,recog,50,IGNOBLE,LF,lure,-,-,-,liberal,no,m,1,0.960143915381,1,599
115,001,3,recog,51,FINAL,HF,lure,-,-,-,liberal,no,m,1,0.840060211591,1,600
115,001,3,recog,52,TYPHOID,LF,target,left,aqua,imageability,conservative,no,z,1,0.80016709963,1,601
115,001,3,recog,53,EITHER,HF,target,right,yellow,pleasantness,liberal,no,z,1,1.61288536848,3,604
115,001,3,recog,54,THING,HF,lure,-,-,-,liberal,no,m,1,1.02664282252,1,605
115,001,3,recog,55,JEWELLED,LF,lure,-,-,-,conservative,yes,m,1,0.853437347171,3,608
115,001,3,recog,56,ICONS,LF,target,left,aqua,imageability,liberal,no,z,1,0.826727802108,3,611
115,001,3,recog,57,GIVEN,HF,target,left,aqua,imageability,liberal,no,z,1,1.91941970456,3,614
115,001,3,recog,58,DEVELOPED,HF,lure,-,-,-,liberal,no,m,1,0.626806915974,1,615
115,001,3,recog,59,MOMENT,HF,lure,-,-,-,liberal,no,m,1,0.733183904178,1,616
115,001,3,recog,60,GNOMES,LF,target,right,yellow,pleasantness,conservative,no,z,1,0.613572024046,1,617
115,001,3,recog,61,AHEAD,HF,target,right,yellow,pleasantness,liberal,no,z,1,0.760175736899,3,620
115,001,3,recog,62,ESCALATED,LF,target,left,aqua,imageability,liberal,no,z,1,0.573270878105,3,623
115,001,3,recog,63,UNTIL,HF,target,right,yellow,pleasantness,conservative,no,z,1,0.599916266881,1,624
115,001,3,recog,64,BRING,HF,lure,-,-,-,conservative,no,m,1,0.759852389217,3,627
115,001,3,recog,65,HYPNOSIS,LF,target,right,yellow,pleasantness,conservative,no,z,1,0.733495887032,1,628
115,001,3,recog,66,ROVERS,LF,target,left,aqua,imageability,liberal,no,z,1,0.52016303762,3,631
115,001,3,recog,67,ROUND,HF,target,left,aqua,imageability,liberal,no,z,1,0.60026784333,3,634
115,001,3,recog,68,CLASS,HF,target,right,yellow,pleasantness,conservative,no,z,1,0.6534896987,1,635
115,001,3,recog,69,PEACEABLY,LF,target,left,aqua,imageability,conservative,no,z,1,0.760169137967,1,636
115,001,3,recog,70,MOCCASINS,LF,lure,-,-,-,liberal,no,m,1,0.653433974383,1,637
115,001,3,recog,71,MEETING,HF,target,right,yellow,pleasantness,conservative,no,z,1,0.680130688188,1,638
115,001,3,recog,72,THOUSAND,HF,lure,-,-,-,conservative,no,m,1,0.693483627682,3,641
115,001,3,recog,73,OBVIOUSLY,HF,lure,-,-,-,conservative,no,m,1,1.49315324114,3,644
115,001,3,recog,74,SAYING,HF,lure,-,-,-,liberal,no,m,1,0.880088235057,1,645
115,001,3,recog,75,UTTERANCE,LF,target,left,aqua,imageability,conservative,no,z,1,0.946669995461,1,646
115,001,3,recog,76,BIGNESS,LF,target,right,yellow,pleasantness,liberal,no,z,1,0.586840849151,3,649
115,001,3,recog,77,LOGGED,LF,target,right,yellow,pleasantness,conservative,no,z,1,1.7730649181,1,650
115,001,3,recog,78,AFTERNOON,HF,target,left,aqua,imageability,liberal,no,z,1,0.813172495357,3,653
115,001,3,recog,79,PAVILIONS,LF,target,right,yellow,pleasantness,liberal,no,z,1,0.533525875514,3,656
115,001,3,recog,80,ALONE,HF,target,right,yellow,pleasantness,liberal,no,z,1,0.506635593028,3,659
115,001,3,recog,81,MADDENED,LF,lure,-,-,-,conservative,no,m,1,0.733396536441,3,662
115,001,3,recog,82,BLACK,HF,target,left,aqua,imageability,liberal,no,z,1,0.506918980509,3,665
115,001,3,recog,83,LEOPARDS,LF,target,right,yellow,pleasantness,liberal,no,z,1,0.640160955291,3,668
115,001,3,recog,84,TRIED,HF,target,right,yellow,pleasantness,conservative,yes,m,0,0.800098544055,-1,667
115,001,3,recog,85,SEEMED,HF,lure,-,-,-,liberal,no,m,1,1.453141715,1,668
115,001,3,recog,86,GROUND,HF,lure,-,-,-,conservative,no,m,1,2.91936361363,3,671
115,001,3,recog,87,BINDINGS,LF,target,right,yellow,pleasantness,conservative,no,z,1,0.853375023921,1,672
115,001,3,recog,88,NATIONAL,HF,target,left,aqua,imageability,conservative,no,z,1,0.720184007561,1,673
115,001,3,recog,89,BIJOU,LF,lure,-,-,-,liberal,no,m,1,0.640127227414,1,674
115,001,3,recog,90,VULTURE,LF,lure,-,-,-,liberal,no,m,1,1.1465710848,1,675
115,001,3,recog,91,GAUCHE,LF,target,right,yellow,pleasantness,liberal,no,z,1,0.920051735629,3,678
115,001,3,recog,92,NEARLY,HF,target,left,aqua,imageability,conservative,no,m,0,0.746792002387,-1,677
115,001,3,recog,93,EFFECT,HF,lure,-,-,-,liberal,no,z,0,1.2932070591,-1,676
115,001,3,recog,94,GATEHOUSE,LF,lure,-,-,-,liberal,no,z,0,1.09337012605,-1,675
115,001,3,recog,95,LOPSIDED,LF,lure,-,-,-,liberal,no,m,1,0.773297713763,1,676
115,001,4,source,0,MINISTER,HF,target,right,yellow,pleasantness,conservative,no,9,1,2.47941683036,-,-
115,001,4,source,1,NECESSARY,HF,target,right,yellow,pleasantness,liberal,no,3,0,2.70575837496,-,-
115,001,4,source,2,GORGED,LF,target,right,yellow,pleasantness,liberal,no,9,1,1.26656093711,-,-
115,001,4,source,3,SOVIET,HF,target,right,yellow,pleasantness,conservative,no,9,1,0.839787455723,-,-
115,001,4,source,4,ZENITH,LF,target,left,aqua,imageability,conservative,yes,7,0,0.879797148821,-,-
115,001,4,source,5,FAMILY,HF,target,left,aqua,imageability,liberal,no,3,1,1.99963889176,-,-
115,001,4,source,6,PSALMS,LF,target,right,yellow,pleasantness,liberal,no,9,1,0.840073042848,-,-
115,001,4,source,7,CASES,HF,target,left,aqua,imageability,conservative,no,2,1,1.9329742781,-,-
115,001,4,source,8,POLICE,HF,target,left,aqua,imageability,conservative,no,1,1,1.09341998465,-,-
115,001,4,source,9,BETTER,HF,target,left,aqua,imageability,liberal,yes,3,1,0.760103881858,-,-
115,001,4,source,10,DOING,HF,target,left,aqua,imageability,conservative,no,1,1,1.39994222268,-,-
115,001,4,source,11,BAOBAB,LF,target,left,aqua,imageability,conservative,no,1,1,0.879832343127,-,-
115,001,4,source,12,LIGHT,HF,target,left,aqua,imageability,liberal,no,1,1,0.960081592132,-,-
115,001,4,source,13,AVUNCULAR,LF,target,right,yellow,pleasantness,liberal,no,3,0,1.75979593168,-,-
115,001,4,source,14,VALUE,HF,target,left,aqua,imageability,liberal,no,3,1,1.39984983763,-,-
115,001,4,source,15,SORRY,HF,target,left,aqua,imageability,liberal,no,1,1,2.34617558879,-,-
115,001,4,source,16,BIDDER,LF,target,left,aqua,imageability,conservative,no,1,1,2.25259649655,-,-
115,001,4,source,17,TWAIN,LF,target,left,aqua,imageability,liberal,no,2,1,1.17300787399,-,-
115,001,4,source,18,JAILS,LF,target,right,yellow,pleasantness,liberal,no,9,1,1.49316313954,-,-
115,001,4,source,19,LETTER,HF,target,right,yellow,pleasantness,conservative,no,9,1,1.06658689291,-,-
115,001,4,source,20,REQUIRED,HF,target,left,aqua,imageability,conservative,no,9,0,1.45294264721,-,-
115,001,4,source,21,SUSPEND,LF,target,right,yellow,pleasantness,liberal,no,9,1,1.02669524738,-,-
115,001,4,source,22,STRAIGHT,HF,target,left,aqua,imageability,conservative,no,1,1,1.7997865612,-,-
115,001,4,source,23,ENTIRELY,HF,target,right,yellow,pleasantness,conservative,no,3,0,1.05328601166,-,-
115,001,4,source,24,TIRADE,LF,target,left,aqua,imageability,conservative,no,3,1,1.49318916866,-,-
115,001,4,source,25,HOSPITAL,HF,target,left,aqua,imageability,liberal,no,1,1,1.01345742259,-,-
115,001,4,source,26,ALCHEMIST,LF,target,left,aqua,imageability,liberal,no,1,1,1.53318199782,-,-
115,001,4,source,27,REIGNING,LF,target,left,aqua,imageability,conservative,yes,3,1,1.01328804999,-,-
115,001,4,source,28,PIECE,HF,target,right,yellow,pleasantness,liberal,no,9,1,2.03961778984,-,-
115,001,4,source,29,REBATE,LF,target,right,yellow,pleasantness,conservative,no,9,1,1.15995665235,-,-
115,001,4,source,30,INDEED,HF,target,right,yellow,pleasantness,liberal,no,8,1,1.31987811039,-,-
115,001,4,source,31,LABOUR,HF,target,right,yellow,pleasantness,liberal,no,9,1,1.14666860235,-,-
115,001,4,source,32,WHITE,HF,target,right,yellow,pleasantness,liberal,no,9,1,0.693424603899,-,-
115,001,4,source,33,ELICIT,LF,target,left,aqua,imageability,liberal,yes,7,0,0.799931737712,-,-
115,001,4,source,34,VEERED,LF,target,right,yellow,pleasantness,conservative,no,8,1,1.49317083829,-,-
115,001,4,source,35,RADIAL,LF,target,right,yellow,pleasantness,conservative,no,8,1,1.4529771083,-,-
115,001,4,source,36,LATER,HF,target,right,yellow,pleasantness,conservative,no,9,1,3.07923851254,-,-
115,001,4,source,37,BONANZA,LF,target,left,aqua,imageability,liberal,no,2,1,1.46624206203,-,-
115,001,4,source,38,SAVOURED,LF,target,right,yellow,pleasantness,conservative,no,9,1,0.893555556044,-,-
115,001,4,source,39,TELEPHONE,HF,target,right,yellow,pleasantness,liberal,no,9,1,1.49294097548,-,-
115,001,4,source,40,SHEARING,LF,target,right,yellow,pleasantness,conservative,no,9,1,0.893357954683,-,-
115,001,4,source,41,HOBBLE,LF,target,left,aqua,imageability,conservative,no,2,1,1.85281301485,-,-
115,001,4,source,42,PLEASE,HF,target,left,aqua,imageability,conservative,no,2,1,1.09339615517,-,-
115,001,4,source,43,BOTANIST,LF,target,right,yellow,pleasantness,conservative,no,2,0,0.719878257032,-,-
115,001,4,source,44,TITAN,LF,target,right,yellow,pleasantness,liberal,no,9,1,1.17324910163,-,-
115,001,4,source,45,CERTAIN,HF,target,right,yellow,pleasantness,conservative,no,7,1,2.34613159591,-,-
115,001,4,source,46,FITFUL,LF,target,left,aqua,imageability,liberal,no,3,1,1.15983897139,-,-
115,001,4,source,47,ORIGINALS,LF,target,left,aqua,imageability,liberal,no,2,1,1.1463566195,-,-
115,001,4,recog,0,LIVED,HF,lure,-,-,-,conservative,no,m,1,1.33335496317,3,679
115,001,4,recog,1,ANIMAL,HF,lure,-,-,-,conservative,no,m,1,1.10661784923,3,682
115,001,4,recog,2,DOING,HF,target,left,aqua,imageability,conservative,no,z,1,0.733432830568,1,683
115,001,4,recog,3,BIDDER,LF,target,left,aqua,imageability,conservative,no,z,1,0.640210447283,1,684
115,001,4,recog,4,INTEREST,HF,lure,-,-,-,liberal,no,m,1,0.746745076646,1,685
115,001,4,recog,5,RIVER,HF,lure,-,-,-,liberal,no,m,1,0.826788658928,1,686
115,001,4,recog,6,POLICE,HF,target,left,aqua,imageability,conservative,no,z,1,0.773827827991,1,687
115,001,4,recog,7,VEERED,LF,target,right,yellow,pleasantness,conservative,no,z,1,0.706555012732,1,688
115,001,4,recog,8,NECESSARY,HF,target,right,yellow,pleasantness,liberal,no,z,1,1.279864018,3,691
115,001,4,recog,9,STRAIGHT,HF,target,left,aqua,imageability,conservative,no,z,1,0.826845483068,1,692
115,001,4,recog,10,BETTER,HF,target,left,aqua,imageability,liberal,no,z,1,2.07934006278,3,695
115,001,4,recog,11,CERTAIN,HF,target,right,yellow,pleasantness,conservative,no,z,1,0.880260173904,1,696
115,001,4,recog,12,VALUE,HF,target,left,aqua,imageability,liberal,no,z,1,0.639924126943,3,699
115,001,4,recog,13,FEIGNED,LF,lure,-,-,-,liberal,no,m,1,0.720120217882,1,700
115,001,4,recog,14,JAILS,LF,target,right,yellow,pleasantness,liberal,yes,z,1,0.893408546497,3,703
115,001,4,recog,15,SOVIET,HF,target,right,yellow,pleasantness,conservative,no,z,1,0.786805361559,1,704
115,001,4,recog,16,DRAFTING,LF,lure,-,-,-,conservative,no,m,1,0.88004350896,3,707
115,001,4,recog,17,BLUECOATS,LF,lure,-,-,-,liberal,no,m,1,0.960056296225,1,708
115,001,4,recog,18,CASES,HF,target,left,aqua,imageability,conservative,no,z,1,0.680116390502,1,709
115,001,4,recog,19,HILLSIDES,LF,lure,-,-,-,liberal,no,m,1,0.733406801446,1,710
115,001,4,recog,20,ENTIRELY,HF,target,right,yellow,pleasantness,conservative,no,z,1,1.43959264058,1,711
115,001,4,recog,21,POSITION,HF,lure,-,-,-,liberal,no,m,1,0.973422066976,1,712
115,001,4,recog,22,MATERIAL,HF,lure,-,-,-,liberal,no,m,1,3.45230658346,1,713
115,001,4,recog,23,AVUNCULAR,LF,target,right,yellow,pleasantness,liberal,no,z,1,0.826817620909,3,716
115,001,4,recog,24,FAMILY,HF,target,left,aqua,imageability,liberal,no,z,1,0.680159650168,3,719
115,001,4,recog,25,ASKED,HF,lure,-,-,-,liberal,no,m,1,1.42635591561,1,720
115,001,4,recog,26,HOBBLE,LF,target,left,aqua,imageability,conservative,no,z,1,0.653486765841,1,721
115,001,4,recog,27,REIGNING,LF,target,left,aqua,imageability,conservative,no,z,1,1.37323781012,1,722
115,001,4,recog,28,MENFOLK,LF,lure,-,-,-,conservative,no,m,1,0.720091989117,3,725
115,001,4,recog,29,PEPPERED,LF,lure,-,-,-,conservative,no,m,1,2.41279877582,3,728
115,001,4,recog,30,MUSIC,HF,lure,-,-,-,liberal,no,m,1,0.853462643077,1,729
115,001,4,recog,31,TAMING,LF,lure,-,-,-,liberal,no,m,1,0.746766339873,1,730
115,001,4,recog,32,GEOLOGIST,LF,lure,-,-,-,liberal,no,m,1,0.666838238906,1,731
115,001,4,recog,33,REQUIRED,HF,target,left,aqua,imageability,conservative,no,z,1,1.87966590339,1,732
115,001,4,recog,34,ALREADY,HF,lure,-,-,-,liberal,no,z,0,0.866731996096,-1,731
115,001,4,recog,35,TITAN,LF,target,right,yellow,pleasantness,liberal,no,z,1,0.800212558941,3,734
115,001,4,recog,36,USING,HF,lure,-,-,-,conservative,no,m,1,1.3465300981,3,737
115,001,4,recog,37,KENNEL,LF,lure,-,-,-,conservative,no,m,1,0.666784714233,3,740
115,001,4,recog,38,ADJOURNED,LF,lure,-,-,-,liberal,no,z,0,0.760082618633,-1,739
115,001,4,recog,39,HOEING,LF,lure,-,-,-,conservative,no,m,1,1.97300486781,3,742
115,001,4,recog,40,MOVED,HF,lure,-,-,-,conservative,no,z,0,1.46668529032,-3,739
115,001,4,recog,41,TRYING,HF,lure,-,-,-,liberal,yes,z,0,0.959992506546,-1,738
115,001,4,recog,42,LABOUR,HF,target,right,yellow,pleasantness,liberal,no,z,1,1.01441646742,3,741
115,001,4,recog,43,ZENITH,LF,target,left,aqua,imageability,conservative,no,z,1,0.853414984123,1,742
115,001,4,recog,44,PLEASE,HF,target,left,aqua,imageability,conservative,no,z,1,1.06665178241,1,743
115,001,4,recog,45,SKIDDED,LF,lure,-,-,-,conservative,no,m,1,0.933364714922,3,746
115,001,4,recog,46,SURER,LF,lure,-,-,-,liberal,no,m,1,1.18634871544,1,747
115,001,4,recog,47,PRACTICE,HF,lure,-,-,-,conservative,no,z,0,2.41283360352,-3,744
115,001,4,recog,48,INCLUDING,HF,lure,-,-,-,conservative,no,m,1,2.02633377253,3,747
115,001,4,recog,49,RADIAL,LF,target,right,yellow,pleasantness,conservative,no,z,1,0.733440162715,1,748
115,001,4,recog,50,INDEED,HF,target,right,yellow,pleasantness,liberal,no,z,1,0.920002610244,3,751
115,001,4,recog,51,EMACIATED,LF,lure,-,-,-,conservative,no,m,1,1.00000953179,3,754
115,001,4,recog,52,VARIOUS,HF,lure,-,-,-,conservative,no,m,1,1.11980544881,3,757
115,001,4,recog,53,SORRY,HF,target,left,aqua,imageability,liberal,no,z,1,0.613537196348,3,760
115,001,4,recog,54,MINISTER,HF,target,right,yellow,pleasantness,conservative,no,z,1,0.840063877665,1,761
115,001,4,recog,55,SUSPEND,LF,target,right,yellow,pleasantness,liberal,no,z,1,0.746490284539,3,764
115,001,4,recog,56,PSALMS,LF,target,right,yellow,pleasantness,liberal,no,z,1,0.560305075972,3,767
115,001,4,recog,57,DAUGHTER,HF,lure,-,-,-,liberal,no,m,1,1.05332963793,1,768
115,001,4,recog,58,NIGHT,HF,lure,-,-,-,liberal,no,m,1,1.00002566251,1,769
115,001,4,recog,59,LOANED,LF,lure,-,-,-,conservative,no,m,1,1.01340023184,3,772
115,001,4,recog,60,KEENER,LF,lure,-,-,-,conservative,no,m,1,0.693537152355,3,775
115,001,4,recog,61,LEGALITY,LF,lure,-,-,-,conservative,no,m,1,0.906806578696,3,778
115,001,4,recog,62,REPORT,HF,lure,-,-,-,conservative,no,m,1,0.946268193806,3,781
115,001,4,recog,63,BAOBAB,LF,target,left,aqua,imageability,conservative,no,z,1,0.733443462181,1,782
115,001,4,recog,64,DIVAN,LF,lure,-,-,-,conservative,no,m,1,0.706537782187,3,785
115,001,4,recog,65,PERHAPS,HF,lure,-,-,-,conservative,no,m,1,1.4531512468,3,788
115,001,4,recog,66,BOTANIST,LF,target,right,yellow,pleasantness,conservative,no,z,1,0.813419588711,1,789
115,001,4,recog,67,SAVOURED,LF,target,right,yellow,pleasantness,conservative,no,z,1,0.68006396565,1,790
115,001,4,recog,68,FITFUL,LF,target,left,aqua,imageability,liberal,no,z,1,0.920041837231,3,793
115,001,4,recog,69,PIECE,HF,target,right,yellow,pleasantness,liberal,no,z,1,0.613614550499,3,796
115,001,4,recog,70,ORIGINALS,LF,target,left,aqua,imageability,liberal,no,z,1,0.520204830858,3,799
115,001,4,recog,71,SCHOOL,HF,lure,-,-,-,conservative,no,m,1,0.720134148961,3,802
115,001,4,recog,72,BONANZA,LF,target,left,aqua,imageability,liberal,no,z,1,0.560306175794,3,805
115,001,4,recog,73,LATER,HF,target,right,yellow,pleasantness,conservative,no,z,1,0.733448961291,1,806
115,001,4,recog,74,SMIRK,LF,lure,-,-,-,liberal,no,m,1,0.586810787348,1,807
115,001,4,recog,75,ELICIT,LF,target,left,aqua,imageability,liberal,no,m,0,0.706795873761,-3,804
115,001,4,recog,76,DOLPHIN,LF,lure,-,-,-,liberal,no,m,1,1.2800583199,1,805
115,001,4,recog,77,HOSPITAL,HF,target,left,aqua,imageability,liberal,no,z,1,0.826887276306,3,808
115,001,4,recog,78,SHEARING,LF,target,right,yellow,pleasantness,conservative,no,z,1,0.693459431597,1,809
115,001,4,recog,79,REBATE,LF,target,right,yellow,pleasantness,conservative,no,z,1,0.680116023894,1,810
115,001,4,recog,80,LETTER,HF,target,right,yellow,pleasantness,conservative,no,z,1,0.586951931177,1,811
115,001,4,recog,81,TIRADE,LF,target,left,aqua,imageability,conservative,no,z,1,0.559943601126,1,812
115,001,4,recog,82,GORGED,LF,target,right,yellow,pleasantness,liberal,no,z,1,0.746732611997,3,815
115,001,4,recog,83,MAYBE,HF,lure,-,-,-,conservative,no,m,1,2.41276028205,3,818
115,001,4,recog,84,JADED,LF,lure,-,-,-,conservative,no,m,1,1.10670986768,3,821
115,001,4,recog,85,TWENTY,HF,lure,-,-,-,conservative,no,m,1,0.65356155374,3,824
115,001,4,recog,86,WHITE,HF,target,right,yellow,pleasantness,liberal,yes,z,1,0.786756969389,3,827
115,001,4,recog,87,FELLS,LF,lure,-,-,-,liberal,no,m,1,1.16003987222,1,828
115,001,4,recog,88,TELEPHONE,HF,target,right,yellow,pleasantness,liberal,no,z,1,0.733467658266,3,831
115,001,4,recog,89,LEARN,HF,lure,-,-,-,liberal,no,m,1,0.77342822598,1,832
115,001,4,recog,90,RATHER,HF,lure,-,-,-,liberal,yes,z,0,0.640270937496,-1,831
115,001,4,recog,91,LIGHT,HF,target,left,aqua,imageability,liberal,no,z,1,1.1199696889,3,834
115,001,4,recog,92,LEPROSY,LF,lure,-,-,-,liberal,no,m,1,0.640161321898,1,835
115,001,4,recog,93,UNOPENED,LF,lure,-,-,-,liberal,no,m,1,0.840116669123,1,836
115,001,4,recog,94,ALCHEMIST,LF,target,left,aqua,imageability,liberal,no,z,1,0.600186089891,3,839
115,001,4,recog,95,TWAIN,LF,target,left,aqua,imageability,liberal,no,z,1,0.573227618438,3,842
