date,subj,session,cycle,task,trial,item,wf,type,source,colour,encoding,bias,null,response,corr,rt,points,total
2019_Apr_29,116,001,0,source,0,WAYSIDE,LF,target,right,aqua,pleasantness,conservative,no,3,0,4.47873714033,-,-
2019_Apr_29,116,001,0,source,1,GETTING,HF,target,left,yellow,imageability,liberal,no,3,1,4.17214451368,-,-
2019_Apr_29,116,001,0,source,2,CLICKS,LF,target,left,yellow,imageability,liberal,no,1,1,1.45291955095,-,-
2019_Apr_29,116,001,0,source,3,FRONT,HF,target,left,yellow,imageability,liberal,no,1,1,1.39953052263,-,-
2019_Apr_29,116,001,0,source,4,QUESTION,HF,target,left,yellow,imageability,conservative,no,1,1,1.38633705733,-,-
2019_Apr_29,116,001,0,source,5,ADDED,HF,target,right,aqua,pleasantness,liberal,no,8,1,2.83905057495,-,-
2019_Apr_29,116,001,0,source,6,UNTIL,HF,target,right,aqua,pleasantness,liberal,no,2,0,2.4391897391,-,-
2019_Apr_29,116,001,0,source,7,ALTHOUGH,HF,target,right,aqua,pleasantness,conservative,no,8,1,1.81307094512,-,-
2019_Apr_29,116,001,0,source,8,UNSAVOURY,LF,target,right,aqua,pleasantness,conservative,no,9,1,1.42671519082,-,-
2019_Apr_29,116,001,0,source,9,CERTAIN,HF,target,right,aqua,pleasantness,liberal,no,8,1,1.8927453538,-,-
2019_Apr_29,116,001,0,source,10,ADVERSELY,LF,target,right,aqua,pleasantness,conservative,no,9,1,1.95937953906,-,-
2019_Apr_29,116,001,0,source,11,FASCINATE,LF,target,left,yellow,imageability,conservative,no,3,1,2.19936877547,-,-
2019_Apr_29,116,001,0,source,12,TAKEN,HF,target,right,aqua,pleasantness,liberal,no,8,1,1.62618368348,-,-
2019_Apr_29,116,001,0,source,13,BASIC,HF,target,left,yellow,imageability,liberal,no,2,1,1.75991837854,-,-
2019_Apr_29,116,001,0,source,14,ARGUABLE,LF,target,left,yellow,imageability,conservative,no,2,1,3.7055908354,-,-
2019_Apr_29,116,001,0,source,15,VOICE,HF,target,right,aqua,pleasantness,liberal,yes,3,0,1.19972108513,-,-
2019_Apr_29,116,001,0,source,16,LARGE,HF,target,left,yellow,imageability,liberal,no,1,1,2.94591478432,-,-
2019_Apr_29,116,001,0,source,17,MUTATIONS,LF,target,left,yellow,imageability,liberal,no,1,1,1.08001022101,-,-
2019_Apr_29,116,001,0,source,18,DRUDGERY,LF,target,right,aqua,pleasantness,conservative,no,9,1,1.27970381059,-,-
2019_Apr_29,116,001,0,source,19,TOWARDS,HF,target,right,aqua,pleasantness,conservative,no,2,0,3.58563947687,-,-
2019_Apr_29,116,001,0,source,20,ARDENTLY,LF,target,left,yellow,imageability,conservative,no,7,0,1.99936027018,-,-
2019_Apr_29,116,001,0,source,21,THUDDING,LF,target,right,aqua,pleasantness,liberal,no,9,1,2.14620924334,-,-
2019_Apr_29,116,001,0,source,22,GYPSIES,LF,target,right,aqua,pleasantness,liberal,no,9,1,0.773502647272,-,-
2019_Apr_29,116,001,0,source,23,ORIGINALS,LF,target,right,aqua,pleasantness,liberal,yes,8,1,1.08007657694,-,-
2019_Apr_29,116,001,0,source,24,TOADS,LF,target,right,aqua,pleasantness,conservative,no,9,1,1.75969914734,-,-
2019_Apr_29,116,001,0,source,25,HOTEL,HF,target,left,yellow,imageability,conservative,no,1,1,2.49248968184,-,-
2019_Apr_29,116,001,0,source,26,REPORT,HF,target,right,aqua,pleasantness,liberal,no,8,1,3.0789668565,-,-
2019_Apr_29,116,001,0,source,27,UNDER,HF,target,left,yellow,imageability,conservative,no,8,0,3.35904130712,-,-
2019_Apr_29,116,001,0,source,28,OTHERS,HF,target,right,aqua,pleasantness,conservative,no,9,1,1.1064019175,-,-
2019_Apr_29,116,001,0,source,29,BROUGHT,HF,target,left,yellow,imageability,liberal,no,3,1,2.69264006417,-,-
2019_Apr_29,116,001,0,source,30,LAVISHED,LF,target,right,aqua,pleasantness,liberal,yes,3,0,0.933387811186,-,-
2019_Apr_29,116,001,0,source,31,LOPSIDED,LF,target,left,yellow,imageability,conservative,no,3,1,4.74505978266,-,-
2019_Apr_29,116,001,0,source,32,RINSING,LF,target,left,yellow,imageability,liberal,no,1,1,1.19960890328,-,-
2019_Apr_29,116,001,0,source,33,HERSELF,HF,target,right,aqua,pleasantness,conservative,no,9,1,1.93306702975,-,-
2019_Apr_29,116,001,0,source,34,ELUDE,LF,target,left,yellow,imageability,liberal,no,3,1,1.66617907889,-,-
2019_Apr_29,116,001,0,source,35,SITTING,HF,target,left,yellow,imageability,conservative,no,1,1,2.05290803948,-,-
2019_Apr_29,116,001,0,source,36,ARSENALS,LF,target,left,yellow,imageability,conservative,no,1,1,1.05304111795,-,-
2019_Apr_29,116,001,0,source,37,TITAN,LF,target,left,yellow,imageability,liberal,no,1,1,0.839801020194,-,-
2019_Apr_29,116,001,0,source,38,CANNOT,HF,target,right,aqua,pleasantness,conservative,no,8,1,2.6126870339,-,-
2019_Apr_29,116,001,0,source,39,YARDSTICK,LF,target,right,aqua,pleasantness,liberal,yes,7,1,1.01331737858,-,-
2019_Apr_29,116,001,0,source,40,WANTED,HF,target,right,aqua,pleasantness,conservative,no,3,0,3.31908403887,-,-
2019_Apr_29,116,001,0,source,41,KERNEL,LF,target,right,aqua,pleasantness,liberal,no,9,1,1.34629913547,-,-
2019_Apr_29,116,001,0,source,42,ROSEBUD,LF,target,right,aqua,pleasantness,conservative,no,9,1,0.786710410255,-,-
2019_Apr_29,116,001,0,source,43,SOVIET,HF,target,left,yellow,imageability,liberal,no,1,1,0.973148211286,-,-
2019_Apr_29,116,001,0,source,44,HYPNOSIS,LF,target,left,yellow,imageability,conservative,no,1,1,1.29325251841,-,-
2019_Apr_29,116,001,0,source,45,TROUBLE,HF,target,left,yellow,imageability,conservative,no,1,1,2.53252650388,-,-
2019_Apr_29,116,001,0,source,46,RATHER,HF,target,left,yellow,imageability,conservative,no,7,0,1.99963302604,-,-
2019_Apr_29,116,001,0,source,47,PIQUE,LF,target,left,yellow,imageability,liberal,no,1,1,1.21324706329,-,-
2019_Apr_29,116,001,0,recog,0,GENERAL,HF,lure,-,-,-,conservative,no,m,1,4.71855040521,3,3
2019_Apr_29,116,001,0,recog,1,FURTHER,HF,lure,-,-,-,conservative,no,z,0,2.30615929676,-3,0
2019_Apr_29,116,001,0,recog,2,CAUGHT,HF,lure,-,-,-,liberal,no,z,0,2.81271460278,-1,-1
2019_Apr_29,116,001,0,recog,3,DROLL,LF,lure,-,-,-,liberal,no,m,1,1.69302426867,1,0
2019_Apr_29,116,001,0,recog,4,CLICKS,LF,target,left,yellow,imageability,liberal,no,z,1,1.8796263098,3,3
2019_Apr_29,116,001,0,recog,5,WANTED,HF,target,right,aqua,pleasantness,conservative,no,z,1,3.58562701222,1,4
2019_Apr_29,116,001,0,recog,6,TITAN,LF,target,left,yellow,imageability,liberal,no,z,1,2.74613687505,3,7
2019_Apr_29,116,001,0,recog,7,OPENED,HF,lure,-,-,-,liberal,no,m,1,1.46649832057,1,8
2019_Apr_29,116,001,0,recog,8,TOMBSTONE,LF,lure,-,-,-,conservative,no,m,1,1.37329280123,3,11
2019_Apr_29,116,001,0,recog,9,SIMILAR,HF,lure,-,-,-,liberal,no,m,1,1.58647130894,1,12
2019_Apr_29,116,001,0,recog,10,SITTING,HF,target,left,yellow,imageability,conservative,no,z,1,1.23988218706,1,13
2019_Apr_29,116,001,0,recog,11,MUTATIONS,LF,target,left,yellow,imageability,liberal,no,z,1,1.35985187597,3,16
2019_Apr_29,116,001,0,recog,12,UNTIL,HF,target,right,aqua,pleasantness,liberal,no,z,1,3.99878066396,3,19
2019_Apr_29,116,001,0,recog,13,LAVISHED,LF,target,right,aqua,pleasantness,liberal,no,z,1,0.866774522549,3,22
2019_Apr_29,116,001,0,recog,14,SOMEONE,HF,lure,-,-,-,conservative,no,m,1,1.98625625707,3,25
2019_Apr_29,116,001,0,recog,15,SOVIET,HF,target,left,yellow,imageability,liberal,no,z,1,0.906300293946,3,28
2019_Apr_29,116,001,0,recog,16,SMALL,HF,lure,-,-,-,liberal,no,m,1,1.13313345901,1,29
2019_Apr_29,116,001,0,recog,17,PIQUE,LF,target,left,yellow,imageability,liberal,no,z,1,0.880023345556,3,32
2019_Apr_29,116,001,0,recog,18,SCRABBLE,LF,lure,-,-,-,liberal,no,m,1,0.999983136062,1,33
2019_Apr_29,116,001,0,recog,19,WEIRDLY,LF,lure,-,-,-,conservative,no,m,1,5.61151792307,3,36
2019_Apr_29,116,001,0,recog,20,APPEARED,HF,lure,-,-,-,liberal,no,z,0,3.85229499867,-1,35
2019_Apr_29,116,001,0,recog,21,ADDED,HF,target,right,aqua,pleasantness,liberal,no,z,1,0.946673661535,3,38
2019_Apr_29,116,001,0,recog,22,HYPNOSIS,LF,target,left,yellow,imageability,conservative,no,z,1,1.11993046192,1,39
2019_Apr_29,116,001,0,recog,23,BROUGHT,HF,target,left,yellow,imageability,liberal,no,z,1,1.79969014347,3,42
2019_Apr_29,116,001,0,recog,24,OTHERS,HF,target,right,aqua,pleasantness,conservative,no,z,1,1.06641165459,1,43
2019_Apr_29,116,001,0,recog,25,RETURN,HF,lure,-,-,-,liberal,no,z,0,1.39983150726,-1,42
2019_Apr_29,116,001,0,recog,26,PARENTS,HF,lure,-,-,-,liberal,no,m,1,1.39986743478,1,43
2019_Apr_29,116,001,0,recog,27,TWENTY,HF,lure,-,-,-,conservative,no,m,1,1.38627876676,3,46
2019_Apr_29,116,001,0,recog,28,GLIDED,LF,lure,-,-,-,liberal,no,m,1,1.55974929923,1,47
2019_Apr_29,116,001,0,recog,29,ORPHANAGE,LF,lure,-,-,-,conservative,no,m,1,3.73254454096,3,50
2019_Apr_29,116,001,0,recog,30,VOICE,HF,target,right,aqua,pleasantness,liberal,no,z,1,1.61280618129,3,53
2019_Apr_29,116,001,0,recog,31,WARDROBES,LF,lure,-,-,-,liberal,no,m,1,0.946657530812,1,54
2019_Apr_29,116,001,0,recog,32,MACARONI,LF,lure,-,-,-,conservative,no,m,1,1.97293851188,3,57
2019_Apr_29,116,001,0,recog,33,FASCINATE,LF,target,left,yellow,imageability,conservative,no,z,1,2.71945995805,1,58
2019_Apr_29,116,001,0,recog,34,DRUDGERY,LF,target,right,aqua,pleasantness,conservative,no,z,1,1.00000073321,1,59
2019_Apr_29,116,001,0,recog,35,HAUNCHES,LF,lure,-,-,-,liberal,no,m,1,1.22669385427,1,60
2019_Apr_29,116,001,0,recog,36,REBATE,LF,lure,-,-,-,liberal,no,m,1,1.3332072204,1,61
2019_Apr_29,116,001,0,recog,37,ODOURS,LF,lure,-,-,-,conservative,no,z,0,1.39979741278,-3,58
2019_Apr_29,116,001,0,recog,38,SERIOUS,HF,lure,-,-,-,conservative,no,m,1,2.3461363618,3,61
2019_Apr_29,116,001,0,recog,39,EDICT,LF,lure,-,-,-,conservative,no,m,1,1.4798178988,3,64
2019_Apr_29,116,001,0,recog,40,CERTAIN,HF,target,right,aqua,pleasantness,liberal,yes,z,1,2.99920592848,3,67
2019_Apr_29,116,001,0,recog,41,UNSAVOURY,LF,target,right,aqua,pleasantness,conservative,no,z,1,1.89304377218,1,68
2019_Apr_29,116,001,0,recog,42,RINSING,LF,target,left,yellow,imageability,liberal,no,z,1,2.5727118019,3,71
2019_Apr_29,116,001,0,recog,43,ARSENALS,LF,target,left,yellow,imageability,conservative,no,z,1,1.37324294263,1,72
2019_Apr_29,116,001,0,recog,44,LAWFUL,LF,lure,-,-,-,conservative,no,m,1,3.50565491837,3,75
2019_Apr_29,116,001,0,recog,45,GETTING,HF,target,left,yellow,imageability,liberal,no,z,1,3.86554785436,3,78
2019_Apr_29,116,001,0,recog,46,TROUBLE,HF,target,left,yellow,imageability,conservative,no,z,1,1.00003116162,1,79
2019_Apr_29,116,001,0,recog,47,SUPPORT,HF,lure,-,-,-,liberal,no,m,1,1.59977658948,1,80
2019_Apr_29,116,001,0,recog,48,TACITLY,LF,lure,-,-,-,conservative,no,m,1,1.97292018151,3,83
2019_Apr_29,116,001,0,recog,49,EFFECT,HF,lure,-,-,-,liberal,no,m,1,1.45289425504,1,84
2019_Apr_29,116,001,0,recog,50,LOPSIDED,LF,target,left,yellow,imageability,conservative,no,z,1,1.18663723543,1,85
2019_Apr_29,116,001,0,recog,51,HOTEL,HF,target,left,yellow,imageability,conservative,no,z,1,1.73304715964,1,86
2019_Apr_29,116,001,0,recog,52,RATHER,HF,target,left,yellow,imageability,conservative,no,z,1,2.23980666595,1,87
2019_Apr_29,116,001,0,recog,53,QUICKLY,HF,lure,-,-,-,liberal,yes,z,0,1.11999755106,-1,86
2019_Apr_29,116,001,0,recog,54,ADVERSELY,LF,target,right,aqua,pleasantness,conservative,no,z,1,2.86594598994,1,87
2019_Apr_29,116,001,0,recog,55,TAKEN,HF,target,right,aqua,pleasantness,liberal,no,z,1,1.34658875527,3,90
2019_Apr_29,116,001,0,recog,56,YARDSTICK,LF,target,right,aqua,pleasantness,liberal,no,z,1,0.879817312226,3,93
2019_Apr_29,116,001,0,recog,57,FRONT,HF,target,left,yellow,imageability,liberal,no,z,1,0.78668218149,3,96
2019_Apr_29,116,001,0,recog,58,CANNOT,HF,target,right,aqua,pleasantness,conservative,no,z,1,1.17323040465,1,97
2019_Apr_29,116,001,0,recog,59,GAZELLE,LF,lure,-,-,-,conservative,no,m,1,1.27987025033,3,100
2019_Apr_29,116,001,0,recog,60,KERNEL,LF,target,right,aqua,pleasantness,liberal,no,z,1,0.906452069389,3,103
2019_Apr_29,116,001,0,recog,61,HOWEVER,HF,lure,-,-,-,conservative,no,z,0,2.13291202817,-3,100
2019_Apr_29,116,001,0,recog,62,VAINLY,LF,lure,-,-,-,conservative,no,z,0,1.18673145352,-3,97
2019_Apr_29,116,001,0,recog,63,HERSELF,HF,target,right,aqua,pleasantness,conservative,no,z,1,4.19885295892,1,98
2019_Apr_29,116,001,0,recog,64,LIVED,HF,lure,-,-,-,conservative,no,z,0,1.18658664361,-3,95
2019_Apr_29,116,001,0,recog,65,EVENING,HF,lure,-,-,-,liberal,no,z,0,3.51925165175,-1,94
2019_Apr_29,116,001,0,recog,66,ISOLATING,LF,lure,-,-,-,liberal,no,m,1,1.06669797493,1,95
2019_Apr_29,116,001,0,recog,67,ARGUABLE,LF,target,left,yellow,imageability,conservative,no,z,1,4.78484767831,1,96
2019_Apr_29,116,001,0,recog,68,DAILIES,LF,lure,-,-,-,liberal,no,m,1,1.89301591003,1,97
2019_Apr_29,116,001,0,recog,69,WAYSIDE,LF,target,right,aqua,pleasantness,conservative,yes,m,0,1.14658024998,-1,96
2019_Apr_29,116,001,0,recog,70,ORIGINALS,LF,target,right,aqua,pleasantness,liberal,no,z,1,1.97294841028,3,99
2019_Apr_29,116,001,0,recog,71,REEDY,LF,lure,-,-,-,liberal,no,m,1,1.00010704935,1,100
2019_Apr_29,116,001,0,recog,72,TOADS,LF,target,right,aqua,pleasantness,conservative,no,z,1,1.15996178485,1,101
2019_Apr_29,116,001,0,recog,73,LOOKED,HF,lure,-,-,-,conservative,no,z,0,1.853079905,-3,98
2019_Apr_29,116,001,0,recog,74,ALTHOUGH,HF,target,right,aqua,pleasantness,conservative,no,z,1,1.82633296599,1,99
2019_Apr_29,116,001,0,recog,75,THUDDING,LF,target,right,aqua,pleasantness,liberal,no,z,1,1.31984988162,3,102
2019_Apr_29,116,001,0,recog,76,UNDER,HF,target,left,yellow,imageability,conservative,no,z,1,1.29320522606,1,103
2019_Apr_29,116,001,0,recog,77,OBVIOUSLY,HF,lure,-,-,-,liberal,no,m,1,1.97295647564,1,104
2019_Apr_29,116,001,0,recog,78,ELUDE,LF,target,left,yellow,imageability,liberal,no,m,0,0.960137683056,-3,101
2019_Apr_29,116,001,0,recog,79,TOTAL,HF,lure,-,-,-,conservative,no,m,1,2.11965477319,3,104
2019_Apr_29,116,001,0,recog,80,MERELY,HF,lure,-,-,-,conservative,no,m,1,1.46622666453,3,107
2019_Apr_29,116,001,0,recog,81,BASIC,HF,target,left,yellow,imageability,liberal,no,z,1,1.13334645788,3,110
2019_Apr_29,116,001,0,recog,82,BRING,HF,lure,-,-,-,conservative,no,z,0,2.49275327252,-3,107
2019_Apr_29,116,001,0,recog,83,ROSEBUD,LF,target,right,aqua,pleasantness,conservative,no,m,0,0.879813646152,-1,106
2019_Apr_29,116,001,0,recog,84,REPORT,HF,target,right,aqua,pleasantness,liberal,no,z,1,1.87949029847,3,109
2019_Apr_29,116,001,0,recog,85,HOIST,LF,lure,-,-,-,conservative,no,m,1,2.35968690266,3,112
2019_Apr_29,116,001,0,recog,86,LARGE,HF,target,left,yellow,imageability,liberal,no,z,1,1.09330120386,3,115
2019_Apr_29,116,001,0,recog,87,ARDENTLY,LF,target,left,yellow,imageability,conservative,no,z,1,1.49314700881,1,116
2019_Apr_29,116,001,0,recog,88,BEFALL,LF,lure,-,-,-,liberal,yes,z,0,1.05328637826,-1,115
2019_Apr_29,116,001,0,recog,89,TOWARDS,HF,target,right,aqua,pleasantness,conservative,no,z,1,3.29218679084,1,116
2019_Apr_29,116,001,0,recog,90,QUESTION,HF,target,left,yellow,imageability,conservative,no,z,1,1.37317145419,1,117
2019_Apr_29,116,001,0,recog,91,PELTED,LF,lure,-,-,-,conservative,no,m,1,1.21334678049,3,120
2019_Apr_29,116,001,0,recog,92,BIKINI,LF,lure,-,-,-,liberal,no,m,1,1.14663047519,1,121
2019_Apr_29,116,001,0,recog,93,GYPSIES,LF,target,right,aqua,pleasantness,liberal,no,z,1,0.920048069555,3,124
2019_Apr_29,116,001,0,recog,94,UGLIEST,LF,lure,-,-,-,liberal,no,m,1,1.15991192625,1,125
2019_Apr_29,116,001,0,recog,95,NIGHT,HF,lure,-,-,-,conservative,no,m,1,3.07915089339,3,128
2019_Apr_29,116,001,1,source,0,INMATE,LF,target,right,aqua,pleasantness,conservative,no,9,1,1.59978172198,-,-
2019_Apr_29,116,001,1,source,1,DEVELOPED,HF,target,left,yellow,imageability,conservative,no,3,1,2.2259470751,-,-
2019_Apr_29,116,001,1,source,2,SIBLINGS,LF,target,right,aqua,pleasantness,conservative,no,9,1,0.9733384805,-,-
2019_Apr_29,116,001,1,source,3,AIRBED,LF,target,right,aqua,pleasantness,liberal,no,9,1,0.973367075874,-,-
2019_Apr_29,116,001,1,source,4,WEEKS,HF,target,left,yellow,imageability,conservative,no,2,1,1.61285970597,-,-
2019_Apr_29,116,001,1,source,5,MOISTENED,LF,target,left,yellow,imageability,liberal,no,1,1,1.23980263327,-,-
2019_Apr_29,116,001,1,source,6,PIECE,HF,target,left,yellow,imageability,liberal,no,1,1,0.999761338615,-,-
2019_Apr_29,116,001,1,source,7,BLUECOATS,LF,target,left,yellow,imageability,liberal,no,1,1,0.999954907296,-,-
2019_Apr_29,116,001,1,source,8,FAMILY,HF,target,left,yellow,imageability,liberal,no,9,0,1.97295684225,-,-
2019_Apr_29,116,001,1,source,9,TEDIUM,LF,target,right,aqua,pleasantness,conservative,yes,7,1,1.00013674454,-,-
2019_Apr_29,116,001,1,source,10,BUTCHERED,LF,target,left,yellow,imageability,conservative,no,1,1,0.893379584517,-,-
2019_Apr_29,116,001,1,source,11,EXCEPT,HF,target,right,aqua,pleasantness,liberal,no,3,0,2.05291280537,-,-
2019_Apr_29,116,001,1,source,12,JABBED,LF,target,left,yellow,imageability,liberal,no,1,1,0.840092839646,-,-
2019_Apr_29,116,001,1,source,13,GARDEN,HF,target,right,aqua,pleasantness,conservative,no,9,1,0.853477307372,-,-
2019_Apr_29,116,001,1,source,14,SHIELDING,LF,target,left,yellow,imageability,conservative,no,1,1,1.54647004781,-,-
2019_Apr_29,116,001,1,source,15,THANK,HF,target,right,aqua,pleasantness,liberal,no,3,0,1.47979553575,-,-
2019_Apr_29,116,001,1,source,16,REJOICED,LF,target,right,aqua,pleasantness,liberal,no,9,1,0.813407857276,-,-
2019_Apr_29,116,001,1,source,17,GLASS,HF,target,right,aqua,pleasantness,liberal,no,9,1,1.1599295234,-,-
2019_Apr_29,116,001,1,source,18,AHEAD,HF,target,right,aqua,pleasantness,liberal,yes,8,1,0.706859296833,-,-
2019_Apr_29,116,001,1,source,19,BETTER,HF,target,left,yellow,imageability,liberal,no,3,1,2.17288909321,-,-
2019_Apr_29,116,001,1,source,20,RECENT,HF,target,right,aqua,pleasantness,conservative,yes,7,1,0.733196735435,-,-
2019_Apr_29,116,001,1,source,21,KRONOR,LF,target,left,yellow,imageability,liberal,no,1,1,1.10664277853,-,-
2019_Apr_29,116,001,1,source,22,PLEASE,HF,target,left,yellow,imageability,liberal,no,2,1,1.29307471384,-,-
2019_Apr_29,116,001,1,source,23,VESTIBULE,LF,target,left,yellow,imageability,liberal,no,1,1,0.853401786258,-,-
2019_Apr_29,116,001,1,source,24,ACCORDING,HF,target,left,yellow,imageability,liberal,no,7,0,1.29299076076,-,-
2019_Apr_29,116,001,1,source,25,RUNNING,HF,target,right,aqua,pleasantness,liberal,no,9,1,0.919849001765,-,-
2019_Apr_29,116,001,1,source,26,SICKENED,LF,target,right,aqua,pleasantness,conservative,no,9,1,1.25317940224,-,-
2019_Apr_29,116,001,1,source,27,NEITHER,HF,target,left,yellow,imageability,conservative,yes,7,0,0.746809232933,-,-
2019_Apr_29,116,001,1,source,28,FENCED,LF,target,right,aqua,pleasantness,liberal,no,9,1,0.946951916513,-,-
2019_Apr_29,116,001,1,source,29,WHATEVER,HF,target,left,yellow,imageability,conservative,no,1,1,1.61309433467,-,-
2019_Apr_29,116,001,1,source,30,DUNGEON,LF,target,right,aqua,pleasantness,conservative,no,9,1,0.746516680269,-,-
2019_Apr_29,116,001,1,source,31,INDEED,HF,target,left,yellow,imageability,conservative,no,3,1,1.63983834082,-,-
2019_Apr_29,116,001,1,source,32,PUMPKIN,LF,target,right,aqua,pleasantness,conservative,no,9,1,0.693445867126,-,-
2019_Apr_29,116,001,1,source,33,INITIATES,LF,target,right,aqua,pleasantness,liberal,no,9,1,1.01333754199,-,-
2019_Apr_29,116,001,1,source,34,BRACES,LF,target,left,yellow,imageability,conservative,no,2,1,2.02625458534,-,-
2019_Apr_29,116,001,1,source,35,SECOND,HF,target,right,aqua,pleasantness,conservative,no,3,0,1.78637203167,-,-
2019_Apr_29,116,001,1,source,36,FORCE,HF,target,left,yellow,imageability,liberal,no,3,1,1.1599592186,-,-
2019_Apr_29,116,001,1,source,37,SHALL,HF,target,right,aqua,pleasantness,conservative,no,3,0,1.07993543311,-,-
2019_Apr_29,116,001,1,source,38,LOLLED,LF,target,left,yellow,imageability,conservative,no,1,1,0.919991245416,-,-
2019_Apr_29,116,001,1,source,39,MOTHER,HF,target,right,aqua,pleasantness,conservative,no,9,1,1.97783601947,-,-
2019_Apr_29,116,001,1,source,40,TYRANTS,LF,target,left,yellow,imageability,liberal,no,1,1,1.0533182731,-,-
2019_Apr_29,116,001,1,source,41,NOBLEMAN,LF,target,right,aqua,pleasantness,liberal,no,9,1,2.1726540979,-,-
2019_Apr_29,116,001,1,source,42,EXACTLY,HF,target,right,aqua,pleasantness,conservative,no,3,0,1.95937587298,-,-
2019_Apr_29,116,001,1,source,43,VENDETTA,LF,target,left,yellow,imageability,conservative,no,1,1,1.66641297438,-,-
2019_Apr_29,116,001,1,source,44,PAPER,HF,target,left,yellow,imageability,conservative,no,1,1,1.22669422087,-,-
2019_Apr_29,116,001,1,source,45,HUBBUB,LF,target,left,yellow,imageability,conservative,no,1,1,1.15994638734,-,-
2019_Apr_29,116,001,1,source,46,MATERIAL,HF,target,right,aqua,pleasantness,liberal,no,9,1,1.95978134071,-,-
2019_Apr_29,116,001,1,source,47,PHANTOMS,LF,target,right,aqua,pleasantness,liberal,no,9,1,0.813155264812,-,-
2019_Apr_29,116,001,1,recog,0,DOCTOR,HF,lure,-,-,-,liberal,no,m,1,1.3332218847,1,129
2019_Apr_29,116,001,1,recog,1,DIABETIC,LF,lure,-,-,-,conservative,no,m,1,1.2532222953,3,132
2019_Apr_29,116,001,1,recog,2,ANAEMIC,LF,lure,-,-,-,liberal,no,m,1,1.07995889598,1,133
2019_Apr_29,116,001,1,recog,3,HIMSELF,HF,lure,-,-,-,conservative,no,z,0,1.77303302326,-3,130
2019_Apr_29,116,001,1,recog,4,EARLIER,HF,lure,-,-,-,conservative,no,m,1,1.99971917877,3,133
2019_Apr_29,116,001,1,recog,5,KRONOR,LF,target,left,yellow,imageability,liberal,no,z,1,0.986626530495,3,136
2019_Apr_29,116,001,1,recog,6,VESTIBULE,LF,target,left,yellow,imageability,liberal,no,z,1,0.826731468182,3,139
2019_Apr_29,116,001,1,recog,7,BRACES,LF,target,left,yellow,imageability,conservative,no,z,1,0.933365448137,1,140
2019_Apr_29,116,001,1,recog,8,RIOTERS,LF,lure,-,-,-,liberal,no,m,1,1.07992553472,1,141
2019_Apr_29,116,001,1,recog,9,NEITHER,HF,target,left,yellow,imageability,conservative,no,m,0,1.22658313885,-1,140
2019_Apr_29,116,001,1,recog,10,GOBBLE,LF,lure,-,-,-,conservative,no,m,1,1.94653581717,3,143
2019_Apr_29,116,001,1,recog,11,NOBLEMAN,LF,target,right,aqua,pleasantness,liberal,no,z,1,1.35960661565,3,146
2019_Apr_29,116,001,1,recog,12,ACCORDING,HF,target,left,yellow,imageability,liberal,no,z,1,1.43996621347,3,149
2019_Apr_29,116,001,1,recog,13,SLOWLY,HF,lure,-,-,-,conservative,no,m,1,1.15992769037,3,152
2019_Apr_29,116,001,1,recog,14,RECENT,HF,target,right,aqua,pleasantness,conservative,no,z,1,2.1063022003,1,153
2019_Apr_29,116,001,1,recog,15,MAJOR,HF,lure,-,-,-,conservative,no,m,1,1.69319290805,3,156
2019_Apr_29,116,001,1,recog,16,HANDS,HF,lure,-,-,-,liberal,no,m,1,1.22642733072,1,157
2019_Apr_29,116,001,1,recog,17,EXACTLY,HF,target,right,aqua,pleasantness,conservative,no,z,1,2.06622798431,1,158
2019_Apr_29,116,001,1,recog,18,GOADED,LF,lure,-,-,-,liberal,no,m,1,2.87900234409,1,159
2019_Apr_29,116,001,1,recog,19,INEDIBLE,LF,lure,-,-,-,liberal,no,m,1,2.45264239579,1,160
2019_Apr_29,116,001,1,recog,20,BUTCHERED,LF,target,left,yellow,imageability,conservative,no,z,1,1.18658627701,1,161
2019_Apr_29,116,001,1,recog,21,AMONG,HF,lure,-,-,-,liberal,no,m,1,1.86992587933,1,162
2019_Apr_29,116,001,1,recog,22,FORCE,HF,target,left,yellow,imageability,liberal,no,z,1,1.21328409063,3,165
2019_Apr_29,116,001,1,recog,23,TYRANTS,LF,target,left,yellow,imageability,liberal,no,z,1,0.960204038986,3,168
2019_Apr_29,116,001,1,recog,24,MANDARIN,LF,lure,-,-,-,conservative,no,m,1,1.11997775427,3,171
2019_Apr_29,116,001,1,recog,25,TEDIUM,LF,target,right,aqua,pleasantness,conservative,no,z,1,1.18664860026,1,172
2019_Apr_29,116,001,1,recog,26,SUING,LF,lure,-,-,-,liberal,no,m,1,1.29327414824,1,173
2019_Apr_29,116,001,1,recog,27,BLUECOATS,LF,target,left,yellow,imageability,liberal,no,z,1,1.37323817673,3,176
2019_Apr_29,116,001,1,recog,28,EVIDENCE,HF,lure,-,-,-,liberal,no,m,1,1.42657771306,1,177
2019_Apr_29,116,001,1,recog,29,SICKENED,LF,target,right,aqua,pleasantness,conservative,yes,m,0,1.47981679897,-1,176
2019_Apr_29,116,001,1,recog,30,JABBED,LF,target,left,yellow,imageability,liberal,no,z,1,5.83821800966,3,179
2019_Apr_29,116,001,1,recog,31,FOAMING,LF,lure,-,-,-,conservative,no,m,1,1.1199744548,3,182
2019_Apr_29,116,001,1,recog,32,HEALTH,HF,lure,-,-,-,liberal,no,m,1,3.05252640123,1,183
2019_Apr_29,116,001,1,recog,33,HIGHER,HF,lure,-,-,-,conservative,yes,m,1,1.27970601023,3,186
2019_Apr_29,116,001,1,recog,34,FOLLOWED,HF,lure,-,-,-,liberal,no,None,-1,-1,-1,185
2019_Apr_29,116,001,1,recog,35,PEOPLED,LF,lure,-,-,-,conservative,no,m,1,1.42626463038,3,188
2019_Apr_29,116,001,1,recog,36,RUNNING,HF,target,right,aqua,pleasantness,liberal,no,z,1,1.1200694061,3,191
2019_Apr_29,116,001,1,recog,37,GLASS,HF,target,right,aqua,pleasantness,liberal,no,z,1,1.53312810654,3,194
2019_Apr_29,116,001,1,recog,38,IRONICAL,LF,lure,-,-,-,conservative,no,m,1,1.18667352956,3,197
2019_Apr_29,116,001,1,recog,39,ABOVE,HF,lure,-,-,-,liberal,no,z,0,1.03998806326,-1,196
2019_Apr_29,116,001,1,recog,40,DUNGEON,LF,target,right,aqua,pleasantness,conservative,no,z,1,1.17338181349,1,197
2019_Apr_29,116,001,1,recog,41,EXCEPT,HF,target,right,aqua,pleasantness,liberal,no,z,1,1.29299149398,3,200
2019_Apr_29,116,001,1,recog,42,JUBILANT,LF,lure,-,-,-,liberal,no,m,1,0.853379056602,1,201
2019_Apr_29,116,001,1,recog,43,MOISTENED,LF,target,left,yellow,imageability,liberal,no,z,1,0.90698438326,3,204
2019_Apr_29,116,001,1,recog,44,BORAX,LF,lure,-,-,-,liberal,no,m,1,1.65311245974,1,205
2019_Apr_29,116,001,1,recog,45,AQUARIUM,LF,lure,-,-,-,conservative,no,m,1,1.33319475576,3,208
2019_Apr_29,116,001,1,recog,46,MOTHER,HF,target,right,aqua,pleasantness,conservative,no,z,1,1.29334636989,1,209
2019_Apr_29,116,001,1,recog,47,ORDER,HF,lure,-,-,-,liberal,no,m,1,1.9863922684,1,210
2019_Apr_29,116,001,1,recog,48,AHEAD,HF,target,right,aqua,pleasantness,liberal,no,z,1,1.07995303027,3,213
2019_Apr_29,116,001,1,recog,49,PHANTOMS,LF,target,right,aqua,pleasantness,liberal,no,z,1,0.800056017602,3,216
2019_Apr_29,116,001,1,recog,50,FAMILY,HF,target,left,yellow,imageability,liberal,no,z,1,0.760197000125,3,219
2019_Apr_29,116,001,1,recog,51,FELLS,LF,lure,-,-,-,conservative,no,m,1,2.26626288533,3,222
2019_Apr_29,116,001,1,recog,52,AFTERNOON,HF,lure,-,-,-,conservative,no,m,1,1.26669364897,3,225
2019_Apr_29,116,001,1,recog,53,JINGLE,LF,lure,-,-,-,liberal,no,m,1,1.21324852972,1,226
2019_Apr_29,116,001,1,recog,54,FENCED,LF,target,right,aqua,pleasantness,liberal,no,z,1,0.813147199449,3,229
2019_Apr_29,116,001,1,recog,55,THANK,HF,target,right,aqua,pleasantness,liberal,no,z,1,0.919817473533,3,232
2019_Apr_29,116,001,1,recog,56,WHETHER,HF,lure,-,-,-,conservative,no,m,1,1.1597047931,3,235
2019_Apr_29,116,001,1,recog,57,NUANCE,LF,lure,-,-,-,liberal,no,m,1,1.03997376558,1,236
2019_Apr_29,116,001,1,recog,58,PIECE,HF,target,left,yellow,imageability,liberal,no,z,1,0.986742745024,3,239
2019_Apr_29,116,001,1,recog,59,SIBLINGS,LF,target,right,aqua,pleasantness,conservative,no,m,0,0.999991568031,-1,238
2019_Apr_29,116,001,1,recog,60,HUBBUB,LF,target,left,yellow,imageability,conservative,no,z,1,1.6931903418,1,239
2019_Apr_29,116,001,1,recog,61,HOSPITAL,HF,lure,-,-,-,conservative,no,z,0,0.920093895475,-3,236
2019_Apr_29,116,001,1,recog,62,INMATE,LF,target,right,aqua,pleasantness,conservative,no,m,0,1.15990972661,-1,235
2019_Apr_29,116,001,1,recog,63,GREATER,HF,lure,-,-,-,conservative,no,m,1,2.27951684084,3,238
2019_Apr_29,116,001,1,recog,64,SLIGHTLY,HF,lure,-,-,-,liberal,no,z,0,2.58614356197,-1,237
2019_Apr_29,116,001,1,recog,65,EVADING,LF,lure,-,-,-,liberal,no,m,1,1.73308858627,1,238
2019_Apr_29,116,001,1,recog,66,DIMMED,LF,lure,-,-,-,liberal,yes,z,0,0.826800023756,-1,237
2019_Apr_29,116,001,1,recog,67,PSALMS,LF,lure,-,-,-,conservative,no,m,1,1.16000137844,3,240
2019_Apr_29,116,001,1,recog,68,CLASS,HF,lure,-,-,-,liberal,no,z,0,2.39951805798,-1,239
2019_Apr_29,116,001,1,recog,69,BETTER,HF,target,left,yellow,imageability,liberal,no,z,1,0.986449092537,3,242
2019_Apr_29,116,001,1,recog,70,LOCAL,HF,lure,-,-,-,conservative,no,z,0,3.23887328364,-3,239
2019_Apr_29,116,001,1,recog,71,LOLLED,LF,target,left,yellow,imageability,conservative,no,z,1,1.25323989245,1,240
2019_Apr_29,116,001,1,recog,72,INITIATES,LF,target,right,aqua,pleasantness,liberal,no,z,1,1.47984466113,3,243
2019_Apr_29,116,001,1,recog,73,PLEASE,HF,target,left,yellow,imageability,liberal,no,z,1,2.26631164411,3,246
2019_Apr_29,116,001,1,recog,74,REJOICED,LF,target,right,aqua,pleasantness,liberal,no,z,1,0.786763934929,3,249
2019_Apr_29,116,001,1,recog,75,TILTS,LF,lure,-,-,-,liberal,no,m,1,1.26638459897,1,250
2019_Apr_29,116,001,1,recog,76,WETTER,LF,lure,-,-,-,conservative,no,m,1,1.41344070529,3,253
2019_Apr_29,116,001,1,recog,77,PUMPKIN,LF,target,right,aqua,pleasantness,conservative,no,z,1,1.08008317588,1,254
2019_Apr_29,116,001,1,recog,78,ASPIRED,LF,lure,-,-,-,conservative,no,m,1,1.10666697462,3,257
2019_Apr_29,116,001,1,recog,79,VENDETTA,LF,target,left,yellow,imageability,conservative,no,z,1,1.06665288223,1,258
2019_Apr_29,116,001,1,recog,80,SIESTA,LF,lure,-,-,-,conservative,no,m,1,0.906713460428,3,261
2019_Apr_29,116,001,1,recog,81,DECIDED,HF,lure,-,-,-,conservative,no,z,0,1.97291578223,-3,258
2019_Apr_29,116,001,1,recog,82,DEVELOPED,HF,target,left,yellow,imageability,conservative,yes,m,0,0.906795580476,-1,257
2019_Apr_29,116,001,1,recog,83,SECOND,HF,target,right,aqua,pleasantness,conservative,no,z,1,2.42613301834,1,258
2019_Apr_29,116,001,1,recog,84,TOGETHER,HF,lure,-,-,-,conservative,no,z,0,1.41316318353,-3,255
2019_Apr_29,116,001,1,recog,85,LIGHT,HF,lure,-,-,-,liberal,no,m,1,1.16002960721,1,256
2019_Apr_29,116,001,1,recog,86,SHIELDING,LF,target,left,yellow,imageability,conservative,no,z,1,0.999997800356,1,257
2019_Apr_29,116,001,1,recog,87,SINCE,HF,lure,-,-,-,liberal,no,m,1,1.10640924965,1,258
2019_Apr_29,116,001,1,recog,88,INDEED,HF,target,left,yellow,imageability,conservative,no,m,0,0.960014502986,-1,257
2019_Apr_29,116,001,1,recog,89,AIRBED,LF,target,right,aqua,pleasantness,liberal,no,z,1,1.06658799273,3,260
2019_Apr_29,116,001,1,recog,90,MATERIAL,HF,target,right,aqua,pleasantness,liberal,no,z,1,0.773277183752,3,263
2019_Apr_29,116,001,1,recog,91,SHALL,HF,target,right,aqua,pleasantness,conservative,no,z,1,1.02641002686,1,264
2019_Apr_29,116,001,1,recog,92,PAPER,HF,target,left,yellow,imageability,conservative,no,z,1,0.720108853055,1,265
2019_Apr_29,116,001,1,recog,93,GARDEN,HF,target,right,aqua,pleasantness,conservative,no,z,1,0.920103793873,1,266
2019_Apr_29,116,001,1,recog,94,WEEKS,HF,target,left,yellow,imageability,conservative,no,z,1,1.15992402429,1,267
2019_Apr_29,116,001,1,recog,95,WHATEVER,HF,target,left,yellow,imageability,conservative,no,z,1,0.840134266276,1,268
2019_Apr_29,116,001,2,source,0,ZENITH,LF,target,right,aqua,pleasantness,conservative,no,9,1,1.50646622043,-,-
2019_Apr_29,116,001,2,source,1,CAIRN,LF,target,left,yellow,imageability,conservative,no,1,1,1.53287258122,-,-
2019_Apr_29,116,001,2,source,2,NATIONAL,HF,target,left,yellow,imageability,conservative,yes,3,1,0.999747040928,-,-
2019_Apr_29,116,001,2,source,3,MOUTH,HF,target,right,aqua,pleasantness,liberal,yes,7,1,0.853510302033,-,-
2019_Apr_29,116,001,2,source,4,GLOBULAR,LF,target,right,aqua,pleasantness,conservative,no,9,1,1.06640468906,-,-
2019_Apr_29,116,001,2,source,5,BUILDING,HF,target,left,yellow,imageability,conservative,no,1,1,0.826462378388,-,-
2019_Apr_29,116,001,2,source,6,BOOKS,HF,target,right,aqua,pleasantness,liberal,no,9,1,1.09336352711,-,-
2019_Apr_29,116,001,2,source,7,PADDLE,LF,target,right,aqua,pleasantness,conservative,no,9,1,0.680181280002,-,-
2019_Apr_29,116,001,2,source,8,PUBLIC,HF,target,left,yellow,imageability,conservative,no,1,1,0.826506371269,-,-
2019_Apr_29,116,001,2,source,9,MEMBERS,HF,target,left,yellow,imageability,conservative,no,3,1,1.49312794523,-,-
2019_Apr_29,116,001,2,source,10,TRUTH,HF,target,left,yellow,imageability,liberal,no,1,1,0.906695863276,-,-
2019_Apr_29,116,001,2,source,11,CUPID,LF,target,right,aqua,pleasantness,liberal,no,9,1,0.760103148645,-,-
2019_Apr_29,116,001,2,source,12,TIPSY,LF,target,left,yellow,imageability,liberal,no,1,1,0.77338386649,-,-
2019_Apr_29,116,001,2,source,13,DOUBT,HF,target,left,yellow,imageability,liberal,no,7,0,2.13297545124,-,-
2019_Apr_29,116,001,2,source,14,AUGMENT,LF,target,left,yellow,imageability,liberal,no,2,1,1.74612734326,-,-
2019_Apr_29,116,001,2,source,15,EXPECT,HF,target,right,aqua,pleasantness,conservative,no,3,0,0.880119396682,-,-
2019_Apr_29,116,001,2,source,16,ALLOWED,HF,target,right,aqua,pleasantness,liberal,no,8,1,2.41276908063,-,-
2019_Apr_29,116,001,2,source,17,COBALT,LF,target,right,aqua,pleasantness,liberal,no,9,1,0.786729473838,-,-
2019_Apr_29,116,001,2,source,18,GYMKHANA,LF,target,left,yellow,imageability,liberal,no,1,1,0.90681574388,-,-
2019_Apr_29,116,001,2,source,19,TAUNTED,LF,target,right,aqua,pleasantness,conservative,no,3,0,1.82612546623,-,-
2019_Apr_29,116,001,2,source,20,HARDLY,HF,target,right,aqua,pleasantness,conservative,no,9,1,0.973432331982,-,-
2019_Apr_29,116,001,2,source,21,BALDING,LF,target,left,yellow,imageability,liberal,no,1,1,1.06662318704,-,-
2019_Apr_29,116,001,2,source,22,STUDENT,HF,target,right,aqua,pleasantness,liberal,no,8,1,1.63975402113,-,-
2019_Apr_29,116,001,2,source,23,POUNDS,HF,target,left,yellow,imageability,liberal,no,2,1,1.85331746657,-,-
2019_Apr_29,116,001,2,source,24,SCHOOL,HF,target,left,yellow,imageability,liberal,yes,3,1,1.02667545058,-,-
2019_Apr_29,116,001,2,source,25,LETTER,HF,target,left,yellow,imageability,liberal,no,1,1,1.66617101353,-,-
2019_Apr_29,116,001,2,source,26,MEDDLE,LF,target,left,yellow,imageability,conservative,no,2,1,2.35926787046,-,-
2019_Apr_29,116,001,2,source,27,STAFF,HF,target,right,aqua,pleasantness,conservative,no,9,1,1.01342479453,-,-
2019_Apr_29,116,001,2,source,28,AUSPICES,LF,target,right,aqua,pleasantness,liberal,no,9,1,0.853476940764,-,-
2019_Apr_29,116,001,2,source,29,PEWTER,LF,target,left,yellow,imageability,conservative,no,1,1,1.03975123492,-,-
2019_Apr_29,116,001,2,source,30,GABLE,LF,target,left,yellow,imageability,liberal,yes,3,1,0.839909169363,-,-
2019_Apr_29,116,001,2,source,31,HOBBLE,LF,target,left,yellow,imageability,liberal,no,1,1,1.51987671728,-,-
2019_Apr_29,116,001,2,source,32,DODGED,LF,target,left,yellow,imageability,conservative,no,1,1,0.840140131993,-,-
2019_Apr_29,116,001,2,source,33,MEETING,HF,target,right,aqua,pleasantness,conservative,no,9,1,0.86648123667,-,-
2019_Apr_29,116,001,2,source,34,REQUIRED,HF,target,left,yellow,imageability,conservative,no,7,0,1.53322452427,-,-
2019_Apr_29,116,001,2,source,35,ALCHEMIST,LF,target,right,aqua,pleasantness,conservative,no,9,1,0.733510184719,-,-
2019_Apr_29,116,001,2,source,36,DOING,HF,target,right,aqua,pleasantness,liberal,no,3,0,1.93292661914,-,-
2019_Apr_29,116,001,2,source,37,BOTANIST,LF,target,right,aqua,pleasantness,conservative,no,9,1,0.720126450207,-,-
2019_Apr_29,116,001,2,source,38,AEROSOL,LF,target,right,aqua,pleasantness,liberal,no,9,1,0.720128283244,-,-
2019_Apr_29,116,001,2,source,39,FUTURE,HF,target,right,aqua,pleasantness,conservative,no,2,0,1.89297301697,-,-
2019_Apr_29,116,001,2,source,40,POINT,HF,target,right,aqua,pleasantness,conservative,no,9,1,2.55918142445,-,-
2019_Apr_29,116,001,2,source,41,POSITION,HF,target,left,yellow,imageability,liberal,no,2,1,1.83972513247,-,-
2019_Apr_29,116,001,2,source,42,JUDICIOUS,LF,target,left,yellow,imageability,conservative,no,2,1,1.51961972553,-,-
2019_Apr_29,116,001,2,source,43,NEBULOUS,LF,target,left,yellow,imageability,conservative,no,1,1,1.00000953179,-,-
2019_Apr_29,116,001,2,source,44,FAKING,LF,target,right,aqua,pleasantness,liberal,no,3,0,1.50646402079,-,-
2019_Apr_29,116,001,2,source,45,ALKALINE,LF,target,right,aqua,pleasantness,liberal,no,9,1,1.34636365836,-,-
2019_Apr_29,116,001,2,source,46,ACROSS,HF,target,left,yellow,imageability,conservative,no,1,1,1.43988189378,-,-
2019_Apr_29,116,001,2,source,47,BLOOD,HF,target,right,aqua,pleasantness,liberal,no,9,1,2.02638069827,-,-
2019_Apr_29,116,001,2,recog,0,ALMOST,HF,lure,-,-,-,liberal,no,z,0,1.14672469328,-1,267
2019_Apr_29,116,001,2,recog,1,NIMBLE,LF,lure,-,-,-,liberal,no,m,1,0.933341252052,1,268
2019_Apr_29,116,001,2,recog,2,CAIRN,LF,target,left,yellow,imageability,conservative,no,z,1,0.97321420061,1,269
2019_Apr_29,116,001,2,recog,3,MOUTH,HF,target,right,aqua,pleasantness,liberal,no,z,1,1.10670656821,3,272
2019_Apr_29,116,001,2,recog,4,ROCKER,LF,lure,-,-,-,conservative,no,m,1,1.06666241402,3,275
2019_Apr_29,116,001,2,recog,5,NEARLY,HF,lure,-,-,-,conservative,no,z,0,1.38652256065,-3,272
2019_Apr_29,116,001,2,recog,6,ALKALINE,LF,target,right,aqua,pleasantness,liberal,no,z,1,0.90664967075,3,275
2019_Apr_29,116,001,2,recog,7,DAUGHTER,HF,lure,-,-,-,conservative,no,z,0,2.4394243678,-3,272
2019_Apr_29,116,001,2,recog,8,EASILY,HF,lure,-,-,-,conservative,no,m,1,1.91991205823,3,275
2019_Apr_29,116,001,2,recog,9,AUSPICES,LF,target,right,aqua,pleasantness,liberal,no,z,1,1.09303504693,3,278
2019_Apr_29,116,001,2,recog,10,POUNDS,HF,target,left,yellow,imageability,liberal,no,z,1,0.733498086676,3,281
2019_Apr_29,116,001,2,recog,11,HAPPEN,HF,lure,-,-,-,liberal,no,m,1,0.893379951124,1,282
2019_Apr_29,116,001,2,recog,12,GROUND,HF,lure,-,-,-,conservative,no,z,0,0.973392738389,-3,279
2019_Apr_29,116,001,2,recog,13,HORDE,LF,lure,-,-,-,liberal,no,m,1,1.5197678349,1,280
2019_Apr_29,116,001,2,recog,14,FUTURE,HF,target,right,aqua,pleasantness,conservative,yes,z,1,1.42618690963,1,281
2019_Apr_29,116,001,2,recog,15,VALUE,HF,lure,-,-,-,conservative,no,z,0,2.94588582234,-3,278
2019_Apr_29,116,001,2,recog,16,GIRLS,HF,lure,-,-,-,liberal,no,m,1,1.99926531887,1,279
2019_Apr_29,116,001,2,recog,17,HOBBLE,LF,target,left,yellow,imageability,liberal,no,z,1,0.813547534675,3,282
2019_Apr_29,116,001,2,recog,18,NATIONAL,HF,target,left,yellow,imageability,conservative,no,z,1,2.15939354346,1,283
2019_Apr_29,116,001,2,recog,19,EDUCATION,HF,lure,-,-,-,conservative,yes,m,1,1.13307040254,3,286
2019_Apr_29,116,001,2,recog,20,FAKING,LF,target,right,aqua,pleasantness,liberal,no,z,1,2.67911335279,3,289
2019_Apr_29,116,001,2,recog,21,PRACTICE,HF,lure,-,-,-,conservative,no,m,1,1.10662701442,3,292
2019_Apr_29,116,001,2,recog,22,BOTANIST,LF,target,right,aqua,pleasantness,conservative,no,z,1,0.893383617197,1,293
2019_Apr_29,116,001,2,recog,23,SUCCESS,HF,lure,-,-,-,conservative,yes,m,1,0.920101960836,3,296
2019_Apr_29,116,001,2,recog,24,DODGED,LF,target,left,yellow,imageability,conservative,no,z,1,2.30614793193,1,297
2019_Apr_29,116,001,2,recog,25,BOOKS,HF,target,right,aqua,pleasantness,liberal,no,z,1,0.880043142352,3,300
2019_Apr_29,116,001,2,recog,26,STAFF,HF,target,right,aqua,pleasantness,conservative,no,z,1,0.786802062093,1,301
2019_Apr_29,116,001,2,recog,27,SPOKE,HF,lure,-,-,-,liberal,no,m,1,0.853643380501,1,302
2019_Apr_29,116,001,2,recog,28,STUDENT,HF,target,right,aqua,pleasantness,liberal,no,z,1,0.746734811641,3,305
2019_Apr_29,116,001,2,recog,29,DOING,HF,target,right,aqua,pleasantness,liberal,no,z,1,0.773517678173,3,308
2019_Apr_29,116,001,2,recog,30,BALDING,LF,target,left,yellow,imageability,liberal,no,z,1,0.746671021961,3,311
2019_Apr_29,116,001,2,recog,31,AEROSOL,LF,target,right,aqua,pleasantness,liberal,yes,z,1,0.746757907904,3,314
2019_Apr_29,116,001,2,recog,32,HYDRAULIC,LF,lure,-,-,-,conservative,no,z,0,0.90818502233,-3,311
2019_Apr_29,116,001,2,recog,33,ALLOWED,HF,target,right,aqua,pleasantness,liberal,no,z,1,1.69283693232,3,314
2019_Apr_29,116,001,2,recog,34,STOOD,HF,lure,-,-,-,liberal,no,m,1,0.86678258791,1,315
2019_Apr_29,116,001,2,recog,35,FLAGGED,LF,lure,-,-,-,conservative,no,m,1,1.58648853949,3,318
2019_Apr_29,116,001,2,recog,36,DEDICATE,LF,lure,-,-,-,liberal,no,m,1,1.02664245592,1,319
2019_Apr_29,116,001,2,recog,37,EXPECT,HF,target,right,aqua,pleasantness,conservative,no,z,1,1.8661135295,1,320
2019_Apr_29,116,001,2,recog,38,TRIED,HF,lure,-,-,-,conservative,no,m,1,1.07973966479,3,323
2019_Apr_29,116,001,2,recog,39,EIGHT,HF,lure,-,-,-,conservative,no,m,1,0.946696757797,3,326
2019_Apr_29,116,001,2,recog,40,SUBJECT,HF,lure,-,-,-,liberal,no,m,1,1.27962975591,1,327
2019_Apr_29,116,001,2,recog,41,CUPID,LF,target,right,aqua,pleasantness,liberal,no,z,1,0.880108031854,3,330
2019_Apr_29,116,001,2,recog,42,CADDIE,LF,lure,-,-,-,liberal,no,m,1,0.84006864356,1,331
2019_Apr_29,116,001,2,recog,43,AUGMENT,LF,target,left,yellow,imageability,liberal,no,z,1,0.973398970713,3,334
2019_Apr_29,116,001,2,recog,44,POINT,HF,target,right,aqua,pleasantness,conservative,no,z,1,1.02664392235,1,335
2019_Apr_29,116,001,2,recog,45,SUMMER,HF,lure,-,-,-,conservative,no,m,1,0.880046808426,3,338
2019_Apr_29,116,001,2,recog,46,GLOBULAR,LF,target,right,aqua,pleasantness,conservative,no,z,1,0.826620386155,1,339
2019_Apr_29,116,001,2,recog,47,JUDICIOUS,LF,target,left,yellow,imageability,conservative,no,z,1,0.759812795623,1,340
2019_Apr_29,116,001,2,recog,48,MEDDLE,LF,target,left,yellow,imageability,conservative,no,z,1,0.773485050118,1,341
2019_Apr_29,116,001,2,recog,49,SCHOOL,HF,target,left,yellow,imageability,liberal,no,z,1,0.853840248647,3,344
2019_Apr_29,116,001,2,recog,50,JUTTED,LF,lure,-,-,-,conservative,no,m,1,1.9993463391,3,347
2019_Apr_29,116,001,2,recog,51,LETTER,HF,target,left,yellow,imageability,liberal,no,z,1,1.23968238606,3,350
2019_Apr_29,116,001,2,recog,52,CLOSE,HF,lure,-,-,-,liberal,no,m,1,0.866879372251,1,351
2019_Apr_29,116,001,2,recog,53,PONCE,LF,lure,-,-,-,liberal,no,m,1,0.799843018733,1,352
2019_Apr_29,116,001,2,recog,54,ZENITH,LF,target,right,aqua,pleasantness,conservative,no,m,0,0.0804622478754,-1,351
2019_Apr_29,116,001,2,recog,55,ALCHEMIST,LF,target,right,aqua,pleasantness,conservative,no,z,1,1.51979679688,1,352
2019_Apr_29,116,001,2,recog,56,BUILDING,HF,target,left,yellow,imageability,conservative,no,z,1,0.866705966975,1,353
2019_Apr_29,116,001,2,recog,57,VACATED,LF,lure,-,-,-,conservative,no,m,1,2.97270571622,3,356
2019_Apr_29,116,001,2,recog,58,NEBULOUS,LF,target,left,yellow,imageability,conservative,no,z,1,0.933472130876,1,357
2019_Apr_29,116,001,2,recog,59,COBALT,LF,target,right,aqua,pleasantness,liberal,no,z,1,1.02669048148,3,360
2019_Apr_29,116,001,2,recog,60,LOVELIEST,LF,lure,-,-,-,liberal,no,m,1,0.773214127287,1,361
2019_Apr_29,116,001,2,recog,61,ACROSS,HF,target,left,yellow,imageability,conservative,no,z,1,1.6395028951,1,362
2019_Apr_29,116,001,2,recog,62,SAVOURED,LF,lure,-,-,-,liberal,no,m,1,1.04004672044,1,363
2019_Apr_29,116,001,2,recog,63,COGENT,LF,lure,-,-,-,conservative,no,m,1,0.880082735946,3,366
2019_Apr_29,116,001,2,recog,64,DOUBT,HF,target,left,yellow,imageability,liberal,no,z,1,1.74649395061,3,369
2019_Apr_29,116,001,2,recog,65,CAMPANILE,LF,lure,-,-,-,liberal,no,m,1,0.879838575452,1,370
2019_Apr_29,116,001,2,recog,66,HUSBAND,HF,lure,-,-,-,liberal,no,m,1,0.800067749038,1,371
2019_Apr_29,116,001,2,recog,67,MEANS,HF,lure,-,-,-,liberal,no,m,1,1.13334682448,1,372
2019_Apr_29,116,001,2,recog,68,CIVILITY,LF,lure,-,-,-,conservative,no,m,1,2.09266660654,3,375
2019_Apr_29,116,001,2,recog,69,GABLE,LF,target,left,yellow,imageability,liberal,no,z,1,1.05336519884,3,378
2019_Apr_29,116,001,2,recog,70,PASSED,HF,lure,-,-,-,liberal,no,z,0,1.50631811106,-1,377
2019_Apr_29,116,001,2,recog,71,GYMKHANA,LF,target,left,yellow,imageability,liberal,no,z,1,0.679864164645,3,380
2019_Apr_29,116,001,2,recog,72,SOPHISTS,LF,lure,-,-,-,conservative,no,m,1,3.09250383288,3,383
2019_Apr_29,116,001,2,recog,73,CATALYST,LF,lure,-,-,-,conservative,no,m,1,0.813181660541,3,386
2019_Apr_29,116,001,2,recog,74,DITTO,LF,lure,-,-,-,liberal,no,m,1,0.853432214668,1,387
2019_Apr_29,116,001,2,recog,75,RIVER,HF,lure,-,-,-,liberal,no,m,1,0.80030677703,1,388
2019_Apr_29,116,001,2,recog,76,TIPSY,LF,target,left,yellow,imageability,liberal,no,z,1,0.82675383123,3,391
2019_Apr_29,116,001,2,recog,77,PERHAPS,HF,lure,-,-,-,liberal,no,m,1,1.95993678223,1,392
2019_Apr_29,116,001,2,recog,78,MEETING,HF,target,right,aqua,pleasantness,conservative,no,z,1,1.63971626058,1,393
2019_Apr_29,116,001,2,recog,79,TODAY,HF,lure,-,-,-,conservative,no,z,0,4.86508006338,-3,390
2019_Apr_29,116,001,2,recog,80,MEMBERS,HF,target,left,yellow,imageability,conservative,no,z,1,0.853622850489,1,391
2019_Apr_29,116,001,2,recog,81,PADDLE,LF,target,right,aqua,pleasantness,conservative,no,z,1,0.906961653604,1,392
2019_Apr_29,116,001,2,recog,82,PEWTER,LF,target,left,yellow,imageability,conservative,no,z,1,0.746737011284,1,393
2019_Apr_29,116,001,2,recog,83,MITIGATE,LF,lure,-,-,-,liberal,no,m,1,1.00013601133,1,394
2019_Apr_29,116,001,2,recog,84,MYOPIC,LF,lure,-,-,-,liberal,no,m,1,1.16001567613,1,395
2019_Apr_29,116,001,2,recog,85,BLOOD,HF,target,right,aqua,pleasantness,liberal,no,z,1,0.866788087021,3,398
2019_Apr_29,116,001,2,recog,86,POSITION,HF,target,left,yellow,imageability,liberal,no,z,1,0.840041881223,3,401
2019_Apr_29,116,001,2,recog,87,TRUTH,HF,target,left,yellow,imageability,liberal,no,z,1,1.22658167242,3,404
2019_Apr_29,116,001,2,recog,88,ENVIRONS,LF,lure,-,-,-,conservative,no,m,1,0.893381417553,3,407
2019_Apr_29,116,001,2,recog,89,PUBLIC,HF,target,left,yellow,imageability,conservative,no,z,1,1.26658403337,1,408
2019_Apr_29,116,001,2,recog,90,PUNCTUAL,LF,lure,-,-,-,conservative,no,m,1,0.813407490668,3,411
2019_Apr_29,116,001,2,recog,91,LADDIE,LF,lure,-,-,-,conservative,no,m,1,2.19960413738,3,414
2019_Apr_29,116,001,2,recog,92,NEURAL,LF,lure,-,-,-,liberal,no,m,1,1.01331957823,1,415
2019_Apr_29,116,001,2,recog,93,TAUNTED,LF,target,right,aqua,pleasantness,conservative,no,z,1,1.00001356447,1,416
2019_Apr_29,116,001,2,recog,94,REQUIRED,HF,target,left,yellow,imageability,conservative,no,z,1,1.26627754963,1,417
2019_Apr_29,116,001,2,recog,95,HARDLY,HF,target,right,aqua,pleasantness,conservative,no,z,1,0.733611734954,1,418
2019_Apr_29,116,001,3,source,0,WESTERN,HF,target,right,aqua,pleasantness,conservative,no,9,1,1.30650794035,-,-
2019_Apr_29,116,001,3,source,1,ECHELONS,LF,target,left,yellow,imageability,liberal,no,3,1,1.5194287231,-,-
2019_Apr_29,116,001,3,source,2,BEGAN,HF,target,right,aqua,pleasantness,conservative,no,7,1,1.26659283195,-,-
2019_Apr_29,116,001,3,source,3,KNOWLEDGE,HF,target,left,yellow,imageability,liberal,no,1,1,1.75944948774,-,-
2019_Apr_29,116,001,3,source,4,GESTURING,LF,target,left,yellow,imageability,liberal,yes,3,1,0.813500242327,-,-
2019_Apr_29,116,001,3,source,5,SLEEP,HF,target,right,aqua,pleasantness,liberal,no,9,1,1.33315919484,-,-
2019_Apr_29,116,001,3,source,6,USUAL,HF,target,left,yellow,imageability,liberal,yes,7,0,0.813477146064,-,-
2019_Apr_29,116,001,3,source,7,MINISTER,HF,target,right,aqua,pleasantness,conservative,no,9,1,0.813410423526,-,-
2019_Apr_29,116,001,3,source,8,JOVIAL,LF,target,right,aqua,pleasantness,liberal,no,9,1,0.920132755854,-,-
2019_Apr_29,116,001,3,source,9,OFTEN,HF,target,left,yellow,imageability,conservative,yes,7,0,0.760110847398,-,-
2019_Apr_29,116,001,3,source,10,WAGGED,LF,target,left,yellow,imageability,liberal,no,1,1,0.920050635807,-,-
2019_Apr_29,116,001,3,source,11,ELLIPSE,LF,target,right,aqua,pleasantness,liberal,no,9,1,0.986650359972,-,-
2019_Apr_29,116,001,3,source,12,VAGABOND,LF,target,right,aqua,pleasantness,conservative,no,9,1,0.866707433404,-,-
2019_Apr_29,116,001,3,source,13,DUPLICITY,LF,target,left,yellow,imageability,liberal,no,1,1,0.880051207714,-,-
2019_Apr_29,116,001,3,source,14,VICEREGAL,LF,target,left,yellow,imageability,conservative,no,1,1,1.31994519953,-,-
2019_Apr_29,116,001,3,source,15,INROADS,LF,target,right,aqua,pleasantness,conservative,no,9,1,1.00012281346,-,-
2019_Apr_29,116,001,3,source,16,GNARLED,LF,target,right,aqua,pleasantness,conservative,no,1,0,2.25267568374,-,-
2019_Apr_29,116,001,3,source,17,FINAL,HF,target,right,aqua,pleasantness,conservative,no,9,1,0.919796943521,-,-
2019_Apr_29,116,001,3,source,18,JUROR,LF,target,right,aqua,pleasantness,liberal,no,9,1,0.866682137496,-,-
2019_Apr_29,116,001,3,source,19,WRONG,HF,target,right,aqua,pleasantness,liberal,no,3,0,1.15996838378,-,-
2019_Apr_29,116,001,3,source,20,DEGREE,HF,target,left,yellow,imageability,liberal,no,3,1,1.0799948235,-,-
2019_Apr_29,116,001,3,source,21,TUSKS,LF,target,left,yellow,imageability,liberal,no,1,1,1.25335024126,-,-
2019_Apr_29,116,001,3,source,22,VEXED,LF,target,right,aqua,pleasantness,liberal,no,9,1,2.82593556363,-,-
2019_Apr_29,116,001,3,source,23,LIKELY,HF,target,left,yellow,imageability,conservative,no,7,0,1.16005453651,-,-
2019_Apr_29,116,001,3,source,24,MUGGING,LF,target,right,aqua,pleasantness,liberal,no,9,1,1.86639545055,-,-
2019_Apr_29,116,001,3,source,25,URCHIN,LF,target,left,yellow,imageability,conservative,no,1,1,0.986696552498,-,-
2019_Apr_29,116,001,3,source,26,PLACE,HF,target,left,yellow,imageability,conservative,no,1,1,2.26638973147,-,-
2019_Apr_29,116,001,3,source,27,WALKED,HF,target,right,aqua,pleasantness,liberal,no,1,0,1.06673316924,-,-
2019_Apr_29,116,001,3,source,28,WATCH,HF,target,right,aqua,pleasantness,liberal,no,9,1,0.920034871691,-,-
2019_Apr_29,116,001,3,source,29,DARKEN,LF,target,left,yellow,imageability,liberal,no,1,1,1.41319544498,-,-
2019_Apr_29,116,001,3,source,30,NORTH,HF,target,right,aqua,pleasantness,liberal,no,9,1,0.746897951911,-,-
2019_Apr_29,116,001,3,source,31,AFRAID,HF,target,left,yellow,imageability,liberal,no,1,1,1.47980836701,-,-
2019_Apr_29,116,001,3,source,32,SOCIAL,HF,target,left,yellow,imageability,conservative,no,1,1,1.61286447186,-,-
2019_Apr_29,116,001,3,source,33,JANGLING,LF,target,left,yellow,imageability,conservative,no,1,1,0.800025222586,-,-
2019_Apr_29,116,001,3,source,34,SAYING,HF,target,left,yellow,imageability,conservative,no,3,1,1.47979443593,-,-
2019_Apr_29,116,001,3,source,35,TREES,HF,target,right,aqua,pleasantness,conservative,no,9,1,0.80010624281,-,-
2019_Apr_29,116,001,3,source,36,HUMAN,HF,target,right,aqua,pleasantness,conservative,no,9,1,0.786822958712,-,-
2019_Apr_29,116,001,3,source,37,NEEDED,HF,target,left,yellow,imageability,liberal,no,1,1,1.71972318212,-,-
2019_Apr_29,116,001,3,source,38,MONEY,HF,target,left,yellow,imageability,liberal,no,1,1,0.893471602962,-,-
2019_Apr_29,116,001,3,source,39,OUSTED,LF,target,right,aqua,pleasantness,conservative,no,9,1,1.05306054814,-,-
2019_Apr_29,116,001,3,source,40,USELESSLY,LF,target,left,yellow,imageability,conservative,yes,3,1,0.800080580296,-,-
2019_Apr_29,116,001,3,source,41,MAUSOLEUM,LF,target,right,aqua,pleasantness,conservative,no,9,1,0.973408135897,-,-
2019_Apr_29,116,001,3,source,42,IDIOCY,LF,target,left,yellow,imageability,conservative,no,1,1,1.09336022765,-,-
2019_Apr_29,116,001,3,source,43,UNGAINLY,LF,target,left,yellow,imageability,conservative,no,3,1,1.73326785726,-,-
2019_Apr_29,116,001,3,source,44,ALREADY,HF,target,left,yellow,imageability,conservative,no,3,1,1.98605242338,-,-
2019_Apr_29,116,001,3,source,45,DWARFED,LF,target,right,aqua,pleasantness,liberal,no,9,1,2.51915193455,-,-
2019_Apr_29,116,001,3,source,46,CORNER,HF,target,right,aqua,pleasantness,liberal,no,9,1,1.38626886836,-,-
2019_Apr_29,116,001,3,source,47,KIMONO,LF,target,right,aqua,pleasantness,conservative,no,9,1,0.679856099283,-,-
2019_Apr_29,116,001,3,recog,0,WESTERN,HF,target,right,aqua,pleasantness,conservative,no,z,1,1.1067707245,1,419
2019_Apr_29,116,001,3,recog,1,IDIOCY,LF,target,left,yellow,imageability,conservative,no,z,1,0.680145352482,1,420
2019_Apr_29,116,001,3,recog,2,DWARFED,LF,target,right,aqua,pleasantness,liberal,no,z,1,0.800072514933,3,423
2019_Apr_29,116,001,3,recog,3,JEERED,LF,lure,-,-,-,conservative,no,m,1,1.47981093326,3,426
2019_Apr_29,116,001,3,recog,4,SIPHON,LF,lure,-,-,-,conservative,no,m,1,0.813411156741,3,429
2019_Apr_29,116,001,3,recog,5,SWIFTNESS,LF,lure,-,-,-,conservative,no,m,1,0.733689089105,3,432
2019_Apr_29,116,001,3,recog,6,TRADE,HF,lure,-,-,-,conservative,no,m,1,0.720109952877,3,435
2019_Apr_29,116,001,3,recog,7,TICKLE,LF,lure,-,-,-,liberal,no,m,1,0.960011203521,1,436
2019_Apr_29,116,001,3,recog,8,YOUNG,HF,lure,-,-,-,conservative,no,m,1,1.41327169931,3,439
2019_Apr_29,116,001,3,recog,9,OLDER,HF,lure,-,-,-,conservative,no,m,1,1.46650308647,3,442
2019_Apr_29,116,001,3,recog,10,WRONG,HF,target,right,aqua,pleasantness,liberal,no,m,0,1.49315214132,-3,439
2019_Apr_29,116,001,3,recog,11,SONAR,LF,lure,-,-,-,liberal,no,m,1,1.08003368388,1,440
2019_Apr_29,116,001,3,recog,12,OUSTED,LF,target,right,aqua,pleasantness,conservative,no,z,1,1.30684631893,1,441
2019_Apr_29,116,001,3,recog,13,URCHIN,LF,target,left,yellow,imageability,conservative,no,z,1,0.693533852889,1,442
2019_Apr_29,116,001,3,recog,14,AVAILABLE,HF,lure,-,-,-,liberal,no,m,1,2.0128741503,1,443
2019_Apr_29,116,001,3,recog,15,BOILERS,LF,lure,-,-,-,conservative,no,m,1,1.55985084947,3,446
2019_Apr_29,116,001,3,recog,16,TIMES,HF,lure,-,-,-,liberal,yes,z,0,0.986778305937,-1,445
2019_Apr_29,116,001,3,recog,17,GNARLED,LF,target,right,aqua,pleasantness,conservative,no,z,1,2.06625547986,1,446
2019_Apr_29,116,001,3,recog,18,UNGAINLY,LF,target,left,yellow,imageability,conservative,no,z,1,0.746779904345,1,447
2019_Apr_29,116,001,3,recog,19,SAYING,HF,target,left,yellow,imageability,conservative,no,z,1,1.11981424739,1,448
2019_Apr_29,116,001,3,recog,20,SLEEP,HF,target,right,aqua,pleasantness,liberal,no,z,1,0.813493643395,3,451
2019_Apr_29,116,001,3,recog,21,VAGABOND,LF,target,right,aqua,pleasantness,conservative,yes,m,0,0.81341555603,-1,450
2019_Apr_29,116,001,3,recog,22,BEYOND,HF,lure,-,-,-,conservative,no,m,1,2.426085726,3,453
2019_Apr_29,116,001,3,recog,23,BARBARIAN,LF,lure,-,-,-,liberal,no,m,1,0.906746455091,1,454
2019_Apr_29,116,001,3,recog,24,CLEAR,HF,lure,-,-,-,conservative,no,m,1,1.23995660835,3,457
2019_Apr_29,116,001,3,recog,25,KNOWLEDGE,HF,target,left,yellow,imageability,liberal,no,z,1,0.866989354456,3,460
2019_Apr_29,116,001,3,recog,26,BEGAN,HF,target,right,aqua,pleasantness,conservative,no,z,1,1.21333468245,1,461
2019_Apr_29,116,001,3,recog,27,NUCLEAR,HF,lure,-,-,-,liberal,no,m,1,0.97310055233,1,462
2019_Apr_29,116,001,3,recog,28,SUNBURN,LF,lure,-,-,-,conservative,no,m,1,1.04098780151,3,465
2019_Apr_29,116,001,3,recog,29,BUSINESS,HF,lure,-,-,-,liberal,no,m,1,1.03999869488,1,466
2019_Apr_29,116,001,3,recog,30,TUSKS,LF,target,left,yellow,imageability,liberal,no,z,1,0.800240787707,3,469
2019_Apr_29,116,001,3,recog,31,TAMING,LF,lure,-,-,-,liberal,no,m,1,0.813375962436,1,470
2019_Apr_29,116,001,3,recog,32,ROUND,HF,lure,-,-,-,conservative,no,z,0,0.906700995779,-3,467
2019_Apr_29,116,001,3,recog,33,GESTURING,LF,target,left,yellow,imageability,liberal,no,z,1,0.906507060491,3,470
2019_Apr_29,116,001,3,recog,34,ACTION,HF,lure,-,-,-,liberal,no,m,1,0.80004538599,1,471
2019_Apr_29,116,001,3,recog,35,ENTIRELY,HF,lure,-,-,-,conservative,no,m,1,1.31988397611,3,474
2019_Apr_29,116,001,3,recog,36,BAIZE,LF,lure,-,-,-,conservative,no,m,1,1.21336511086,3,477
2019_Apr_29,116,001,3,recog,37,REACHED,HF,lure,-,-,-,conservative,no,m,1,1.62653306028,3,480
2019_Apr_29,116,001,3,recog,38,CALLED,HF,lure,-,-,-,conservative,no,m,1,0.933424105313,3,483
2019_Apr_29,116,001,3,recog,39,MONEY,HF,target,left,yellow,imageability,liberal,no,z,1,0.893407446675,3,486
2019_Apr_29,116,001,3,recog,40,SUAVE,LF,lure,-,-,-,liberal,no,m,1,0.826499772336,1,487
2019_Apr_29,116,001,3,recog,41,CARRIED,HF,lure,-,-,-,liberal,no,m,1,1.879416977,1,488
2019_Apr_29,116,001,3,recog,42,WHITE,HF,lure,-,-,-,liberal,no,m,1,0.679965348273,1,489
2019_Apr_29,116,001,3,recog,43,WALKED,HF,target,right,aqua,pleasantness,liberal,no,z,1,1.0133184784,3,492
2019_Apr_29,116,001,3,recog,44,JUROR,LF,target,right,aqua,pleasantness,liberal,no,z,1,0.746877055292,3,495
2019_Apr_29,116,001,3,recog,45,USUAL,HF,target,left,yellow,imageability,liberal,no,m,0,2.43944453121,-3,492
2019_Apr_29,116,001,3,recog,46,NEEDED,HF,target,left,yellow,imageability,liberal,no,z,1,0.84005911177,3,495
2019_Apr_29,116,001,3,recog,47,VICEREGAL,LF,target,left,yellow,imageability,conservative,no,z,1,1.10661271673,1,496
2019_Apr_29,116,001,3,recog,48,DUPLICITY,LF,target,left,yellow,imageability,liberal,no,z,1,0.813380728331,3,499
2019_Apr_29,116,001,3,recog,49,MUGGING,LF,target,right,aqua,pleasantness,liberal,no,z,1,0.840047380334,3,502
2019_Apr_29,116,001,3,recog,50,EITHER,HF,lure,-,-,-,conservative,no,m,1,1.26657633462,3,505
2019_Apr_29,116,001,3,recog,51,PIGLETS,LF,lure,-,-,-,conservative,no,m,1,0.706779009824,3,508
2019_Apr_29,116,001,3,recog,52,NORTH,HF,target,right,aqua,pleasantness,liberal,no,z,1,1.08009637374,3,511
2019_Apr_29,116,001,3,recog,53,TREES,HF,target,right,aqua,pleasantness,conservative,no,z,1,0.999981669633,1,512
2019_Apr_29,116,001,3,recog,54,SEQUEL,LF,lure,-,-,-,liberal,no,m,1,0.826541932181,1,513
2019_Apr_29,116,001,3,recog,55,ALREADY,HF,target,left,yellow,imageability,conservative,no,z,1,2.82568883688,1,514
2019_Apr_29,116,001,3,recog,56,REDDENED,LF,lure,-,-,-,liberal,no,m,1,0.839822283421,1,515
2019_Apr_29,116,001,3,recog,57,USELESSLY,LF,target,left,yellow,imageability,conservative,no,z,1,2.59913319358,1,516
2019_Apr_29,116,001,3,recog,58,AMALGAM,LF,lure,-,-,-,liberal,no,m,1,1.71960293491,1,517
2019_Apr_29,116,001,3,recog,59,JANGLING,LF,target,left,yellow,imageability,conservative,no,z,1,1.03997449879,1,518
2019_Apr_29,116,001,3,recog,60,UNEARTHED,LF,lure,-,-,-,liberal,no,m,1,0.97335644426,1,519
2019_Apr_29,116,001,3,recog,61,WATCH,HF,target,right,aqua,pleasantness,liberal,no,z,1,0.946460296057,3,522
2019_Apr_29,116,001,3,recog,62,ENAMELLED,LF,lure,-,-,-,conservative,no,m,1,1.29323125518,3,525
2019_Apr_29,116,001,3,recog,63,PREPARED,HF,lure,-,-,-,liberal,no,m,1,2.79908230848,1,526
2019_Apr_29,116,001,3,recog,64,AFRAID,HF,target,left,yellow,imageability,liberal,no,z,1,0.80004538599,3,529
2019_Apr_29,116,001,3,recog,65,PUPPETS,LF,lure,-,-,-,conservative,no,m,1,1.11995502461,3,532
2019_Apr_29,116,001,3,recog,66,SUDDENLY,HF,lure,-,-,-,conservative,no,m,1,1.10663691281,3,535
2019_Apr_29,116,001,3,recog,67,PLACE,HF,target,left,yellow,imageability,conservative,no,z,1,1.1599944129,1,536
2019_Apr_29,116,001,3,recog,68,SOCIAL,HF,target,left,yellow,imageability,conservative,no,z,1,0.746820964368,1,537
2019_Apr_29,116,001,3,recog,69,FATHER,HF,lure,-,-,-,conservative,no,m,1,0.853362925879,3,540
2019_Apr_29,116,001,3,recog,70,LOTTERY,LF,lure,-,-,-,liberal,no,m,1,1.90613605385,1,541
2019_Apr_29,116,001,3,recog,71,FRIEND,HF,lure,-,-,-,liberal,no,m,1,1.01333900841,1,542
2019_Apr_29,116,001,3,recog,72,LIKELY,HF,target,left,yellow,imageability,conservative,no,m,0,1.98628045316,-1,541
2019_Apr_29,116,001,3,recog,73,RESEARCH,HF,lure,-,-,-,liberal,no,m,1,1.23998007122,1,542
2019_Apr_29,116,001,3,recog,74,BICEPS,LF,lure,-,-,-,conservative,no,m,1,0.786494478527,3,545
2019_Apr_29,116,001,3,recog,75,ROMANCES,LF,lure,-,-,-,conservative,no,m,1,0.866719531447,3,548
2019_Apr_29,116,001,3,recog,76,SPACE,HF,lure,-,-,-,liberal,no,m,1,1.47980910022,1,549
2019_Apr_29,116,001,3,recog,77,MINISTER,HF,target,right,aqua,pleasantness,conservative,no,m,0,1.41325116929,-1,548
2019_Apr_29,116,001,3,recog,78,CORNER,HF,target,right,aqua,pleasantness,liberal,no,z,1,0.813484844819,3,551
2019_Apr_29,116,001,3,recog,79,KIMONO,LF,target,right,aqua,pleasantness,conservative,no,z,1,0.906719326146,1,552
2019_Apr_29,116,001,3,recog,80,ELLIPSE,LF,target,right,aqua,pleasantness,liberal,no,z,1,0.906468200112,3,555
2019_Apr_29,116,001,3,recog,81,DARKEN,LF,target,left,yellow,imageability,liberal,yes,z,1,0.999788467559,3,558
2019_Apr_29,116,001,3,recog,82,OFTEN,HF,target,left,yellow,imageability,conservative,yes,m,0,0.853389321607,-1,557
2019_Apr_29,116,001,3,recog,83,VEXED,LF,target,right,aqua,pleasantness,liberal,no,z,1,2.26621339334,3,560
2019_Apr_29,116,001,3,recog,84,JOVIAL,LF,target,right,aqua,pleasantness,liberal,no,z,1,0.999977636951,3,563
2019_Apr_29,116,001,3,recog,85,WAGGED,LF,target,left,yellow,imageability,liberal,no,z,1,0.720072558926,3,566
2019_Apr_29,116,001,3,recog,86,CURATOR,LF,lure,-,-,-,liberal,no,m,1,1.19992491881,1,567
2019_Apr_29,116,001,3,recog,87,HUMAN,HF,target,right,aqua,pleasantness,conservative,no,z,1,0.946734151747,1,568
2019_Apr_29,116,001,3,recog,88,DEGREE,HF,target,left,yellow,imageability,liberal,no,z,1,1.26634867145,3,571
2019_Apr_29,116,001,3,recog,89,INROADS,LF,target,right,aqua,pleasantness,conservative,no,z,1,0.946799041249,1,572
2019_Apr_29,116,001,3,recog,90,ECHELONS,LF,target,left,yellow,imageability,liberal,no,z,1,0.853387488571,3,575
2019_Apr_29,116,001,3,recog,91,TELEPHONE,HF,lure,-,-,-,liberal,no,m,1,0.960001305122,1,576
2019_Apr_29,116,001,3,recog,92,MAUSOLEUM,LF,target,right,aqua,pleasantness,conservative,no,z,1,1.04011564262,1,577
2019_Apr_29,116,001,3,recog,93,KILOWATT,LF,lure,-,-,-,conservative,no,m,1,0.866424045922,3,580
2019_Apr_29,116,001,3,recog,94,FINAL,HF,target,right,aqua,pleasantness,conservative,no,z,1,1.12004850949,1,581
2019_Apr_29,116,001,3,recog,95,CEMENTED,LF,lure,-,-,-,liberal,no,m,1,1.35985004293,1,582
2019_Apr_29,116,001,4,source,0,GAPED,LF,target,right,aqua,pleasantness,liberal,no,9,1,1.1463566195,-,-
2019_Apr_29,116,001,4,source,1,MIDDLE,HF,target,left,yellow,imageability,conservative,no,7,0,2.14617368243,-,-
2019_Apr_29,116,001,4,source,2,TRYING,HF,target,right,aqua,pleasantness,conservative,no,3,0,1.46647375788,-,-
2019_Apr_29,116,001,4,source,3,DAPPER,LF,target,left,yellow,imageability,conservative,no,1,1,0.906452435996,-,-
2019_Apr_29,116,001,4,source,4,PROBABLY,HF,target,right,aqua,pleasantness,conservative,no,3,0,1.35990063474,-,-
2019_Apr_29,116,001,4,source,5,HICKORY,LF,target,left,yellow,imageability,conservative,no,1,1,0.840125101092,-,-
2019_Apr_29,116,001,4,source,6,RANGE,HF,target,right,aqua,pleasantness,liberal,no,9,1,1.90607703007,-,-
2019_Apr_29,116,001,4,source,7,BREAK,HF,target,left,yellow,imageability,conservative,no,1,1,1.39956828318,-,-
2019_Apr_29,116,001,4,source,8,KOSHER,LF,target,left,yellow,imageability,conservative,no,1,1,0.786826624785,-,-
2019_Apr_29,116,001,4,source,9,ANYONE,HF,target,right,aqua,pleasantness,liberal,no,9,1,0.760084818276,-,-
2019_Apr_29,116,001,4,source,10,ARRIVED,HF,target,right,aqua,pleasantness,conservative,yes,3,0,0.760094716675,-,-
2019_Apr_29,116,001,4,source,11,INCLUDING,HF,target,left,yellow,imageability,liberal,no,3,1,2.15931472288,-,-
2019_Apr_29,116,001,4,source,12,HOLED,LF,target,right,aqua,pleasantness,liberal,no,9,1,1.38641477809,-,-
2019_Apr_29,116,001,4,source,13,TURNED,HF,target,left,yellow,imageability,liberal,no,1,1,1.23962409549,-,-
2019_Apr_29,116,001,4,source,14,EMIGRATED,LF,target,left,yellow,imageability,liberal,no,1,1,1.1867204553,-,-
2019_Apr_29,116,001,4,source,15,AVOCADO,LF,target,left,yellow,imageability,liberal,yes,3,1,0.746642059981,-,-
2019_Apr_29,116,001,4,source,16,EBULLIENT,LF,target,left,yellow,imageability,conservative,no,7,0,1.42658944449,-,-
2019_Apr_29,116,001,4,source,17,THEORY,HF,target,left,yellow,imageability,conservative,no,1,1,0.81351783948,-,-
2019_Apr_29,116,001,4,source,18,DWINDLE,LF,target,right,aqua,pleasantness,conservative,no,9,1,0.760055856295,-,-
2019_Apr_29,116,001,4,source,19,CHAIR,HF,target,right,aqua,pleasantness,conservative,no,9,1,0.786787397799,-,-
2019_Apr_29,116,001,4,source,20,USING,HF,target,left,yellow,imageability,conservative,no,3,1,1.53315156941,-,-
2019_Apr_29,116,001,4,source,21,PYJAMA,LF,target,left,yellow,imageability,conservative,no,1,1,0.826808089118,-,-
2019_Apr_29,116,001,4,source,22,SAMENESS,LF,target,right,aqua,pleasantness,liberal,no,3,0,2.02633853842,-,-
2019_Apr_29,116,001,4,source,23,YOGHURT,LF,target,right,aqua,pleasantness,conservative,no,9,1,0.66664540344,-,-
2019_Apr_29,116,001,4,source,24,BUMBLING,LF,target,right,aqua,pleasantness,conservative,no,9,1,0.693723022281,-,-
2019_Apr_29,116,001,4,source,25,PHYSICAL,HF,target,left,yellow,imageability,conservative,no,3,1,1.74639130055,-,-
2019_Apr_29,116,001,4,source,26,NECESSARY,HF,target,left,yellow,imageability,liberal,yes,7,0,0.90676588528,-,-
2019_Apr_29,116,001,4,source,27,NAGGED,LF,target,right,aqua,pleasantness,conservative,no,9,1,1.87970439716,-,-
2019_Apr_29,116,001,4,source,28,TOLERABLY,LF,target,left,yellow,imageability,conservative,no,2,1,1.13333032715,-,-
2019_Apr_29,116,001,4,source,29,BLACK,HF,target,right,aqua,pleasantness,conservative,no,9,1,0.866726130379,-,-
2019_Apr_29,116,001,4,source,30,DULLED,LF,target,right,aqua,pleasantness,liberal,no,2,0,2.43948192516,-,-
2019_Apr_29,116,001,4,source,31,COVER,HF,target,right,aqua,pleasantness,liberal,no,2,0,1.51977333401,-,-
2019_Apr_29,116,001,4,source,32,DIZZINESS,LF,target,right,aqua,pleasantness,liberal,no,9,1,1.79970260812,-,-
2019_Apr_29,116,001,4,source,33,OUTSIDE,HF,target,right,aqua,pleasantness,liberal,no,9,1,0.706849398434,-,-
2019_Apr_29,116,001,4,source,34,DIFFERENT,HF,target,right,aqua,pleasantness,liberal,no,9,1,1.77306381827,-,-
2019_Apr_29,116,001,4,source,35,TESTIFIES,LF,target,right,aqua,pleasantness,conservative,no,9,1,1.99937933376,-,-
2019_Apr_29,116,001,4,source,36,VERBALLY,LF,target,left,yellow,imageability,liberal,yes,3,1,0.679911090385,-,-
2019_Apr_29,116,001,4,source,37,VECTORS,LF,target,left,yellow,imageability,liberal,no,1,1,0.759874752265,-,-
2019_Apr_29,116,001,4,source,38,ROTARY,LF,target,left,yellow,imageability,liberal,no,1,1,1.58653473201,-,-
2019_Apr_29,116,001,4,source,39,FEELING,HF,target,left,yellow,imageability,liberal,no,2,1,1.43959960612,-,-
2019_Apr_29,116,001,4,source,40,MICROCOSM,LF,target,left,yellow,imageability,liberal,no,1,1,0.813389526907,-,-
2019_Apr_29,116,001,4,source,41,WITHIN,HF,target,right,aqua,pleasantness,conservative,no,9,1,1.43993248559,-,-
2019_Apr_29,116,001,4,source,42,HISTORY,HF,target,left,yellow,imageability,liberal,no,1,1,1.06637756011,-,-
2019_Apr_29,116,001,4,source,43,BYPASS,LF,target,right,aqua,pleasantness,liberal,no,8,1,1.55963051845,-,-
2019_Apr_29,116,001,4,source,44,ANIMAL,HF,target,right,aqua,pleasantness,liberal,no,9,1,0.826493173405,-,-
2019_Apr_29,116,001,4,source,45,AROUND,HF,target,left,yellow,imageability,conservative,no,2,1,1.73310325056,-,-
2019_Apr_29,116,001,4,source,46,SHEARING,LF,target,right,aqua,pleasantness,conservative,no,9,1,0.800187629642,-,-
2019_Apr_29,116,001,4,source,47,LATER,HF,target,left,yellow,imageability,liberal,no,2,1,6.07799351398,-,-
2019_Apr_29,116,001,4,recog,0,DIFFERENT,HF,target,right,aqua,pleasantness,liberal,no,z,1,1.26671161273,3,585
2019_Apr_29,116,001,4,recog,1,INTEREST,HF,lure,-,-,-,conservative,no,m,1,0.960075359806,3,588
2019_Apr_29,116,001,4,recog,2,WHOLE,HF,lure,-,-,-,liberal,no,m,1,0.946443432119,1,589
2019_Apr_29,116,001,4,recog,3,TESTIFIES,LF,target,right,aqua,pleasantness,conservative,no,z,1,0.999798365958,1,590
2019_Apr_29,116,001,4,recog,4,PROBABLY,HF,target,right,aqua,pleasantness,conservative,no,z,1,1.01333790859,1,591
2019_Apr_29,116,001,4,recog,5,MOPED,LF,lure,-,-,-,conservative,no,m,1,0.760099482571,3,594
2019_Apr_29,116,001,4,recog,6,POOLED,LF,lure,-,-,-,conservative,no,m,1,1.07998419189,3,597
2019_Apr_29,116,001,4,recog,7,THEORY,HF,target,left,yellow,imageability,conservative,no,z,1,0.77355947141,1,598
2019_Apr_29,116,001,4,recog,8,MIDDLE,HF,target,left,yellow,imageability,conservative,no,z,1,1.9196363695,1,599
2019_Apr_29,116,001,4,recog,9,BECAME,HF,lure,-,-,-,liberal,no,m,1,0.933408341197,1,600
2019_Apr_29,116,001,4,recog,10,SAMENESS,LF,target,right,aqua,pleasantness,liberal,yes,z,1,0.760112313827,3,603
2019_Apr_29,116,001,4,recog,11,SEEMED,HF,lure,-,-,-,liberal,no,z,0,1.50646035471,-1,602
2019_Apr_29,116,001,4,recog,12,EBULLIENT,LF,target,left,yellow,imageability,conservative,no,z,1,1.37319528367,1,603
2019_Apr_29,116,001,4,recog,13,TENABLE,LF,lure,-,-,-,liberal,no,m,1,1.25325309032,1,604
2019_Apr_29,116,001,4,recog,14,PYJAMA,LF,target,left,yellow,imageability,conservative,no,z,1,0.946518586626,1,605
2019_Apr_29,116,001,4,recog,15,CAPITAL,HF,lure,-,-,-,liberal,no,m,1,0.933439136214,1,606
2019_Apr_29,116,001,4,recog,16,RANGE,HF,target,right,aqua,pleasantness,liberal,no,z,1,1.01336063825,3,609
2019_Apr_29,116,001,4,recog,17,DULLED,LF,target,right,aqua,pleasantness,liberal,no,z,1,0.826736967292,3,612
2019_Apr_29,116,001,4,recog,18,MICROCOSM,LF,target,left,yellow,imageability,liberal,no,z,1,0.653232706948,3,615
2019_Apr_29,116,001,4,recog,19,YOGHURT,LF,target,right,aqua,pleasantness,conservative,no,z,1,0.813411156741,1,616
2019_Apr_29,116,001,4,recog,20,AVOCADO,LF,target,left,yellow,imageability,liberal,no,z,1,0.760210931205,3,619
2019_Apr_29,116,001,4,recog,21,CHAIR,HF,target,right,aqua,pleasantness,conservative,no,z,1,0.879907864241,1,620
2019_Apr_29,116,001,4,recog,22,ROTARY,LF,target,left,yellow,imageability,liberal,yes,m,0,0.720124617171,-3,617
2019_Apr_29,116,001,4,recog,23,MORNING,HF,lure,-,-,-,conservative,no,m,1,1.93297097863,3,620
2019_Apr_29,116,001,4,recog,24,ATTACK,HF,lure,-,-,-,conservative,no,m,1,0.760113413649,3,623
2019_Apr_29,116,001,4,recog,25,SMIRK,LF,lure,-,-,-,conservative,no,m,1,0.653448638676,3,626
2019_Apr_29,116,001,4,recog,26,HAVING,HF,lure,-,-,-,liberal,no,m,1,0.93341750638,1,627
2019_Apr_29,116,001,4,recog,27,EMIGRATED,LF,target,left,yellow,imageability,liberal,no,z,1,0.853370624633,3,630
2019_Apr_29,116,001,4,recog,28,BEAUTIFUL,HF,lure,-,-,-,conservative,no,m,1,0.906717859717,3,633
2019_Apr_29,116,001,4,recog,29,GEARING,LF,lure,-,-,-,liberal,no,m,1,1.83948977055,1,634
2019_Apr_29,116,001,4,recog,30,KOSHER,LF,target,left,yellow,imageability,conservative,no,z,1,0.813417755674,1,635
2019_Apr_29,116,001,4,recog,31,INCLUDING,HF,target,left,yellow,imageability,liberal,no,z,1,1.95967722422,3,638
2019_Apr_29,116,001,4,recog,32,FUNNILY,LF,lure,-,-,-,conservative,no,m,1,1.06671007298,3,641
2019_Apr_29,116,001,4,recog,33,HICKORY,LF,target,left,yellow,imageability,conservative,no,z,1,0.73346032612,1,642
2019_Apr_29,116,001,4,recog,34,WITHIN,HF,target,right,aqua,pleasantness,conservative,no,z,1,0.680127755329,1,643
2019_Apr_29,116,001,4,recog,35,DUMMIES,LF,lure,-,-,-,liberal,yes,z,0,0.77350704656,-1,642
2019_Apr_29,116,001,4,recog,36,COVER,HF,target,right,aqua,pleasantness,liberal,no,z,1,1.53313763833,3,645
2019_Apr_29,116,001,4,recog,37,HISTORY,HF,target,left,yellow,imageability,liberal,no,z,1,0.773421993655,3,648
2019_Apr_29,116,001,4,recog,38,NOTHING,HF,lure,-,-,-,liberal,no,m,1,1.19972658424,1,649
2019_Apr_29,116,001,4,recog,39,GAPED,LF,target,right,aqua,pleasantness,liberal,no,z,1,0.693461997849,3,652
2019_Apr_29,116,001,4,recog,40,MARKET,HF,lure,-,-,-,conservative,no,m,1,1.49317487097,3,655
2019_Apr_29,116,001,4,recog,41,PAMPERED,LF,lure,-,-,-,conservative,no,m,1,0.974975015709,3,658
2019_Apr_29,116,001,4,recog,42,MUSIC,HF,lure,-,-,-,conservative,no,m,1,0.9064725994,3,661
2019_Apr_29,116,001,4,recog,43,VERBALLY,LF,target,left,yellow,imageability,liberal,no,m,0,1.67975014976,-3,658
2019_Apr_29,116,001,4,recog,44,BREAK,HF,target,left,yellow,imageability,conservative,no,z,1,0.826848415926,1,659
2019_Apr_29,116,001,4,recog,45,JADED,LF,lure,-,-,-,conservative,no,m,1,0.813550100927,3,662
2019_Apr_29,116,001,4,recog,46,HOLED,LF,target,right,aqua,pleasantness,liberal,no,z,1,0.826506004661,3,665
2019_Apr_29,116,001,4,recog,47,OUTSIDE,HF,target,right,aqua,pleasantness,liberal,no,z,1,0.880128928473,3,668
2019_Apr_29,116,001,4,recog,48,UNION,HF,lure,-,-,-,conservative,no,m,1,0.879808513649,3,671
2019_Apr_29,116,001,4,recog,49,QUALITY,HF,lure,-,-,-,liberal,no,m,1,1.8929895143,1,672
2019_Apr_29,116,001,4,recog,50,EAVES,LF,lure,-,-,-,liberal,no,m,1,0.680088528343,1,673
2019_Apr_29,116,001,4,recog,51,SNEAKED,LF,lure,-,-,-,liberal,no,m,1,1.14661544429,1,674
2019_Apr_29,116,001,4,recog,52,DAPPER,LF,target,left,yellow,imageability,conservative,no,z,1,1.00001869697,1,675
2019_Apr_29,116,001,4,recog,53,NECESSARY,HF,target,left,yellow,imageability,liberal,no,z,1,1.59981215039,3,678
2019_Apr_29,116,001,4,recog,54,VECTORS,LF,target,left,yellow,imageability,liberal,no,z,1,0.613326397122,3,681
2019_Apr_29,116,001,4,recog,55,REIGNING,LF,lure,-,-,-,conservative,no,m,1,1.27990177856,3,684
2019_Apr_29,116,001,4,recog,56,ALDER,LF,lure,-,-,-,conservative,no,m,1,0.733436863249,3,687
2019_Apr_29,116,001,4,recog,57,ARRIVED,HF,target,right,aqua,pleasantness,conservative,no,z,1,0.77342675955,1,688
2019_Apr_29,116,001,4,recog,58,FEELING,HF,target,left,yellow,imageability,liberal,no,z,1,1.06664298383,3,691
2019_Apr_29,116,001,4,recog,59,WEBBED,LF,lure,-,-,-,liberal,no,m,1,1.0666415174,1,692
2019_Apr_29,116,001,4,recog,60,BYPASS,LF,target,right,aqua,pleasantness,liberal,no,z,1,0.800137404434,3,695
2019_Apr_29,116,001,4,recog,61,SHEARING,LF,target,right,aqua,pleasantness,conservative,no,z,1,0.866429545033,1,696
2019_Apr_29,116,001,4,recog,62,HONKING,LF,lure,-,-,-,liberal,no,m,1,0.813570264331,1,697
2019_Apr_29,116,001,4,recog,63,BLACK,HF,target,right,aqua,pleasantness,conservative,no,z,1,0.88006293915,1,698
2019_Apr_29,116,001,4,recog,64,ANYONE,HF,target,right,aqua,pleasantness,liberal,no,z,1,1.94629862222,3,701
2019_Apr_29,116,001,4,recog,65,PICTURE,HF,lure,-,-,-,liberal,no,m,1,0.920078864573,1,702
2019_Apr_29,116,001,4,recog,66,LATER,HF,target,left,yellow,imageability,liberal,no,z,1,0.640333260745,3,705
2019_Apr_29,116,001,4,recog,67,AROUND,HF,target,left,yellow,imageability,conservative,no,z,1,0.786707477397,1,706
2019_Apr_29,116,001,4,recog,68,IGNOBLE,LF,lure,-,-,-,conservative,no,m,1,0.720139648071,3,709
2019_Apr_29,116,001,4,recog,69,ANIMAL,HF,target,right,aqua,pleasantness,liberal,no,z,1,0.720225067584,3,712
2019_Apr_29,116,001,4,recog,70,MOVED,HF,lure,-,-,-,liberal,no,z,0,1.83973613069,-1,711
2019_Apr_29,116,001,4,recog,71,BUMBLING,LF,target,right,aqua,pleasantness,conservative,no,z,1,0.986658058727,1,712
2019_Apr_29,116,001,4,recog,72,SIZZLING,LF,lure,-,-,-,conservative,yes,m,1,0.960010103699,3,715
2019_Apr_29,116,001,4,recog,73,DWINDLE,LF,target,right,aqua,pleasantness,conservative,no,m,0,1.99960992978,-1,714
2019_Apr_29,116,001,4,recog,74,JOURNEYED,LF,lure,-,-,-,liberal,no,m,1,1.59978318841,1,715
2019_Apr_29,116,001,4,recog,75,USING,HF,target,left,yellow,imageability,conservative,no,z,1,1.55979182568,1,716
2019_Apr_29,116,001,4,recog,76,BUCKED,LF,lure,-,-,-,liberal,no,m,1,1.08008060962,1,717
2019_Apr_29,116,001,4,recog,77,SOUND,HF,lure,-,-,-,liberal,no,m,1,0.733184270785,1,718
2019_Apr_29,116,001,4,recog,78,ANTELOPES,LF,lure,-,-,-,conservative,no,m,1,0.946761280692,3,721
2019_Apr_29,116,001,4,recog,79,GASEOUS,LF,lure,-,-,-,liberal,no,m,1,0.933405041731,1,722
2019_Apr_29,116,001,4,recog,80,DIZZINESS,LF,target,right,aqua,pleasantness,liberal,no,z,1,0.813424721214,3,725
2019_Apr_29,116,001,4,recog,81,IDEAS,HF,lure,-,-,-,conservative,no,m,1,1.5865790915,3,728
2019_Apr_29,116,001,4,recog,82,PHYSICAL,HF,target,left,yellow,imageability,conservative,no,z,1,1.77297509929,1,729
2019_Apr_29,116,001,4,recog,83,WAITING,HF,lure,-,-,-,conservative,no,z,0,1.50646695365,-3,726
2019_Apr_29,116,001,4,recog,84,TURNED,HF,target,left,yellow,imageability,liberal,no,z,1,1.75976037077,3,729
2019_Apr_29,116,001,4,recog,85,LABOUR,HF,lure,-,-,-,conservative,no,m,1,1.02663732341,3,732
2019_Apr_29,116,001,4,recog,86,PRIVATE,HF,lure,-,-,-,conservative,no,m,1,1.67972522046,3,735
2019_Apr_29,116,001,4,recog,87,GORGED,LF,lure,-,-,-,liberal,no,m,1,0.986672723019,1,736
2019_Apr_29,116,001,4,recog,88,HAMLETS,LF,lure,-,-,-,liberal,no,m,1,0.826523601814,1,737
2019_Apr_29,116,001,4,recog,89,PHOBIC,LF,lure,-,-,-,conservative,no,m,1,0.999705614298,3,740
2019_Apr_29,116,001,4,recog,90,ECONOMIC,HF,lure,-,-,-,liberal,no,m,1,1.15968646273,1,741
2019_Apr_29,116,001,4,recog,91,TOLERABLY,LF,target,left,yellow,imageability,conservative,no,z,1,1.18658994308,1,742
2019_Apr_29,116,001,4,recog,92,OFFER,HF,lure,-,-,-,liberal,no,m,1,0.826835218061,1,743
2019_Apr_29,116,001,4,recog,93,NAGGED,LF,target,right,aqua,pleasantness,conservative,no,z,1,0.933432170675,1,744
2019_Apr_29,116,001,4,recog,94,DRINK,HF,lure,-,-,-,conservative,no,m,1,0.813402724772,3,747
2019_Apr_29,116,001,4,recog,95,TRYING,HF,target,right,aqua,pleasantness,conservative,no,z,1,0.826460911958,1,748
