date,subj,session,cycle,task,trial,item,wf,type,source,colour,encoding,bias,null,response,corr,rt,points,total
2019_Sep_30,117,001,0,source,0,WOBBLE,LF,target,left,aqua,pleasantness,conservative,yes,2,1,3.3886324693,-,-
2019_Sep_30,117,001,0,source,1,FRONT,HF,target,right,yellow,imageability,conservative,no,9,1,3.85916735283,-,-
2019_Sep_30,117,001,0,source,2,SENSE,HF,target,left,aqua,pleasantness,liberal,no,3,1,4.35319866233,-,-
2019_Sep_30,117,001,0,source,3,FOOLHARDY,LF,target,right,yellow,imageability,conservative,no,1,0,3.24752486863,-,-
2019_Sep_30,117,001,0,source,4,AMONG,HF,target,right,yellow,imageability,liberal,yes,8,1,5.1769479722,-,-
2019_Sep_30,117,001,0,source,5,AMEND,LF,target,left,aqua,pleasantness,conservative,no,8,0,4.25924485305,-,-
2019_Sep_30,117,001,0,source,6,NEOLITHIC,LF,target,left,aqua,pleasantness,liberal,no,1,1,2.07088851039,-,-
2019_Sep_30,117,001,0,source,7,ANYONE,HF,target,right,yellow,imageability,liberal,no,9,1,2.75344370089,-,-
2019_Sep_30,117,001,0,source,8,PERHAPS,HF,target,right,yellow,imageability,conservative,no,2,0,2.75331502265,-,-
2019_Sep_30,117,001,0,source,9,BRING,HF,target,left,aqua,pleasantness,conservative,no,3,1,2.28263533028,-,-
2019_Sep_30,117,001,0,source,10,TROUBLE,HF,target,left,aqua,pleasantness,liberal,no,1,1,3.60031843281,-,-
2019_Sep_30,117,001,0,source,11,BIRCHES,LF,target,right,yellow,imageability,conservative,no,9,1,1.31810983036,-,-
2019_Sep_30,117,001,0,source,12,BABBLED,LF,target,left,aqua,pleasantness,liberal,no,2,1,2.07095303281,-,-
2019_Sep_30,117,001,0,source,13,LAPELS,LF,target,left,aqua,pleasantness,liberal,no,1,1,3.27091424604,-,-
2019_Sep_30,117,001,0,source,14,DOING,HF,target,right,yellow,imageability,liberal,no,8,1,3.52979176122,-,-
2019_Sep_30,117,001,0,source,15,NORTH,HF,target,right,yellow,imageability,conservative,no,9,1,0.80034600148,-,-
2019_Sep_30,117,001,0,source,16,BUTCHERED,LF,target,right,yellow,imageability,liberal,no,9,1,0.917978072642,-,-
2019_Sep_30,117,001,0,source,17,LEARN,HF,target,left,aqua,pleasantness,liberal,no,2,1,4.28269032098,-,-
2019_Sep_30,117,001,0,source,18,ODOURS,LF,target,right,yellow,imageability,conservative,no,1,0,3.29443413471,-,-
2019_Sep_30,117,001,0,source,19,DIMMED,LF,target,left,aqua,pleasantness,conservative,no,1,1,1.22371609548,-,-
2019_Sep_30,117,001,0,source,20,SCHOOL,HF,target,right,yellow,imageability,liberal,no,2,0,2.82393737806,-,-
2019_Sep_30,117,001,0,source,21,HAUNCHES,LF,target,right,yellow,imageability,liberal,no,8,1,4.00030171564,-,-
2019_Sep_30,117,001,0,source,22,LAVISHED,LF,target,left,aqua,pleasantness,conservative,yes,3,1,3.81227128452,-,-
2019_Sep_30,117,001,0,source,23,BUGGED,LF,target,right,yellow,imageability,conservative,no,7,1,2.54151064583,-,-
2019_Sep_30,117,001,0,source,24,AFTERNOON,HF,target,left,aqua,pleasantness,liberal,no,2,1,4.72985672357,-,-
2019_Sep_30,117,001,0,source,25,SEQUEL,LF,target,right,yellow,imageability,liberal,no,9,1,1.55329771891,-,-
2019_Sep_30,117,001,0,source,26,YOUNG,HF,target,left,aqua,pleasantness,conservative,no,1,1,1.60024437867,-,-
2019_Sep_30,117,001,0,source,27,ENOUGH,HF,target,left,aqua,pleasantness,conservative,no,1,1,4.6120747111,-,-
2019_Sep_30,117,001,0,source,28,TOILED,LF,target,left,aqua,pleasantness,liberal,no,7,0,4.44750221246,-,-
2019_Sep_30,117,001,0,source,29,BURGH,LF,target,left,aqua,pleasantness,liberal,no,2,1,3.38857637878,-,-
2019_Sep_30,117,001,0,source,30,GEOLOGIST,LF,target,left,aqua,pleasantness,conservative,no,1,1,1.62381302576,-,-
2019_Sep_30,117,001,0,source,31,HOURS,HF,target,right,yellow,imageability,conservative,no,8,1,2.77706000658,-,-
2019_Sep_30,117,001,0,source,32,REEDY,LF,target,right,yellow,imageability,liberal,no,3,0,1.71802309169,-,-
2019_Sep_30,117,001,0,source,33,ECONOMIC,HF,target,left,aqua,pleasantness,conservative,no,9,0,5.24726494592,-,-
2019_Sep_30,117,001,0,source,34,HANDS,HF,target,right,yellow,imageability,conservative,no,2,0,1.57673328851,-,-
2019_Sep_30,117,001,0,source,35,NEBULOUS,LF,target,right,yellow,imageability,conservative,no,1,0,1.67095398598,-,-
2019_Sep_30,117,001,0,source,36,YARDSTICK,LF,target,right,yellow,imageability,liberal,no,9,1,1.55337250626,-,-
2019_Sep_30,117,001,0,source,37,OFTEN,HF,target,left,aqua,pleasantness,conservative,no,7,0,1.62394500344,-,-
2019_Sep_30,117,001,0,source,38,ABOVE,HF,target,left,aqua,pleasantness,liberal,no,2,1,2.35327308308,-,-
2019_Sep_30,117,001,0,source,39,FENCED,LF,target,left,aqua,pleasantness,liberal,no,1,1,1.812073318,-,-
2019_Sep_30,117,001,0,source,40,ATTACK,HF,target,left,aqua,pleasantness,conservative,no,1,1,1.20038060896,-,-
2019_Sep_30,117,001,0,source,41,RUGGER,LF,target,right,yellow,imageability,conservative,no,2,0,1.48262623848,-,-
2019_Sep_30,117,001,0,source,42,NIGHT,HF,target,right,yellow,imageability,liberal,no,7,1,2.37670975249,-,-
2019_Sep_30,117,001,0,source,43,SUMMER,HF,target,right,yellow,imageability,conservative,no,9,1,3.05908200726,-,-
2019_Sep_30,117,001,0,source,44,BLIGHTED,LF,target,left,aqua,pleasantness,conservative,no,3,1,4.35315870242,-,-
2019_Sep_30,117,001,0,source,45,DEMEANOUR,LF,target,right,yellow,imageability,liberal,no,8,1,3.78834996374,-,-
2019_Sep_30,117,001,0,source,46,QUICKLY,HF,target,right,yellow,imageability,liberal,no,3,0,4.84759987594,-,-
2019_Sep_30,117,001,0,source,47,BREAK,HF,target,left,aqua,pleasantness,liberal,yes,7,0,7.41216775536,-,-
2019_Sep_30,117,001,0,recog,0,BREAK,HF,target,left,aqua,pleasantness,liberal,no,z,1,6.61214693222,3,3
2019_Sep_30,117,001,0,recog,1,AMONG,HF,target,right,yellow,imageability,liberal,no,z,1,2.75333298628,3,6
2019_Sep_30,117,001,0,recog,2,NIGHT,HF,target,right,yellow,imageability,liberal,no,z,1,1.16500399232,3,9
2019_Sep_30,117,001,0,recog,3,BASIC,HF,lure,-,-,-,liberal,no,m,1,3.21214971841,1,10
2019_Sep_30,117,001,0,recog,4,EVENING,HF,lure,-,-,-,conservative,no,None,-1,-1,-3,7
2019_Sep_30,117,001,0,recog,5,STAFF,HF,lure,-,-,-,liberal,no,m,1,3.32977739032,1,8
2019_Sep_30,117,001,0,recog,6,HOURS,HF,target,right,yellow,imageability,conservative,no,z,1,1.8239168482,1,9
2019_Sep_30,117,001,0,recog,7,CLOSE,HF,lure,-,-,-,liberal,no,m,1,3.04732242953,1,10
2019_Sep_30,117,001,0,recog,8,WIZENED,LF,lure,-,-,-,liberal,no,m,1,0.964977890073,1,11
2019_Sep_30,117,001,0,recog,9,SINCE,HF,lure,-,-,-,conservative,no,z,0,2.24734743197,-3,8
2019_Sep_30,117,001,0,recog,10,NOVAS,LF,lure,-,-,-,conservative,no,m,1,2.18859573551,3,11
2019_Sep_30,117,001,0,recog,11,TALKING,HF,lure,-,-,-,liberal,no,z,0,3.32959445459,-1,10
2019_Sep_30,117,001,0,recog,12,QUALITY,HF,lure,-,-,-,liberal,no,m,1,3.11773325405,1,11
2019_Sep_30,117,001,0,recog,13,BLIGHTED,LF,target,left,aqua,pleasantness,conservative,no,z,1,1.88282691787,1,12
2019_Sep_30,117,001,0,recog,14,ENOUGH,HF,target,left,aqua,pleasantness,conservative,no,z,1,2.40033082405,1,13
2019_Sep_30,117,001,0,recog,15,GOBBLE,LF,lure,-,-,-,liberal,no,z,0,1.47101660206,-1,12
2019_Sep_30,117,001,0,recog,16,TOILED,LF,target,left,aqua,pleasantness,liberal,yes,m,0,2.38868965962,-3,9
2019_Sep_30,117,001,0,recog,17,ROUND,HF,lure,-,-,-,conservative,no,z,0,3.2709113132,-3,6
2019_Sep_30,117,001,0,recog,18,AFTERNOON,HF,target,left,aqua,pleasantness,liberal,no,z,1,2.15303178389,3,9
2019_Sep_30,117,001,0,recog,19,FRONT,HF,target,right,yellow,imageability,conservative,no,z,1,4.4591444767,1,10
2019_Sep_30,117,001,0,recog,20,PIANOS,LF,lure,-,-,-,liberal,no,m,1,1.22378904981,1,11
2019_Sep_30,117,001,0,recog,21,SIPHON,LF,lure,-,-,-,conservative,no,m,1,1.55341429919,3,14
2019_Sep_30,117,001,0,recog,22,TARIFF,LF,lure,-,-,-,liberal,no,m,1,1.24741378741,1,15
2019_Sep_30,117,001,0,recog,23,SUAVE,LF,lure,-,-,-,liberal,no,z,0,1.12974322276,-1,14
2019_Sep_30,117,001,0,recog,24,NEBULOUS,LF,target,right,yellow,imageability,conservative,no,z,1,1.38856354762,1,15
2019_Sep_30,117,001,0,recog,25,AMEND,LF,target,left,aqua,pleasantness,conservative,no,z,1,0.882540599633,1,16
2019_Sep_30,117,001,0,recog,26,DIMMED,LF,target,left,aqua,pleasantness,conservative,yes,m,0,4.09455540753,-1,15
2019_Sep_30,117,001,0,recog,27,MAYBE,HF,lure,-,-,-,conservative,no,z,0,4.50622238092,-3,12
2019_Sep_30,117,001,0,recog,28,OFTEN,HF,target,left,aqua,pleasantness,conservative,no,z,1,2.68271576334,1,13
2019_Sep_30,117,001,0,recog,29,BURGH,LF,target,left,aqua,pleasantness,liberal,no,z,1,0.917994569852,3,16
2019_Sep_30,117,001,0,recog,30,FENCED,LF,target,left,aqua,pleasantness,liberal,no,z,1,0.965051944215,3,19
2019_Sep_30,117,001,0,recog,31,COPIOUSLY,LF,lure,-,-,-,liberal,no,m,1,1.0944428599,1,20
2019_Sep_30,117,001,0,recog,32,CHIEF,HF,lure,-,-,-,conservative,no,m,1,1.05912196717,3,23
2019_Sep_30,117,001,0,recog,33,HIVES,LF,lure,-,-,-,conservative,no,m,1,0.858904497286,3,26
2019_Sep_30,117,001,0,recog,34,PEEKED,LF,lure,-,-,-,conservative,no,m,1,0.764885432377,3,29
2019_Sep_30,117,001,0,recog,35,TOWARDS,HF,lure,-,-,-,liberal,no,m,1,1.95324984034,1,30
2019_Sep_30,117,001,0,recog,36,SCHOOL,HF,target,right,yellow,imageability,liberal,no,z,1,0.812102646372,3,33
2019_Sep_30,117,001,0,recog,37,WEDGES,LF,lure,-,-,-,conservative,no,z,0,1.05923011555,-3,30
2019_Sep_30,117,001,0,recog,38,ATTACK,HF,target,left,aqua,pleasantness,conservative,no,z,1,0.988518308603,1,31
2019_Sep_30,117,001,0,recog,39,FEELING,HF,lure,-,-,-,conservative,no,z,0,4.2239925154,-3,28
2019_Sep_30,117,001,0,recog,40,TROUBLE,HF,target,left,aqua,pleasantness,liberal,no,z,1,1.48277214714,3,31
2019_Sep_30,117,001,0,recog,41,SUMMER,HF,target,right,yellow,imageability,conservative,no,m,0,2.49445473789,-1,30
2019_Sep_30,117,001,0,recog,42,BRING,HF,target,left,aqua,pleasantness,conservative,no,z,1,1.81221592721,1,31
2019_Sep_30,117,001,0,recog,43,LEARN,HF,target,left,aqua,pleasantness,liberal,no,z,1,2.08280022905,3,34
2019_Sep_30,117,001,0,recog,44,SUNBURN,LF,lure,-,-,-,liberal,no,m,1,0.965053410633,1,35
2019_Sep_30,117,001,0,recog,45,RUGGER,LF,target,right,yellow,imageability,conservative,no,z,1,1.7647769174,1,36
2019_Sep_30,117,001,0,recog,46,NEPHEWS,LF,lure,-,-,-,liberal,no,m,1,0.941456534985,1,37
2019_Sep_30,117,001,0,recog,47,PROBABLY,HF,lure,-,-,-,liberal,no,m,1,3.30619371244,1,38
2019_Sep_30,117,001,0,recog,48,BIRCHES,LF,target,right,yellow,imageability,conservative,no,z,1,1.25883608886,1,39
2019_Sep_30,117,001,0,recog,49,GEOLOGIST,LF,target,left,aqua,pleasantness,conservative,no,z,1,1.29434431656,1,40
2019_Sep_30,117,001,0,recog,50,BABBLED,LF,target,left,aqua,pleasantness,liberal,no,z,1,0.70619789173,3,43
2019_Sep_30,117,001,0,recog,51,PAMPERED,LF,lure,-,-,-,conservative,yes,m,1,2.28247695706,3,46
2019_Sep_30,117,001,0,recog,52,TACITLY,LF,lure,-,-,-,conservative,no,m,1,1.58860651368,3,49
2019_Sep_30,117,001,0,recog,53,ABOVE,HF,target,left,aqua,pleasantness,liberal,no,z,1,0.835567910947,3,52
2019_Sep_30,117,001,0,recog,54,DEMEANOUR,LF,target,right,yellow,imageability,liberal,no,z,1,0.800259849384,3,55
2019_Sep_30,117,001,0,recog,55,YOUNG,HF,target,left,aqua,pleasantness,conservative,no,m,0,3.47095537908,-1,54
2019_Sep_30,117,001,0,recog,56,NINETIES,LF,lure,-,-,-,liberal,no,m,1,2.09437797087,1,55
2019_Sep_30,117,001,0,recog,57,AXLES,LF,lure,-,-,-,conservative,no,m,1,1.49453722394,3,58
2019_Sep_30,117,001,0,recog,58,DOING,HF,target,right,yellow,imageability,liberal,no,z,1,1.81206305307,3,61
2019_Sep_30,117,001,0,recog,59,SOUND,HF,lure,-,-,-,liberal,no,m,1,1.45906272386,1,62
2019_Sep_30,117,001,0,recog,60,PERHAPS,HF,target,right,yellow,imageability,conservative,no,z,1,1.54144135755,1,63
2019_Sep_30,117,001,0,recog,61,ECONOMIC,HF,target,left,aqua,pleasantness,conservative,no,z,1,1.35320782745,1,64
2019_Sep_30,117,001,0,recog,62,NEOLITHIC,LF,target,left,aqua,pleasantness,liberal,no,z,1,0.706369462712,3,67
2019_Sep_30,117,001,0,recog,63,POLICE,HF,lure,-,-,-,conservative,no,m,1,0.788594855657,3,70
2019_Sep_30,117,001,0,recog,64,LAPELS,LF,target,left,aqua,pleasantness,liberal,no,z,1,1.02373765184,3,73
2019_Sep_30,117,001,0,recog,65,FOOLHARDY,LF,target,right,yellow,imageability,conservative,no,m,0,1.15320262166,-1,72
2019_Sep_30,117,001,0,recog,66,ZIGZAG,LF,lure,-,-,-,conservative,no,m,1,1.8591490226,3,75
2019_Sep_30,117,001,0,recog,67,OLDER,HF,lure,-,-,-,conservative,no,m,1,1.45909791791,3,78
2019_Sep_30,117,001,0,recog,68,FELLS,LF,lure,-,-,-,conservative,no,m,1,1.01183436508,3,81
2019_Sep_30,117,001,0,recog,69,WOBBLE,LF,target,left,aqua,pleasantness,conservative,no,z,1,0.764712394977,1,82
2019_Sep_30,117,001,0,recog,70,HANDS,HF,target,right,yellow,imageability,conservative,no,z,1,0.929695857441,1,83
2019_Sep_30,117,001,0,recog,71,FRIEND,HF,lure,-,-,-,liberal,no,z,0,3.08273167398,-1,82
2019_Sep_30,117,001,0,recog,72,SEQUEL,LF,target,right,yellow,imageability,liberal,no,z,1,1.71799009727,3,85
2019_Sep_30,117,001,0,recog,73,TWENTY,HF,lure,-,-,-,liberal,no,m,1,1.74161813432,1,86
2019_Sep_30,117,001,0,recog,74,TODAY,HF,lure,-,-,-,conservative,no,m,1,1.09442086362,3,89
2019_Sep_30,117,001,0,recog,75,FUSELAGE,LF,lure,-,-,-,liberal,no,m,1,0.882594490518,1,90
2019_Sep_30,117,001,0,recog,76,DURING,HF,lure,-,-,-,conservative,no,m,1,1.47090002178,3,93
2019_Sep_30,117,001,0,recog,77,YARDSTICK,LF,target,right,yellow,imageability,liberal,no,z,1,0.776913731324,3,96
2019_Sep_30,117,001,0,recog,78,REEDY,LF,target,right,yellow,imageability,liberal,no,z,1,1.05912563322,3,99
2019_Sep_30,117,001,0,recog,79,REPORT,HF,lure,-,-,-,liberal,no,m,1,0.694495870932,1,100
2019_Sep_30,117,001,0,recog,80,BUGGED,LF,target,right,yellow,imageability,conservative,no,z,1,1.36477310471,1,101
2019_Sep_30,117,001,0,recog,81,NORTH,HF,target,right,yellow,imageability,conservative,yes,m,0,1.94150382699,-1,100
2019_Sep_30,117,001,0,recog,82,LAVISHED,LF,target,left,aqua,pleasantness,conservative,no,z,1,2.6943521619,1,101
2019_Sep_30,117,001,0,recog,83,BAGGY,LF,lure,-,-,-,liberal,no,m,1,0.894352235225,1,102
2019_Sep_30,117,001,0,recog,84,BUTCHERED,LF,target,right,yellow,imageability,liberal,no,z,1,0.917993836642,3,105
2019_Sep_30,117,001,0,recog,85,HAUNCHES,LF,target,right,yellow,imageability,liberal,no,z,1,1.71793107392,3,108
2019_Sep_30,117,001,0,recog,86,ANYONE,HF,target,right,yellow,imageability,liberal,no,z,1,0.753387610376,3,111
2019_Sep_30,117,001,0,recog,87,INTEREST,HF,lure,-,-,-,conservative,no,m,1,0.659087726296,3,114
2019_Sep_30,117,001,0,recog,88,NAIVELY,LF,lure,-,-,-,liberal,no,m,1,1.07093580239,1,115
2019_Sep_30,117,001,0,recog,89,QUICKLY,HF,target,right,yellow,imageability,liberal,no,m,0,2.67087516598,-3,112
2019_Sep_30,117,001,0,recog,90,CLEAR,HF,lure,-,-,-,liberal,no,m,1,1.41216482252,1,113
2019_Sep_30,117,001,0,recog,91,GYPSIES,LF,lure,-,-,-,conservative,no,z,0,0.694356927765,-3,110
2019_Sep_30,117,001,0,recog,92,SENSE,HF,target,left,aqua,pleasantness,liberal,no,z,1,1.63563492628,3,113
2019_Sep_30,117,001,0,recog,93,BEAUTIFUL,HF,lure,-,-,-,conservative,no,z,0,1.64739523722,-3,110
2019_Sep_30,117,001,0,recog,94,ODOURS,LF,target,right,yellow,imageability,conservative,no,z,1,1.43569937538,1,111
2019_Sep_30,117,001,0,recog,95,SEPULCHRE,LF,lure,-,-,-,conservative,no,m,1,1.17674157378,3,114
2019_Sep_30,117,001,1,source,0,WEBBED,LF,target,left,aqua,pleasantness,conservative,no,1,1,1.30614495402,-,-
2019_Sep_30,117,001,1,source,1,ALLOWED,HF,target,left,aqua,pleasantness,liberal,no,8,0,2.57682970554,-,-
2019_Sep_30,117,001,1,source,2,RAVAGES,LF,target,left,aqua,pleasantness,liberal,no,8,0,2.89449924369,-,-
2019_Sep_30,117,001,1,source,3,PLIABLE,LF,target,left,aqua,pleasantness,conservative,no,1,1,2.75330769056,-,-
2019_Sep_30,117,001,1,source,4,BICEPS,LF,target,left,aqua,pleasantness,liberal,no,1,1,0.964999519748,-,-
2019_Sep_30,117,001,1,source,5,HAVING,HF,target,left,aqua,pleasantness,liberal,no,7,0,1.75328312805,-,-
2019_Sep_30,117,001,1,source,6,EXPECT,HF,target,right,yellow,imageability,liberal,no,2,0,2.43565574942,-,-
2019_Sep_30,117,001,1,source,7,ICILY,LF,target,left,aqua,pleasantness,liberal,no,1,1,1.10596047855,-,-
2019_Sep_30,117,001,1,source,8,GABLE,LF,target,left,aqua,pleasantness,conservative,no,9,0,1.70625104941,-,-
2019_Sep_30,117,001,1,source,9,SLEEP,HF,target,right,yellow,imageability,conservative,no,2,0,1.72958616933,-,-
2019_Sep_30,117,001,1,source,10,OUGHT,HF,target,right,yellow,imageability,conservative,no,3,0,3.68281144716,-,-
2019_Sep_30,117,001,1,source,11,TEETERED,LF,target,right,yellow,imageability,liberal,no,8,1,2.08268181575,-,-
2019_Sep_30,117,001,1,source,12,FEUDALISM,LF,target,right,yellow,imageability,conservative,yes,2,0,3.04744194265,-,-
2019_Sep_30,117,001,1,source,13,BUSINESS,HF,target,left,aqua,pleasantness,conservative,no,1,1,1.00027568671,-,-
2019_Sep_30,117,001,1,source,14,REIGNING,LF,target,right,yellow,imageability,liberal,no,9,1,1.20035421342,-,-
2019_Sep_30,117,001,1,source,15,DEGREE,HF,target,left,aqua,pleasantness,conservative,no,1,1,0.753251233441,-,-
2019_Sep_30,117,001,1,source,16,DWARFED,LF,target,left,aqua,pleasantness,liberal,no,1,1,0.706200457963,-,-
2019_Sep_30,117,001,1,source,17,PEDALLING,LF,target,left,aqua,pleasantness,conservative,no,1,1,0.918069723807,-,-
2019_Sep_30,117,001,1,source,18,AWAITS,LF,target,right,yellow,imageability,conservative,no,8,1,2.08253993974,-,-
2019_Sep_30,117,001,1,source,19,MOTHER,HF,target,left,aqua,pleasantness,conservative,no,1,1,1.34141305567,-,-
2019_Sep_30,117,001,1,source,20,APART,HF,target,left,aqua,pleasantness,liberal,no,8,0,2.57673695456,-,-
2019_Sep_30,117,001,1,source,21,VILLAGE,HF,target,right,yellow,imageability,conservative,yes,3,0,1.91797623962,-,-
2019_Sep_30,117,001,1,source,22,WESTERN,HF,target,right,yellow,imageability,liberal,no,9,1,1.4121475921,-,-
2019_Sep_30,117,001,1,source,23,ONCOMING,LF,target,right,yellow,imageability,conservative,no,9,1,0.870720165529,-,-
2019_Sep_30,117,001,1,source,24,BECAME,HF,target,left,aqua,pleasantness,liberal,no,3,1,2.9767843932,-,-
2019_Sep_30,117,001,1,source,25,LONGER,HF,target,right,yellow,imageability,conservative,no,8,1,2.22392615996,-,-
2019_Sep_30,117,001,1,source,26,NARRATOR,LF,target,right,yellow,imageability,conservative,no,1,0,2.10623433223,-,-
2019_Sep_30,117,001,1,source,27,BLACK,HF,target,right,yellow,imageability,liberal,no,9,1,1.16512460526,-,-
2019_Sep_30,117,001,1,source,28,SAYING,HF,target,left,aqua,pleasantness,conservative,no,3,1,2.6239186079,-,-
2019_Sep_30,117,001,1,source,29,DEFEATING,LF,target,right,yellow,imageability,liberal,no,9,1,2.38860570715,-,-
2019_Sep_30,117,001,1,source,30,JEALOUSLY,LF,target,right,yellow,imageability,liberal,no,1,0,1.09457153813,-,-
2019_Sep_30,117,001,1,source,31,EXECUTING,LF,target,left,aqua,pleasantness,liberal,no,7,0,2.92996091261,-,-
2019_Sep_30,117,001,1,source,32,WAYSIDE,LF,target,left,aqua,pleasantness,liberal,no,2,1,1.78825318011,-,-
2019_Sep_30,117,001,1,source,33,AMBIENCE,LF,target,left,aqua,pleasantness,conservative,yes,7,0,2.64740073629,-,-
2019_Sep_30,117,001,1,source,34,SEVEN,HF,target,right,yellow,imageability,conservative,no,9,1,1.01193188192,-,-
2019_Sep_30,117,001,1,source,35,KNOWLEDGE,HF,target,right,yellow,imageability,liberal,no,9,1,0.741424567058,-,-
2019_Sep_30,117,001,1,source,36,COGENT,LF,target,right,yellow,imageability,liberal,no,1,0,2.40027363372,-,-
2019_Sep_30,117,001,1,source,37,VULTURE,LF,target,right,yellow,imageability,conservative,no,9,1,0.906258088216,-,-
2019_Sep_30,117,001,1,source,38,BAYING,LF,target,right,yellow,imageability,liberal,no,9,1,0.90598790058,-,-
2019_Sep_30,117,001,1,source,39,ANIMAL,HF,target,right,yellow,imageability,liberal,no,8,1,2.96496689193,-,-
2019_Sep_30,117,001,1,source,40,GOADED,LF,target,right,yellow,imageability,conservative,yes,7,1,3.04745770665,-,-
2019_Sep_30,117,001,1,source,41,HARDLY,HF,target,right,yellow,imageability,conservative,no,3,0,3.83559723932,-,-
2019_Sep_30,117,001,1,source,42,FOUND,HF,target,left,aqua,pleasantness,conservative,no,1,1,0.965023349051,-,-
2019_Sep_30,117,001,1,source,43,PASSED,HF,target,left,aqua,pleasantness,liberal,no,1,1,2.03563617274,-,-
2019_Sep_30,117,001,1,source,44,KIBBUTZIM,LF,target,left,aqua,pleasantness,conservative,no,8,0,1.51800432154,-,-
2019_Sep_30,117,001,1,source,45,MYSELF,HF,target,left,aqua,pleasantness,conservative,no,9,0,3.74183113163,-,-
2019_Sep_30,117,001,1,source,46,SOCIAL,HF,target,left,aqua,pleasantness,liberal,no,9,0,1.282644862,-,-
2019_Sep_30,117,001,1,source,47,DIFFERENT,HF,target,right,yellow,imageability,liberal,no,2,0,3.04738401912,-,-
2019_Sep_30,117,001,1,recog,0,MYSELF,HF,target,left,aqua,pleasantness,conservative,no,z,1,2.58869816485,1,115
2019_Sep_30,117,001,1,recog,1,PEOPLED,LF,lure,-,-,-,liberal,no,m,1,2.07067258024,1,116
2019_Sep_30,117,001,1,recog,2,SOCIAL,HF,target,left,aqua,pleasantness,liberal,no,z,1,0.988547270372,3,119
2019_Sep_30,117,001,1,recog,3,REIGNING,LF,target,right,yellow,imageability,liberal,no,z,1,0.765202178805,3,122
2019_Sep_30,117,001,1,recog,4,DEFEATING,LF,target,right,yellow,imageability,liberal,no,z,1,0.635678552234,3,125
2019_Sep_30,117,001,1,recog,5,POWER,HF,lure,-,-,-,liberal,no,m,1,0.870805584416,1,126
2019_Sep_30,117,001,1,recog,6,UNTIL,HF,lure,-,-,-,conservative,no,m,1,0.929639033718,3,129
2019_Sep_30,117,001,1,recog,7,NARRATOR,LF,target,right,yellow,imageability,conservative,no,z,1,0.835639398856,1,130
2019_Sep_30,117,001,1,recog,8,SCABS,LF,lure,-,-,-,liberal,no,m,1,0.729757007098,1,131
2019_Sep_30,117,001,1,recog,9,JEALOUSLY,LF,target,right,yellow,imageability,liberal,no,z,1,0.67071862579,3,134
2019_Sep_30,117,001,1,recog,10,IDLING,LF,lure,-,-,-,liberal,no,m,1,0.941433438891,1,135
2019_Sep_30,117,001,1,recog,11,THOUSAND,HF,lure,-,-,-,liberal,no,m,1,0.776830145461,1,136
2019_Sep_30,117,001,1,recog,12,NUANCE,LF,lure,-,-,-,liberal,no,m,1,0.906300980961,1,137
2019_Sep_30,117,001,1,recog,13,LONGER,HF,target,right,yellow,imageability,conservative,no,z,1,0.847407408494,1,138
2019_Sep_30,117,001,1,recog,14,LABOUR,HF,lure,-,-,-,liberal,no,m,1,0.718092379975,1,139
2019_Sep_30,117,001,1,recog,15,KRAALS,LF,lure,-,-,-,conservative,no,m,1,0.835515853086,3,142
2019_Sep_30,117,001,1,recog,16,VILLAGE,HF,target,right,yellow,imageability,conservative,no,z,1,2.03578024837,1,143
2019_Sep_30,117,001,1,recog,17,OUGHT,HF,target,right,yellow,imageability,conservative,no,z,1,0.859043807057,1,144
2019_Sep_30,117,001,1,recog,18,AHEAD,HF,lure,-,-,-,liberal,no,m,1,1.00025332382,1,145
2019_Sep_30,117,001,1,recog,19,RAVAGES,LF,target,left,aqua,pleasantness,liberal,no,z,1,0.670912559656,3,148
2019_Sep_30,117,001,1,recog,20,DWARFED,LF,target,left,aqua,pleasantness,liberal,no,z,1,0.635735009352,3,151
2019_Sep_30,117,001,1,recog,21,CAFETERIA,LF,lure,-,-,-,conservative,no,m,1,0.976951198321,3,154
2019_Sep_30,117,001,1,recog,22,COGENT,LF,target,right,yellow,imageability,liberal,no,z,1,0.765147921315,3,157
2019_Sep_30,117,001,1,recog,23,CHURCH,HF,lure,-,-,-,conservative,no,m,1,1.07101865505,3,160
2019_Sep_30,117,001,1,recog,24,SLEEP,HF,target,right,yellow,imageability,conservative,no,z,1,0.623741904453,1,161
2019_Sep_30,117,001,1,recog,25,DUCHY,LF,lure,-,-,-,liberal,no,m,1,0.706170762985,1,162
2019_Sep_30,117,001,1,recog,26,AMBIENCE,LF,target,left,aqua,pleasantness,conservative,no,z,1,0.694434647953,1,163
2019_Sep_30,117,001,1,recog,27,APART,HF,target,left,aqua,pleasantness,liberal,no,z,1,0.705975729305,3,166
2019_Sep_30,117,001,1,recog,28,UPHEAVALS,LF,lure,-,-,-,liberal,no,m,1,0.67087516598,1,167
2019_Sep_30,117,001,1,recog,29,WEBBED,LF,target,left,aqua,pleasantness,conservative,yes,m,0,2.89423088908,-1,166
2019_Sep_30,117,001,1,recog,30,SEVEN,HF,target,right,yellow,imageability,conservative,no,z,1,1.41214099322,1,167
2019_Sep_30,117,001,1,recog,31,ENCLOSE,LF,lure,-,-,-,conservative,no,m,1,1.55321999872,3,170
2019_Sep_30,117,001,1,recog,32,ENLIGHTEN,LF,lure,-,-,-,conservative,no,m,1,1.0942309624,3,173
2019_Sep_30,117,001,1,recog,33,BECAME,HF,target,left,aqua,pleasantness,liberal,no,z,1,0.729728778539,3,176
2019_Sep_30,117,001,1,recog,34,WAYSIDE,LF,target,left,aqua,pleasantness,liberal,yes,z,1,2.12949246517,3,179
2019_Sep_30,117,001,1,recog,35,TEETERED,LF,target,right,yellow,imageability,liberal,no,z,1,2.10618704023,3,182
2019_Sep_30,117,001,1,recog,36,BAYING,LF,target,right,yellow,imageability,liberal,no,z,1,0.623994861669,3,185
2019_Sep_30,117,001,1,recog,37,TRIED,HF,lure,-,-,-,conservative,no,m,1,0.64729625396,3,188
2019_Sep_30,117,001,1,recog,38,CERTAIN,HF,lure,-,-,-,liberal,yes,m,1,2.29448545936,1,189
2019_Sep_30,117,001,1,recog,39,WESTERN,HF,target,right,yellow,imageability,liberal,no,z,1,0.917908784361,3,192
2019_Sep_30,117,001,1,recog,40,KEENER,LF,lure,-,-,-,conservative,no,m,1,0.788507970352,3,195
2019_Sep_30,117,001,1,recog,41,FEUDALISM,LF,target,right,yellow,imageability,conservative,no,z,1,0.717959302483,1,196
2019_Sep_30,117,001,1,recog,42,TOFFEE,LF,lure,-,-,-,conservative,no,m,1,0.870984854095,3,199
2019_Sep_30,117,001,1,recog,43,PICTURE,HF,lure,-,-,-,conservative,no,m,1,0.776945992534,3,202
2019_Sep_30,117,001,1,recog,44,HELICAL,LF,lure,-,-,-,liberal,no,m,1,0.811995597811,1,203
2019_Sep_30,117,001,1,recog,45,INDEED,HF,lure,-,-,-,liberal,yes,z,0,1.25901205909,-1,202
2019_Sep_30,117,001,1,recog,46,GOADED,LF,target,right,yellow,imageability,conservative,no,m,0,1.55320056868,-1,201
2019_Sep_30,117,001,1,recog,47,SURER,LF,lure,-,-,-,conservative,no,m,1,2.37704702878,3,204
2019_Sep_30,117,001,1,recog,48,PETERED,LF,lure,-,-,-,conservative,no,m,1,1.02376038133,3,207
2019_Sep_30,117,001,1,recog,49,RETURN,HF,lure,-,-,-,liberal,no,m,1,1.55322036533,1,208
2019_Sep_30,117,001,1,recog,50,KIBBUTZIM,LF,target,left,aqua,pleasantness,conservative,no,z,1,0.706174429032,1,209
2019_Sep_30,117,001,1,recog,51,CARRIED,HF,lure,-,-,-,conservative,no,m,1,0.953270736809,3,212
2019_Sep_30,117,001,1,recog,52,BUSINESS,HF,target,left,aqua,pleasantness,conservative,no,z,1,0.600248777923,1,213
2019_Sep_30,117,001,1,recog,53,DAUGHTER,HF,lure,-,-,-,conservative,no,m,1,0.823862957312,3,216
2019_Sep_30,117,001,1,recog,54,EFFECT,HF,lure,-,-,-,conservative,no,m,1,0.823774972193,3,219
2019_Sep_30,117,001,1,recog,55,ALLOWED,HF,target,left,aqua,pleasantness,liberal,no,z,1,2.7179131103,3,222
2019_Sep_30,117,001,1,recog,56,PEDALLING,LF,target,left,aqua,pleasantness,conservative,no,z,1,0.694373791579,1,223
2019_Sep_30,117,001,1,recog,57,SMALL,HF,lure,-,-,-,conservative,no,m,1,0.894349302388,3,226
2019_Sep_30,117,001,1,recog,58,GABLE,LF,target,left,aqua,pleasantness,conservative,no,z,1,0.576571615854,1,227
2019_Sep_30,117,001,1,recog,59,PLEASE,HF,lure,-,-,-,conservative,no,m,1,0.976707772825,3,230
2019_Sep_30,117,001,1,recog,60,UNION,HF,lure,-,-,-,liberal,no,m,1,0.776870838579,1,231
2019_Sep_30,117,001,1,recog,61,BICEPS,LF,target,left,aqua,pleasantness,liberal,no,z,1,0.623802760826,3,234
2019_Sep_30,117,001,1,recog,62,DIFFERENT,HF,target,right,yellow,imageability,liberal,no,z,1,0.976834618038,3,237
2019_Sep_30,117,001,1,recog,63,PITCHER,LF,lure,-,-,-,liberal,no,m,1,0.871019314933,1,238
2019_Sep_30,117,001,1,recog,64,ASKED,HF,lure,-,-,-,conservative,no,m,1,0.88274479843,3,241
2019_Sep_30,117,001,1,recog,65,ANIMAL,HF,target,right,yellow,imageability,liberal,no,z,1,0.671042704311,3,244
2019_Sep_30,117,001,1,recog,66,WILDFOWL,LF,lure,-,-,-,liberal,no,m,1,1.02377321249,1,245
2019_Sep_30,117,001,1,recog,67,MAPPED,LF,lure,-,-,-,conservative,no,m,1,1.38858261106,3,248
2019_Sep_30,117,001,1,recog,68,VULTURE,LF,target,right,yellow,imageability,conservative,no,z,1,0.553066391371,1,249
2019_Sep_30,117,001,1,recog,69,LEVEL,HF,lure,-,-,-,liberal,no,m,1,0.812135640792,1,250
2019_Sep_30,117,001,1,recog,70,GENERAL,HF,lure,-,-,-,conservative,no,m,1,2.8357999717,3,253
2019_Sep_30,117,001,1,recog,71,SYSTEM,HF,lure,-,-,-,liberal,no,z,0,2.03553755608,-1,252
2019_Sep_30,117,001,1,recog,72,FOUND,HF,target,left,aqua,pleasantness,conservative,no,z,1,3.16506044944,1,253
2019_Sep_30,117,001,1,recog,73,KNOWLEDGE,HF,target,right,yellow,imageability,liberal,no,z,1,0.65912658639,3,256
2019_Sep_30,117,001,1,recog,74,PASSED,HF,target,left,aqua,pleasantness,liberal,no,z,1,1.49451156161,3,259
2019_Sep_30,117,001,1,recog,75,ICILY,LF,target,left,aqua,pleasantness,liberal,no,z,1,0.576716058091,3,262
2019_Sep_30,117,001,1,recog,76,SAYING,HF,target,left,aqua,pleasantness,conservative,no,z,1,0.788448213792,1,263
2019_Sep_30,117,001,1,recog,77,AWAITS,LF,target,right,yellow,imageability,conservative,no,m,0,1.10620537046,-1,262
2019_Sep_30,117,001,1,recog,78,HARDLY,HF,target,right,yellow,imageability,conservative,no,z,1,1.89450400956,1,263
2019_Sep_30,117,001,1,recog,79,EXECUTING,LF,target,left,aqua,pleasantness,liberal,no,z,1,0.894132639033,3,266
2019_Sep_30,117,001,1,recog,80,SICKENED,LF,lure,-,-,-,liberal,no,m,1,1.14127037314,1,267
2019_Sep_30,117,001,1,recog,81,LOLLED,LF,lure,-,-,-,conservative,no,m,1,0.682698166317,3,270
2019_Sep_30,117,001,1,recog,82,ONCOMING,LF,target,right,yellow,imageability,conservative,no,z,1,0.965053044028,1,271
2019_Sep_30,117,001,1,recog,83,EXPECT,HF,target,right,yellow,imageability,liberal,no,z,1,0.906190632958,3,274
2019_Sep_30,117,001,1,recog,84,WATCH,HF,lure,-,-,-,liberal,no,m,1,1.30627876472,1,275
2019_Sep_30,117,001,1,recog,85,ACCORDING,HF,lure,-,-,-,conservative,no,m,1,1.51802228516,3,278
2019_Sep_30,117,001,1,recog,86,PLIABLE,LF,target,left,aqua,pleasantness,conservative,no,z,1,0.835409537734,1,279
2019_Sep_30,117,001,1,recog,87,TASSELS,LF,lure,-,-,-,conservative,no,m,1,0.917935179896,3,282
2019_Sep_30,117,001,1,recog,88,LUMBER,LF,lure,-,-,-,liberal,no,m,1,0.929915820238,1,283
2019_Sep_30,117,001,1,recog,89,MOTHER,HF,target,left,aqua,pleasantness,conservative,no,z,1,1.74162363339,1,284
2019_Sep_30,117,001,1,recog,90,SYNDICATE,LF,lure,-,-,-,conservative,no,m,1,0.717931440529,3,287
2019_Sep_30,117,001,1,recog,91,REQUIRED,HF,lure,-,-,-,liberal,no,m,1,0.835571943599,1,288
2019_Sep_30,117,001,1,recog,92,DEGREE,HF,target,left,aqua,pleasantness,conservative,no,z,1,0.671061034544,1,289
2019_Sep_30,117,001,1,recog,93,HAVING,HF,target,left,aqua,pleasantness,liberal,no,z,1,1.47101623545,3,292
2019_Sep_30,117,001,1,recog,94,BLACK,HF,target,right,yellow,imageability,liberal,no,z,1,0.623634489287,3,295
2019_Sep_30,117,001,1,recog,95,PONCE,LF,lure,-,-,-,liberal,no,m,1,0.776793118391,1,296
2019_Sep_30,117,001,2,source,0,TANGIER,LF,target,right,yellow,imageability,liberal,no,9,1,1.64748358894,-,-
2019_Sep_30,117,001,2,source,1,JEOPARDY,LF,target,left,aqua,pleasantness,conservative,no,1,1,1.17684385648,-,-
2019_Sep_30,117,001,2,source,2,BENIGNLY,LF,target,right,yellow,imageability,conservative,no,2,0,1.8592043799,-,-
2019_Sep_30,117,001,2,source,3,AEGIS,LF,target,left,aqua,pleasantness,liberal,yes,7,0,2.01190438657,-,-
2019_Sep_30,117,001,2,source,4,MONEY,HF,target,left,aqua,pleasantness,liberal,no,1,1,1.72966755556,-,-
2019_Sep_30,117,001,2,source,5,INROADS,LF,target,left,aqua,pleasantness,conservative,no,8,0,2.23570590094,-,-
2019_Sep_30,117,001,2,source,6,CATALYST,LF,target,left,aqua,pleasantness,liberal,no,2,1,3.35331817545,-,-
2019_Sep_30,117,001,2,source,7,APPEARED,HF,target,right,yellow,imageability,conservative,yes,3,0,1.10603343288,-,-
2019_Sep_30,117,001,2,source,8,ABUSING,LF,target,right,yellow,imageability,conservative,no,9,1,1.38863210269,-,-
2019_Sep_30,117,001,2,source,9,BETTER,HF,target,right,yellow,imageability,conservative,no,2,0,1.64715291154,-,-
2019_Sep_30,117,001,2,source,10,GROUND,HF,target,right,yellow,imageability,liberal,no,9,1,1.10634578005,-,-
2019_Sep_30,117,001,2,source,11,SAFARI,LF,target,left,aqua,pleasantness,conservative,no,1,1,1.00031674643,-,-
2019_Sep_30,117,001,2,source,12,ENERGY,HF,target,left,aqua,pleasantness,conservative,no,1,1,0.718021258671,-,-
2019_Sep_30,117,001,2,source,13,SAINTLY,LF,target,left,aqua,pleasantness,conservative,no,1,1,0.729743809331,-,-
2019_Sep_30,117,001,2,source,14,WHOLE,HF,target,left,aqua,pleasantness,conservative,no,2,1,3.10626146098,-,-
2019_Sep_30,117,001,2,source,15,PIZZA,LF,target,left,aqua,pleasantness,liberal,no,8,0,1.72950918235,-,-
2019_Sep_30,117,001,2,source,16,HIGHER,HF,target,left,aqua,pleasantness,liberal,no,3,1,2.75330255809,-,-
2019_Sep_30,117,001,2,source,17,THANK,HF,target,right,yellow,imageability,liberal,no,9,1,2.11804083536,-,-
2019_Sep_30,117,001,2,source,18,PUBLIC,HF,target,right,yellow,imageability,liberal,no,9,1,1.58865123945,-,-
2019_Sep_30,117,001,2,source,19,TAILED,LF,target,left,aqua,pleasantness,conservative,no,1,1,0.847359383283,-,-
2019_Sep_30,117,001,2,source,20,FIGURE,HF,target,left,aqua,pleasantness,conservative,no,1,1,2.1178003427,-,-
2019_Sep_30,117,001,2,source,21,PIECE,HF,target,left,aqua,pleasantness,liberal,yes,7,0,1.8122463554,-,-
2019_Sep_30,117,001,2,source,22,LOITERING,LF,target,right,yellow,imageability,conservative,no,9,1,2.57692795559,-,-
2019_Sep_30,117,001,2,source,23,GNOMES,LF,target,left,aqua,pleasantness,conservative,no,1,1,0.788270777136,-,-
2019_Sep_30,117,001,2,source,24,UPDATE,LF,target,right,yellow,imageability,conservative,no,3,0,1.29446676252,-,-
2019_Sep_30,117,001,2,source,25,SUPPORT,HF,target,left,aqua,pleasantness,liberal,no,2,1,1.32972313283,-,-
2019_Sep_30,117,001,2,source,26,PATCHY,LF,target,left,aqua,pleasantness,liberal,no,8,0,2.27102972651,-,-
2019_Sep_30,117,001,2,source,27,TUCKER,LF,target,right,yellow,imageability,liberal,no,9,1,0.717973600065,-,-
2019_Sep_30,117,001,2,source,28,RAREFIED,LF,target,right,yellow,imageability,conservative,no,9,1,0.965007951655,-,-
2019_Sep_30,117,001,2,source,29,BROUGHT,HF,target,left,aqua,pleasantness,liberal,no,3,1,1.80033463673,-,-
2019_Sep_30,117,001,2,source,30,DIGESTING,LF,target,right,yellow,imageability,liberal,no,9,1,1.05890640363,-,-
2019_Sep_30,117,001,2,source,31,SECOND,HF,target,left,aqua,pleasantness,conservative,no,1,1,1.81220896172,-,-
2019_Sep_30,117,001,2,source,32,MICROCOSM,LF,target,right,yellow,imageability,liberal,no,9,1,0.882752863732,-,-
2019_Sep_30,117,001,2,source,33,SKYLIGHT,LF,target,right,yellow,imageability,liberal,no,9,1,0.882674410335,-,-
2019_Sep_30,117,001,2,source,34,WRANGLING,LF,target,left,aqua,pleasantness,liberal,no,1,1,0.800123839055,-,-
2019_Sep_30,117,001,2,source,35,SORRY,HF,target,left,aqua,pleasantness,conservative,no,1,1,0.953274769461,-,-
2019_Sep_30,117,001,2,source,36,WONDROUS,LF,target,right,yellow,imageability,conservative,yes,3,0,1.03540117915,-,-
2019_Sep_30,117,001,2,source,37,TABLE,HF,target,right,yellow,imageability,liberal,no,2,0,1.32977042483,-,-
2019_Sep_30,117,001,2,source,38,BEYOND,HF,target,left,aqua,pleasantness,liberal,no,1,1,3.30626886639,-,-
2019_Sep_30,117,001,2,source,39,FREEDOM,HF,target,right,yellow,imageability,liberal,no,9,1,1.17688308317,-,-
2019_Sep_30,117,001,2,source,40,SPACE,HF,target,right,yellow,imageability,conservative,no,9,1,0.94156944922,-,-
2019_Sep_30,117,001,2,source,41,REACHED,HF,target,right,yellow,imageability,liberal,no,9,1,0.988270483852,-,-
2019_Sep_30,117,001,2,source,42,LOCAL,HF,target,left,aqua,pleasantness,conservative,no,1,1,1.98851904181,-,-
2019_Sep_30,117,001,2,source,43,BUILDING,HF,target,right,yellow,imageability,conservative,no,2,0,3.55333511259,-,-
2019_Sep_30,117,001,2,source,44,OPENED,HF,target,right,yellow,imageability,conservative,no,8,1,1.41205190829,-,-
2019_Sep_30,117,001,2,source,45,EIDERDOWN,LF,target,left,aqua,pleasantness,liberal,no,1,1,1.12977695039,-,-
2019_Sep_30,117,001,2,source,46,HALLMARK,LF,target,right,yellow,imageability,liberal,no,9,1,0.835522451969,-,-
2019_Sep_30,117,001,2,source,47,ALMOST,HF,target,right,yellow,imageability,conservative,no,3,0,4.62382732334,-,-
2019_Sep_30,117,001,2,recog,0,SOMEONE,HF,lure,-,-,-,liberal,no,z,0,2.10618667363,-1,295
2019_Sep_30,117,001,2,recog,1,BROUGHT,HF,target,left,aqua,pleasantness,liberal,no,z,1,0.835715286021,3,298
2019_Sep_30,117,001,2,recog,2,VOWEL,LF,lure,-,-,-,liberal,no,m,1,0.753163614927,1,299
2019_Sep_30,117,001,2,recog,3,FURTHER,HF,lure,-,-,-,liberal,no,m,1,0.976850015434,1,300
2019_Sep_30,117,001,2,recog,4,SLIGHTLY,HF,lure,-,-,-,liberal,no,m,1,0.988531872976,1,301
2019_Sep_30,117,001,2,recog,5,COMES,HF,lure,-,-,-,conservative,no,m,1,1.09441426473,3,304
2019_Sep_30,117,001,2,recog,6,SECOND,HF,target,left,aqua,pleasantness,conservative,no,z,1,0.823865890149,1,305
2019_Sep_30,117,001,2,recog,7,FOLLOWED,HF,lure,-,-,-,conservative,no,z,0,1.81200036367,-3,302
2019_Sep_30,117,001,2,recog,8,FAMILY,HF,lure,-,-,-,liberal,no,m,1,2.27089188315,1,303
2019_Sep_30,117,001,2,recog,9,REACHED,HF,target,right,yellow,imageability,liberal,no,z,1,1.05917035899,3,306
2019_Sep_30,117,001,2,recog,10,SCRABBLE,LF,lure,-,-,-,liberal,no,m,1,0.741483590409,1,307
2019_Sep_30,117,001,2,recog,11,BENIGNLY,LF,target,right,yellow,imageability,conservative,no,z,1,0.941247203723,1,308
2019_Sep_30,117,001,2,recog,12,CLUBBED,LF,lure,-,-,-,liberal,no,m,1,1.10612471744,1,309
2019_Sep_30,117,001,2,recog,13,PIZZA,LF,target,left,aqua,pleasantness,liberal,no,z,1,0.70602962019,3,312
2019_Sep_30,117,001,2,recog,14,PHYSICAL,HF,lure,-,-,-,liberal,no,m,1,0.882675510149,1,313
2019_Sep_30,117,001,2,recog,15,NEEDED,HF,lure,-,-,-,liberal,no,m,1,1.12956871894,1,314
2019_Sep_30,117,001,2,recog,16,SHIELDING,LF,lure,-,-,-,conservative,no,m,1,0.929758180233,3,317
2019_Sep_30,117,001,2,recog,17,BETTER,HF,target,right,yellow,imageability,conservative,no,z,1,3.43560735761,1,318
2019_Sep_30,117,001,2,recog,18,SCYTHE,LF,lure,-,-,-,liberal,no,m,1,0.8474550671,1,319
2019_Sep_30,117,001,2,recog,19,HERSELF,HF,lure,-,-,-,conservative,no,m,1,1.51804501465,3,322
2019_Sep_30,117,001,2,recog,20,INVOLVED,HF,lure,-,-,-,liberal,no,m,1,1.41205520773,1,323
2019_Sep_30,117,001,2,recog,21,EIDERDOWN,LF,target,left,aqua,pleasantness,liberal,no,z,1,0.623625690775,3,326
2019_Sep_30,117,001,2,recog,22,TAVERNS,LF,lure,-,-,-,conservative,no,m,1,1.43559342663,3,329
2019_Sep_30,117,001,2,recog,23,SAINTLY,LF,target,left,aqua,pleasantness,conservative,no,z,1,0.741431532547,1,330
2019_Sep_30,117,001,2,recog,24,UNMADE,LF,lure,-,-,-,conservative,yes,z,0,2.22388473363,-3,327
2019_Sep_30,117,001,2,recog,25,PEACEABLY,LF,lure,-,-,-,liberal,no,m,1,2.14160728282,1,328
2019_Sep_30,117,001,2,recog,26,PSALMS,LF,lure,-,-,-,conservative,no,m,1,0.82380540038,3,331
2019_Sep_30,117,001,2,recog,27,APPEARED,HF,target,right,yellow,imageability,conservative,no,z,1,1.03556505143,1,332
2019_Sep_30,117,001,2,recog,28,FIELD,HF,lure,-,-,-,conservative,no,m,1,1.00023096094,3,335
2019_Sep_30,117,001,2,recog,29,OPENED,HF,target,right,yellow,imageability,conservative,no,z,1,1.24749334063,1,336
2019_Sep_30,117,001,2,recog,30,JEOPARDY,LF,target,left,aqua,pleasantness,conservative,no,z,1,0.823883853777,1,337
2019_Sep_30,117,001,2,recog,31,HIGHER,HF,target,left,aqua,pleasantness,liberal,no,z,1,0.953286867415,3,340
2019_Sep_30,117,001,2,recog,32,TELEPHONE,HF,lure,-,-,-,conservative,no,m,1,0.706188726614,3,343
2019_Sep_30,117,001,2,recog,33,CURATOR,LF,lure,-,-,-,conservative,no,m,1,0.776876337649,3,346
2019_Sep_30,117,001,2,recog,34,NUCLEAR,HF,lure,-,-,-,conservative,no,m,1,0.576806976047,3,349
2019_Sep_30,117,001,2,recog,35,GNOMES,LF,target,left,aqua,pleasantness,conservative,no,z,1,0.576716424695,1,350
2019_Sep_30,117,001,2,recog,36,BUMBLING,LF,lure,-,-,-,liberal,no,m,1,1.00027165405,1,351
2019_Sep_30,117,001,2,recog,37,UPDATE,LF,target,right,yellow,imageability,conservative,no,z,1,1.51773303409,1,352
2019_Sep_30,117,001,2,recog,38,HOTEL,HF,lure,-,-,-,liberal,no,m,1,0.964986688585,1,353
2019_Sep_30,117,001,2,recog,39,WOMAN,HF,lure,-,-,-,conservative,no,m,1,1.04717432125,3,356
2019_Sep_30,117,001,2,recog,40,NATIONAL,HF,lure,-,-,-,conservative,no,m,1,0.741597971063,3,359
2019_Sep_30,117,001,2,recog,41,RAREFIED,LF,target,right,yellow,imageability,conservative,no,z,1,0.659134285088,1,360
2019_Sep_30,117,001,2,recog,42,GROUND,HF,target,right,yellow,imageability,liberal,no,z,1,0.706104774146,3,363
2019_Sep_30,117,001,2,recog,43,CHAIR,HF,lure,-,-,-,liberal,no,m,1,0.706318138059,1,364
2019_Sep_30,117,001,2,recog,44,ADDED,HF,lure,-,-,-,liberal,no,m,1,0.729899982916,1,365
2019_Sep_30,117,001,2,recog,45,MICROCOSM,LF,target,right,yellow,imageability,liberal,no,z,1,0.565064262131,3,368
2019_Sep_30,117,001,2,recog,46,RUFFLES,LF,lure,-,-,-,liberal,no,m,1,1.10627282572,1,369
2019_Sep_30,117,001,2,recog,47,MOMENT,HF,lure,-,-,-,liberal,no,m,1,2.05920005396,1,370
2019_Sep_30,117,001,2,recog,48,WONDROUS,LF,target,right,yellow,imageability,conservative,no,z,1,0.729453825043,1,371
2019_Sep_30,117,001,2,recog,49,SORRY,HF,target,left,aqua,pleasantness,conservative,no,z,1,1.03568749739,1,372
2019_Sep_30,117,001,2,recog,50,TOGETHER,HF,lure,-,-,-,conservative,no,z,0,1.47095757871,-3,369
2019_Sep_30,117,001,2,recog,51,ACQUIRES,LF,lure,-,-,-,liberal,no,m,1,1.52976939834,1,370
2019_Sep_30,117,001,2,recog,52,BEYOND,HF,target,left,aqua,pleasantness,liberal,no,z,1,1.03578171479,3,373
2019_Sep_30,117,001,2,recog,53,HALLMARK,LF,target,right,yellow,imageability,liberal,yes,z,1,2.68264867469,3,376
2019_Sep_30,117,001,2,recog,54,MARKET,HF,lure,-,-,-,conservative,no,m,1,3.05904608001,3,379
2019_Sep_30,117,001,2,recog,55,WHOLE,HF,target,left,aqua,pleasantness,conservative,no,z,1,0.941403377309,1,380
2019_Sep_30,117,001,2,recog,56,FIGURE,HF,target,left,aqua,pleasantness,conservative,no,z,1,0.694185356783,1,381
2019_Sep_30,117,001,2,recog,57,TADPOLES,LF,lure,-,-,-,liberal,no,m,1,0.764956920286,1,382
2019_Sep_30,117,001,2,recog,58,AEGIS,LF,target,left,aqua,pleasantness,liberal,no,m,0,0.894522339788,-3,379
2019_Sep_30,117,001,2,recog,59,FIDDLED,LF,lure,-,-,-,conservative,no,m,1,3.60012156611,3,382
2019_Sep_30,117,001,2,recog,60,ENERGY,HF,target,left,aqua,pleasantness,conservative,no,m,0,1.11786266549,-1,381
2019_Sep_30,117,001,2,recog,61,SUPPORT,HF,target,left,aqua,pleasantness,liberal,no,z,1,1.30615081969,3,384
2019_Sep_30,117,001,2,recog,62,CUSTODIAN,LF,lure,-,-,-,liberal,no,m,1,0.91806605776,1,385
2019_Sep_30,117,001,2,recog,63,LOCAL,HF,target,left,aqua,pleasantness,conservative,no,z,1,0.965114267007,1,386
2019_Sep_30,117,001,2,recog,64,TUCKER,LF,target,right,yellow,imageability,liberal,no,z,1,0.635640791954,3,389
2019_Sep_30,117,001,2,recog,65,CUPID,LF,lure,-,-,-,conservative,no,m,1,1.4944950644,3,392
2019_Sep_30,117,001,2,recog,66,ASCEND,LF,lure,-,-,-,conservative,no,m,1,0.82364812698,3,395
2019_Sep_30,117,001,2,recog,67,REWRITE,LF,lure,-,-,-,conservative,no,m,1,1.05918905582,3,398
2019_Sep_30,117,001,2,recog,68,FREEDOM,HF,target,right,yellow,imageability,liberal,no,z,1,0.694355094742,3,401
2019_Sep_30,117,001,2,recog,69,WRANGLING,LF,target,left,aqua,pleasantness,liberal,no,z,1,0.776785053088,3,404
2019_Sep_30,117,001,2,recog,70,MONEY,HF,target,left,aqua,pleasantness,liberal,no,z,1,1.41208123666,3,407
2019_Sep_30,117,001,2,recog,71,PIECE,HF,target,left,aqua,pleasantness,liberal,no,z,1,1.69441521791,3,410
2019_Sep_30,117,001,2,recog,72,PAPER,HF,lure,-,-,-,conservative,yes,m,1,1.91802573125,3,413
2019_Sep_30,117,001,2,recog,73,TAILED,LF,target,left,aqua,pleasantness,conservative,no,z,1,3.50630083432,1,414
2019_Sep_30,117,001,2,recog,74,PAINTWORK,LF,lure,-,-,-,conservative,no,m,1,0.659082227226,3,417
2019_Sep_30,117,001,2,recog,75,SKYLIGHT,LF,target,right,yellow,imageability,liberal,no,z,1,1.05908127405,3,420
2019_Sep_30,117,001,2,recog,76,PUBLIC,HF,target,right,yellow,imageability,liberal,no,z,1,1.4474739839,3,423
2019_Sep_30,117,001,2,recog,77,TANGIER,LF,target,right,yellow,imageability,liberal,no,z,1,0.553497151849,3,426
2019_Sep_30,117,001,2,recog,78,DIGESTING,LF,target,right,yellow,imageability,liberal,no,z,1,0.64719397126,3,429
2019_Sep_30,117,001,2,recog,79,SPACE,HF,target,right,yellow,imageability,conservative,no,z,1,0.600267474761,1,430
2019_Sep_30,117,001,2,recog,80,ABUSING,LF,target,right,yellow,imageability,conservative,no,z,1,0.694577257167,1,431
2019_Sep_30,117,001,2,recog,81,PUMPKIN,LF,lure,-,-,-,liberal,yes,m,1,1.58833302661,1,432
2019_Sep_30,117,001,2,recog,82,SAFARI,LF,target,left,aqua,pleasantness,conservative,no,z,1,1.09420749971,1,433
2019_Sep_30,117,001,2,recog,83,THWART,LF,lure,-,-,-,conservative,no,m,1,0.729711914725,3,436
2019_Sep_30,117,001,2,recog,84,ALMOST,HF,target,right,yellow,imageability,conservative,no,z,1,1.18874860965,1,437
2019_Sep_30,117,001,2,recog,85,INROADS,LF,target,left,aqua,pleasantness,conservative,no,z,1,0.859157087898,1,438
2019_Sep_30,117,001,2,recog,86,POUNDS,HF,lure,-,-,-,liberal,no,m,1,0.76504527201,1,439
2019_Sep_30,117,001,2,recog,87,TABLE,HF,target,right,yellow,imageability,liberal,no,z,1,0.647303219449,3,442
2019_Sep_30,117,001,2,recog,88,BUILDING,HF,target,right,yellow,imageability,conservative,no,z,1,0.80006371589,1,443
2019_Sep_30,117,001,2,recog,89,PATCHY,LF,target,left,aqua,pleasantness,liberal,no,m,0,2.07094313448,-3,440
2019_Sep_30,117,001,2,recog,90,CATALYST,LF,target,left,aqua,pleasantness,liberal,no,z,1,0.988547270372,3,443
2019_Sep_30,117,001,2,recog,91,LOITERING,LF,target,right,yellow,imageability,conservative,no,z,1,0.776775154762,1,444
2019_Sep_30,117,001,2,recog,92,THANK,HF,target,right,yellow,imageability,liberal,no,z,1,1.44736766855,3,447
2019_Sep_30,117,001,2,recog,93,LOWED,LF,lure,-,-,-,liberal,no,m,1,0.941473398799,1,448
2019_Sep_30,117,001,2,recog,94,HUNDRED,HF,lure,-,-,-,conservative,no,m,1,1.12980334593,3,451
2019_Sep_30,117,001,2,recog,95,AQUARIUM,LF,lure,-,-,-,conservative,no,m,1,0.776866439323,3,454
2019_Sep_30,117,001,3,source,0,DICHOTOMY,LF,target,left,aqua,pleasantness,liberal,no,9,0,3.18863972807,-,-
2019_Sep_30,117,001,3,source,1,AGILITY,LF,target,right,yellow,imageability,conservative,no,2,0,1.16499959307,-,-
2019_Sep_30,117,001,3,source,2,BOOKS,HF,target,right,yellow,imageability,conservative,no,9,1,0.894370932063,-,-
2019_Sep_30,117,001,3,source,3,DOUBT,HF,target,left,aqua,pleasantness,liberal,no,2,1,3.6825786532,-,-
2019_Sep_30,117,001,3,source,4,FILAMENTS,LF,target,left,aqua,pleasantness,liberal,no,1,1,1.02384286738,-,-
2019_Sep_30,117,001,3,source,5,HAPPEN,HF,target,left,aqua,pleasantness,conservative,no,7,0,2.91800043553,-,-
2019_Sep_30,117,001,3,source,6,MIDDLE,HF,target,right,yellow,imageability,conservative,no,8,1,4.27089408278,-,-
2019_Sep_30,117,001,3,source,7,DOCTOR,HF,target,right,yellow,imageability,conservative,no,9,1,0.906248923099,-,-
2019_Sep_30,117,001,3,source,8,WISPY,LF,target,left,aqua,pleasantness,liberal,no,1,1,0.729910614451,-,-
2019_Sep_30,117,001,3,source,9,CREAK,LF,target,left,aqua,pleasantness,conservative,no,3,1,3.21208959525,-,-
2019_Sep_30,117,001,3,source,10,FLOOR,HF,target,left,aqua,pleasantness,conservative,no,2,1,0.753232169999,-,-
2019_Sep_30,117,001,3,source,11,ARRIVED,HF,target,left,aqua,pleasantness,liberal,no,1,1,2.65906866285,-,-
2019_Sep_30,117,001,3,source,12,TURNED,HF,target,left,aqua,pleasantness,liberal,no,8,0,1.16504468544,-,-
2019_Sep_30,117,001,3,source,13,SPLASHES,LF,target,right,yellow,imageability,conservative,no,9,1,0.78861318589,-,-
2019_Sep_30,117,001,3,source,14,BUZZARD,LF,target,left,aqua,pleasantness,conservative,no,1,1,0.929716753906,-,-
2019_Sep_30,117,001,3,source,15,GIRLS,HF,target,left,aqua,pleasantness,conservative,no,1,1,1.18856860676,-,-
2019_Sep_30,117,001,3,source,16,JUBILANT,LF,target,right,yellow,imageability,liberal,no,1,0,1.44738233273,-,-
2019_Sep_30,117,001,3,source,17,LEOPARDS,LF,target,right,yellow,imageability,liberal,no,9,1,0.671034272404,-,-
2019_Sep_30,117,001,3,source,18,WRONG,HF,target,right,yellow,imageability,liberal,no,7,1,1.61201495454,-,-
2019_Sep_30,117,001,3,source,19,ALREADY,HF,target,left,aqua,pleasantness,conservative,no,1,1,2.12957091857,-,-
2019_Sep_30,117,001,3,source,20,DOGMAS,LF,target,left,aqua,pleasantness,conservative,no,1,1,0.847136121044,-,-
2019_Sep_30,117,001,3,source,21,LIVED,HF,target,right,yellow,imageability,liberal,yes,7,1,1.23557319005,-,-
2019_Sep_30,117,001,3,source,22,SUDDENLY,HF,target,left,aqua,pleasantness,liberal,yes,7,0,0.470950613219,-,-
2019_Sep_30,117,001,3,source,23,CICADAS,LF,target,left,aqua,pleasantness,conservative,no,1,1,1.54146958611,-,-
2019_Sep_30,117,001,3,source,24,HUMAN,HF,target,right,yellow,imageability,liberal,no,9,1,0.812122443024,-,-
2019_Sep_30,117,001,3,source,25,AGONIZED,LF,target,right,yellow,imageability,liberal,no,1,0,3.22385650507,-,-
2019_Sep_30,117,001,3,source,26,SITTING,HF,target,left,aqua,pleasantness,liberal,no,1,1,3.37663679816,-,-
2019_Sep_30,117,001,3,source,27,HIMSELF,HF,target,right,yellow,imageability,conservative,yes,3,0,0.988550936418,-,-
2019_Sep_30,117,001,3,source,28,SMEARING,LF,target,right,yellow,imageability,liberal,no,1,0,4.42387380881,-,-
2019_Sep_30,117,001,3,source,29,FATHER,HF,target,left,aqua,pleasantness,conservative,no,9,0,3.55335454264,-,-
2019_Sep_30,117,001,3,source,30,MEETING,HF,target,right,yellow,imageability,liberal,yes,7,1,1.74128122464,-,-
2019_Sep_30,117,001,3,source,31,ALONE,HF,target,right,yellow,imageability,liberal,no,2,0,4.43577856199,-,-
2019_Sep_30,117,001,3,source,32,MUGGING,LF,target,right,yellow,imageability,liberal,no,9,1,1.012095021,-,-
2019_Sep_30,117,001,3,source,33,EARLIER,HF,target,right,yellow,imageability,liberal,no,9,1,1.52972393936,-,-
2019_Sep_30,117,001,3,source,34,AVAILABLE,HF,target,left,aqua,pleasantness,liberal,no,7,0,1.6473941374,-,-
2019_Sep_30,117,001,3,source,35,BUOYANCY,LF,target,right,yellow,imageability,liberal,no,9,1,0.917770574404,-,-
2019_Sep_30,117,001,3,source,36,ADJOURNED,LF,target,right,yellow,imageability,conservative,no,9,1,2.83559870574,-,-
2019_Sep_30,117,001,3,source,37,ORDER,HF,target,right,yellow,imageability,conservative,no,3,0,1.40037554982,-,-
2019_Sep_30,117,001,3,source,38,ETHER,LF,target,left,aqua,pleasantness,liberal,no,1,1,0.741461594129,-,-
2019_Sep_30,117,001,3,source,39,COVER,HF,target,left,aqua,pleasantness,conservative,no,1,1,1.49448003361,-,-
2019_Sep_30,117,001,3,source,40,TAKEN,HF,target,right,yellow,imageability,conservative,no,1,0,0.953045274943,-,-
2019_Sep_30,117,001,3,source,41,ALCHEMIST,LF,target,left,aqua,pleasantness,liberal,no,1,1,0.812242689353,-,-
2019_Sep_30,117,001,3,source,42,VEHEMENCE,LF,target,left,aqua,pleasantness,conservative,no,8,0,1.89457513086,-,-
2019_Sep_30,117,001,3,source,43,RABBIS,LF,target,right,yellow,imageability,conservative,no,9,1,0.80034600148,-,-
2019_Sep_30,117,001,3,source,44,IRONICAL,LF,target,right,yellow,imageability,conservative,no,3,0,3.07080199169,-,-
2019_Sep_30,117,001,3,source,45,HOIST,LF,target,right,yellow,imageability,conservative,no,9,1,1.0591479961,-,-
2019_Sep_30,117,001,3,source,46,SIGNPOST,LF,target,left,aqua,pleasantness,liberal,no,1,1,1.29443156847,-,-
2019_Sep_30,117,001,3,source,47,AVIDLY,LF,target,left,aqua,pleasantness,conservative,no,8,0,1.1181698802,-,-
2019_Sep_30,117,001,3,recog,0,ETHER,LF,target,left,aqua,pleasantness,liberal,no,z,1,1.28250665204,3,457
2019_Sep_30,117,001,3,recog,1,HUMAN,HF,target,right,yellow,imageability,liberal,no,z,1,0.612095974167,3,460
2019_Sep_30,117,001,3,recog,2,THING,HF,lure,-,-,-,conservative,no,z,0,3.90626981956,-3,457
2019_Sep_30,117,001,3,recog,3,DINER,LF,lure,-,-,-,conservative,no,m,1,0.835565344715,3,460
2019_Sep_30,117,001,3,recog,4,DICHOTOMY,LF,target,left,aqua,pleasantness,liberal,no,z,1,0.776542360802,3,463
2019_Sep_30,117,001,3,recog,5,PEWTER,LF,lure,-,-,-,conservative,no,m,1,0.847316857142,3,466
2019_Sep_30,117,001,3,recog,6,REREAD,LF,lure,-,-,-,liberal,no,m,1,1.04738071967,1,467
2019_Sep_30,117,001,3,recog,7,UNPACK,LF,lure,-,-,-,conservative,no,m,1,0.694403119952,3,470
2019_Sep_30,117,001,3,recog,8,FIXTURE,LF,lure,-,-,-,liberal,no,m,1,0.682598083244,1,471
2019_Sep_30,117,001,3,recog,9,AGILITY,LF,target,right,yellow,imageability,conservative,no,z,1,0.741492755525,1,472
2019_Sep_30,117,001,3,recog,10,CICADAS,LF,target,left,aqua,pleasantness,conservative,no,z,1,0.670899361888,1,473
2019_Sep_30,117,001,3,recog,11,WISPY,LF,target,left,aqua,pleasantness,liberal,no,z,1,0.706388892759,3,476
2019_Sep_30,117,001,3,recog,12,BOOKS,HF,target,right,yellow,imageability,conservative,no,z,1,1.15330197153,1,477
2019_Sep_30,117,001,3,recog,13,ARRIVED,HF,target,left,aqua,pleasantness,liberal,no,z,1,0.81200806237,3,480
2019_Sep_30,117,001,3,recog,14,IRONICAL,LF,target,right,yellow,imageability,conservative,no,z,1,0.835333283964,1,481
2019_Sep_30,117,001,3,recog,15,WEEKS,HF,lure,-,-,-,conservative,no,m,1,0.75321493958,3,484
2019_Sep_30,117,001,3,recog,16,TRADE,HF,lure,-,-,-,liberal,yes,z,0,2.28276804117,-1,483
2019_Sep_30,117,001,3,recog,17,HOSPITAL,HF,lure,-,-,-,liberal,no,m,1,2.11802617117,1,484
2019_Sep_30,117,001,3,recog,18,CORNER,HF,lure,-,-,-,liberal,no,m,1,0.741458661292,1,485
2019_Sep_30,117,001,3,recog,19,HAPPEN,HF,target,left,aqua,pleasantness,conservative,no,z,1,0.917978439247,1,486
2019_Sep_30,117,001,3,recog,20,GIRLS,HF,target,left,aqua,pleasantness,conservative,no,z,1,0.635738675398,1,487
2019_Sep_30,117,001,3,recog,21,ORDER,HF,target,right,yellow,imageability,conservative,no,z,1,0.929733251116,1,488
2019_Sep_30,117,001,3,recog,22,DUPLICITY,LF,lure,-,-,-,conservative,no,m,1,1.0122291983,3,491
2019_Sep_30,117,001,3,recog,23,SIGNPOST,LF,target,left,aqua,pleasantness,liberal,no,z,1,0.565205404926,3,494
2019_Sep_30,117,001,3,recog,24,OBVIOUSLY,HF,lure,-,-,-,conservative,no,m,1,0.965204085149,3,497
2019_Sep_30,117,001,3,recog,25,EITHER,HF,lure,-,-,-,liberal,no,m,1,1.50629093599,1,498
2019_Sep_30,117,001,3,recog,26,HIMSELF,HF,target,right,yellow,imageability,conservative,no,z,1,1.29449499108,1,499
2019_Sep_30,117,001,3,recog,27,TAKEN,HF,target,right,yellow,imageability,conservative,no,z,1,1.04736165623,1,500
2019_Sep_30,117,001,3,recog,28,ZENITH,LF,lure,-,-,-,conservative,no,m,1,0.718027490951,3,503
2019_Sep_30,117,001,3,recog,29,FILAMENTS,LF,target,left,aqua,pleasantness,liberal,no,z,1,0.894500343509,3,506
2019_Sep_30,117,001,3,recog,30,AGATE,LF,lure,-,-,-,liberal,no,m,1,0.77670183383,1,507
2019_Sep_30,117,001,3,recog,31,SPLASHES,LF,target,right,yellow,imageability,conservative,no,z,1,0.835555446389,1,508
2019_Sep_30,117,001,3,recog,32,LOOKED,HF,lure,-,-,-,conservative,no,m,1,2.83558330834,3,511
2019_Sep_30,117,001,3,recog,33,TAGGED,LF,lure,-,-,-,conservative,no,m,1,0.776756824529,3,514
2019_Sep_30,117,001,3,recog,34,SMEARING,LF,target,right,yellow,imageability,liberal,no,z,1,0.647305419077,3,517
2019_Sep_30,117,001,3,recog,35,AROUND,HF,lure,-,-,-,liberal,yes,z,0,2.20040663789,-1,516
2019_Sep_30,117,001,3,recog,36,SIDED,LF,lure,-,-,-,conservative,no,m,1,0.988665317072,3,519
2019_Sep_30,117,001,3,recog,37,MIDDLE,HF,target,right,yellow,imageability,conservative,yes,m,0,2.56499644027,-1,518
2019_Sep_30,117,001,3,recog,38,PIPELINES,LF,lure,-,-,-,conservative,no,m,1,1.75322777074,3,521
2019_Sep_30,117,001,3,recog,39,ALONE,HF,target,right,yellow,imageability,liberal,no,z,1,0.917729148076,3,524
2019_Sep_30,117,001,3,recog,40,AVIDLY,LF,target,left,aqua,pleasantness,conservative,no,z,1,0.6706643683,1,525
2019_Sep_30,117,001,3,recog,41,AVAILABLE,HF,target,left,aqua,pleasantness,liberal,no,m,0,0.800309707618,-3,522
2019_Sep_30,117,001,3,recog,42,NADIR,LF,lure,-,-,-,liberal,no,m,1,0.788358029045,1,523
2019_Sep_30,117,001,3,recog,43,WAGGED,LF,lure,-,-,-,liberal,no,m,1,0.80032877106,1,524
2019_Sep_30,117,001,3,recog,44,BUZZARD,LF,target,left,aqua,pleasantness,conservative,no,z,1,0.659267729185,1,525
2019_Sep_30,117,001,3,recog,45,BUOYANCY,LF,target,right,yellow,imageability,liberal,no,z,1,0.682600282872,3,528
2019_Sep_30,117,001,3,recog,46,DOCTOR,HF,target,right,yellow,imageability,conservative,no,z,1,0.776809248996,1,529
2019_Sep_30,117,001,3,recog,47,UPTIGHT,LF,lure,-,-,-,liberal,no,m,1,2.16506594851,1,530
2019_Sep_30,117,001,3,recog,48,ALCHEMIST,LF,target,left,aqua,pleasantness,liberal,no,z,1,0.612099640214,3,533
2019_Sep_30,117,001,3,recog,49,WALKED,HF,lure,-,-,-,conservative,no,m,1,1.70611943833,3,536
2019_Sep_30,117,001,3,recog,50,SITTING,HF,target,left,aqua,pleasantness,liberal,no,z,1,0.706095242424,3,539
2019_Sep_30,117,001,3,recog,51,COVER,HF,target,left,aqua,pleasantness,conservative,no,m,0,2.41193239517,-1,538
2019_Sep_30,117,001,3,recog,52,USUAL,HF,lure,-,-,-,liberal,no,m,1,1.31797821928,1,539
2019_Sep_30,117,001,3,recog,53,GEYSER,LF,lure,-,-,-,liberal,no,m,1,0.588613479174,1,540
2019_Sep_30,117,001,3,recog,54,POINT,HF,lure,-,-,-,liberal,no,m,1,0.576523957248,1,541
2019_Sep_30,117,001,3,recog,55,ALTHOUGH,HF,lure,-,-,-,conservative,no,m,1,0.706193492474,3,544
2019_Sep_30,117,001,3,recog,56,STEADFAST,LF,lure,-,-,-,liberal,no,m,1,0.576691862183,1,545
2019_Sep_30,117,001,3,recog,57,ALREADY,HF,target,left,aqua,pleasantness,conservative,no,m,0,0.800053817564,-1,544
2019_Sep_30,117,001,3,recog,58,JUBILANT,LF,target,right,yellow,imageability,liberal,yes,z,1,1.21206063348,3,547
2019_Sep_30,117,001,3,recog,59,WRONG,HF,target,right,yellow,imageability,liberal,no,z,1,1.15312563468,3,550
2019_Sep_30,117,001,3,recog,60,LIVED,HF,target,right,yellow,imageability,liberal,no,m,0,0.835654429648,-3,547
2019_Sep_30,117,001,3,recog,61,SOVIET,HF,lure,-,-,-,conservative,no,m,1,0.870911533163,3,550
2019_Sep_30,117,001,3,recog,62,FLOOR,HF,target,left,aqua,pleasantness,conservative,no,z,1,1.47089892196,1,551
2019_Sep_30,117,001,3,recog,63,ITSELF,HF,lure,-,-,-,conservative,no,m,1,0.623746303709,3,554
2019_Sep_30,117,001,3,recog,64,MAKES,HF,lure,-,-,-,liberal,no,m,1,1.03566220167,1,555
2019_Sep_30,117,001,3,recog,65,WHITE,HF,lure,-,-,-,liberal,no,m,1,0.647305052472,1,556
2019_Sep_30,117,001,3,recog,66,GIVEN,HF,lure,-,-,-,liberal,no,m,1,2.47096124476,1,557
2019_Sep_30,117,001,3,recog,67,MUSIC,HF,lure,-,-,-,conservative,no,m,1,0.670650437323,3,560
2019_Sep_30,117,001,3,recog,68,SERIOUS,HF,lure,-,-,-,conservative,no,m,1,1.28272624823,3,563
2019_Sep_30,117,001,3,recog,69,FECKLESS,LF,lure,-,-,-,liberal,no,m,1,0.658939618012,1,564
2019_Sep_30,117,001,3,recog,70,TURNED,HF,target,left,aqua,pleasantness,liberal,no,m,0,1.35329434615,-3,561
2019_Sep_30,117,001,3,recog,71,FAUCET,LF,lure,-,-,-,conservative,no,m,1,0.882553430797,3,564
2019_Sep_30,117,001,3,recog,72,MUGGING,LF,target,right,yellow,imageability,liberal,no,z,1,0.741483590409,3,567
2019_Sep_30,117,001,3,recog,73,VEHEMENCE,LF,target,left,aqua,pleasantness,conservative,no,z,1,0.729691751469,1,568
2019_Sep_30,117,001,3,recog,74,PIQUE,LF,lure,-,-,-,conservative,no,m,1,0.588359422143,3,571
2019_Sep_30,117,001,3,recog,75,EARLIER,HF,target,right,yellow,imageability,liberal,no,z,1,0.929757080419,3,574
2019_Sep_30,117,001,3,recog,76,CREAK,LF,target,left,aqua,pleasantness,conservative,no,m,0,2.6356840513,-1,573
2019_Sep_30,117,001,3,recog,77,SUDDENLY,HF,target,left,aqua,pleasantness,liberal,no,z,1,0.96491630049,3,576
2019_Sep_30,117,001,3,recog,78,FATHER,HF,target,left,aqua,pleasantness,conservative,no,z,1,0.717948670948,1,577
2019_Sep_30,117,001,3,recog,79,INSIDE,HF,lure,-,-,-,conservative,no,m,1,0.706134469123,3,580
2019_Sep_30,117,001,3,recog,80,HOIST,LF,target,right,yellow,imageability,conservative,no,z,1,0.717835023503,1,581
2019_Sep_30,117,001,3,recog,81,FANATICS,LF,lure,-,-,-,conservative,no,m,1,1.41211166485,3,584
2019_Sep_30,117,001,3,recog,82,DOUBT,HF,target,left,aqua,pleasantness,liberal,no,z,1,0.835608604065,3,587
2019_Sep_30,117,001,3,recog,83,DIDACTIC,LF,lure,-,-,-,liberal,no,m,1,0.952980752522,1,588
2019_Sep_30,117,001,3,recog,84,EIGHT,HF,lure,-,-,-,liberal,no,m,1,2.29442350317,1,589
2019_Sep_30,117,001,3,recog,85,MEETING,HF,target,right,yellow,imageability,liberal,no,z,1,1.09422033087,3,592
2019_Sep_30,117,001,3,recog,86,HISTORY,HF,lure,-,-,-,liberal,no,m,1,0.741224034308,1,593
2019_Sep_30,117,001,3,recog,87,DOGMAS,LF,target,left,aqua,pleasantness,conservative,no,z,1,0.623881580829,1,594
2019_Sep_30,117,001,3,recog,88,AGONIZED,LF,target,right,yellow,imageability,liberal,no,z,1,0.659067929644,3,597
2019_Sep_30,117,001,3,recog,89,BAFFLING,LF,lure,-,-,-,liberal,no,m,1,0.753367813724,1,598
2019_Sep_30,117,001,3,recog,90,OFFER,HF,lure,-,-,-,conservative,no,m,1,0.81203482451,3,601
2019_Sep_30,117,001,3,recog,91,ADJOURNED,LF,target,right,yellow,imageability,conservative,no,z,1,0.694388455766,1,602
2019_Sep_30,117,001,3,recog,92,TUFTS,LF,lure,-,-,-,liberal,no,m,1,0.776591119222,1,603
2019_Sep_30,117,001,3,recog,93,LEOPARDS,LF,target,right,yellow,imageability,liberal,no,z,1,0.682776619714,3,606
2019_Sep_30,117,001,3,recog,94,RABBIS,LF,target,right,yellow,imageability,conservative,no,z,1,1.42400615309,1,607
2019_Sep_30,117,001,3,recog,95,EMACIATED,LF,lure,-,-,-,conservative,no,m,1,0.870925830744,3,610
2019_Sep_30,117,001,4,source,0,STUDENT,HF,target,left,aqua,pleasantness,conservative,no,8,0,3.10631425205,-,-
2019_Sep_30,117,001,4,source,1,TRYING,HF,target,left,aqua,pleasantness,liberal,no,7,0,1.30626263411,-,-
2019_Sep_30,117,001,4,source,2,QUESTION,HF,target,left,aqua,pleasantness,liberal,no,2,1,2.50629570185,-,-
2019_Sep_30,117,001,4,source,3,GREATER,HF,target,left,aqua,pleasantness,liberal,no,1,1,1.95322637765,-,-
2019_Sep_30,117,001,4,source,4,AEONS,LF,target,right,yellow,imageability,liberal,no,9,1,2.17679326503,-,-
2019_Sep_30,117,001,4,source,5,FINAL,HF,target,left,aqua,pleasantness,conservative,no,3,1,2.67093602235,-,-
2019_Sep_30,117,001,4,source,6,HATCHES,LF,target,left,aqua,pleasantness,liberal,no,9,0,0.717757303315,-,-
2019_Sep_30,117,001,4,source,7,JUTTED,LF,target,left,aqua,pleasantness,liberal,no,1,1,0.717710011314,-,-
2019_Sep_30,117,001,4,source,8,OPTIC,LF,target,left,aqua,pleasantness,liberal,no,1,1,0.835523551783,-,-
2019_Sep_30,117,001,4,source,9,TEDIUM,LF,target,left,aqua,pleasantness,conservative,no,1,1,0.84749832645,-,-
2019_Sep_30,117,001,4,source,10,YORKER,LF,target,right,yellow,imageability,conservative,no,8,1,3.71811877551,-,-
2019_Sep_30,117,001,4,source,11,TUSKS,LF,target,right,yellow,imageability,conservative,no,9,1,0.706200091358,-,-
2019_Sep_30,117,001,4,source,12,TILTS,LF,target,right,yellow,imageability,conservative,no,9,1,0.706225020475,-,-
2019_Sep_30,117,001,4,source,13,KITCHEN,HF,target,right,yellow,imageability,liberal,no,1,0,1.44735117134,-,-
2019_Sep_30,117,001,4,source,14,LASER,LF,target,left,aqua,pleasantness,conservative,no,1,1,0.788587156959,-,-
2019_Sep_30,117,001,4,source,15,CLASS,HF,target,right,yellow,imageability,conservative,no,7,1,1.29449829052,-,-
2019_Sep_30,117,001,4,source,16,GARDEN,HF,target,left,aqua,pleasantness,liberal,no,1,1,2.10600740395,-,-
2019_Sep_30,117,001,4,source,17,INITIATES,LF,target,left,aqua,pleasantness,conservative,no,1,1,1.63565105688,-,-
2019_Sep_30,117,001,4,source,18,BAIZE,LF,target,right,yellow,imageability,liberal,no,9,1,0.82381639852,-,-
2019_Sep_30,117,001,4,source,19,IMPORTANT,HF,target,left,aqua,pleasantness,liberal,no,8,0,3.51782945111,-,-
2019_Sep_30,117,001,4,source,20,TRUTH,HF,target,right,yellow,imageability,conservative,no,9,1,1.43562532124,-,-
2019_Sep_30,117,001,4,source,21,LAMENT,LF,target,right,yellow,imageability,conservative,no,3,0,2.75305033409,-,-
2019_Sep_30,117,001,4,source,22,SUBJECT,HF,target,left,aqua,pleasantness,liberal,no,2,1,1.54147581839,-,-
2019_Sep_30,117,001,4,source,23,MEMBERS,HF,target,right,yellow,imageability,conservative,no,1,0,1.15311243692,-,-
2019_Sep_30,117,001,4,source,24,WAFER,LF,target,right,yellow,imageability,conservative,no,9,1,1.52967958019,-,-
2019_Sep_30,117,001,4,source,25,USING,HF,target,right,yellow,imageability,liberal,yes,7,1,1.80024665162,-,-
2019_Sep_30,117,001,4,source,26,BACHELORS,LF,target,right,yellow,imageability,conservative,no,9,1,0.729547675836,-,-
2019_Sep_30,117,001,4,source,27,DEVELOPED,HF,target,left,aqua,pleasantness,conservative,no,1,1,1.02386559687,-,-
2019_Sep_30,117,001,4,source,28,PLACE,HF,target,left,aqua,pleasantness,conservative,no,2,1,2.47092458429,-,-
2019_Sep_30,117,001,4,source,29,WAITING,HF,target,right,yellow,imageability,conservative,no,1,0,2.77698191979,-,-
2019_Sep_30,117,001,4,source,30,MOSAICS,LF,target,right,yellow,imageability,liberal,no,9,1,0.599977490474,-,-
2019_Sep_30,117,001,4,source,31,NAUGHT,LF,target,right,yellow,imageability,liberal,no,9,1,0.670894229423,-,-
2019_Sep_30,117,001,4,source,32,SEEMED,HF,target,right,yellow,imageability,liberal,no,7,1,1.08268694821,-,-
2019_Sep_30,117,001,4,source,33,ARGUABLE,LF,target,left,aqua,pleasantness,liberal,no,1,1,1.08260776161,-,-
2019_Sep_30,117,001,4,source,34,VARIOUS,HF,target,left,aqua,pleasantness,conservative,no,2,1,0.941507493033,-,-
2019_Sep_30,117,001,4,source,35,EJECTED,LF,target,right,yellow,imageability,liberal,no,1,0,1.50616849004,-,-
2019_Sep_30,117,001,4,source,36,WANTED,HF,target,right,yellow,imageability,conservative,yes,3,0,0.835612636716,-,-
2019_Sep_30,117,001,4,source,37,GETTING,HF,target,left,aqua,pleasantness,conservative,no,9,0,2.83565369644,-,-
2019_Sep_30,117,001,4,source,38,COACHED,LF,target,left,aqua,pleasantness,conservative,no,9,0,1.09439190185,-,-
2019_Sep_30,117,001,4,source,39,ROOFED,LF,target,left,aqua,pleasantness,conservative,no,1,1,0.941465700101,-,-
2019_Sep_30,117,001,4,source,40,TERMS,HF,target,right,yellow,imageability,liberal,no,7,1,1.49453062505,-,-
2019_Sep_30,117,001,4,source,41,AFRAID,HF,target,right,yellow,imageability,liberal,no,1,0,2.00012647861,-,-
2019_Sep_30,117,001,4,source,42,MISFITS,LF,target,left,aqua,pleasantness,conservative,no,9,0,0.847245002629,-,-
2019_Sep_30,117,001,4,source,43,OTHERS,HF,target,right,yellow,imageability,conservative,yes,7,1,2.00039813266,-,-
2019_Sep_30,117,001,4,source,44,ICEBOX,LF,target,right,yellow,imageability,liberal,no,9,1,0.72970128319,-,-
2019_Sep_30,117,001,4,source,45,LIGHT,HF,target,right,yellow,imageability,liberal,no,9,1,0.859102463804,-,-
2019_Sep_30,117,001,4,source,46,NOBLEMAN,LF,target,left,aqua,pleasantness,liberal,no,1,1,0.823810532845,-,-
2019_Sep_30,117,001,4,source,47,VEGAN,LF,target,left,aqua,pleasantness,liberal,yes,3,1,3.44738049971,-,-
2019_Sep_30,117,001,4,recog,0,MISFITS,LF,target,left,aqua,pleasantness,conservative,no,z,1,1.10612875009,1,611
2019_Sep_30,117,001,4,recog,1,PLYWOOD,LF,lure,-,-,-,conservative,no,z,0,1.01220023653,-3,608
2019_Sep_30,117,001,4,recog,2,OPTIC,LF,target,left,aqua,pleasantness,liberal,no,z,1,0.718107044162,3,611
2019_Sep_30,117,001,4,recog,3,GETTING,HF,target,left,aqua,pleasantness,conservative,no,z,1,0.953037942849,1,612
2019_Sep_30,117,001,4,recog,4,MINISTER,HF,lure,-,-,-,conservative,no,m,1,0.670673166811,3,615
2019_Sep_30,117,001,4,recog,5,TUSKS,LF,target,right,yellow,imageability,conservative,no,z,1,0.670935655749,1,616
2019_Sep_30,117,001,4,recog,6,TILTS,LF,target,right,yellow,imageability,conservative,no,z,1,0.600264908529,1,617
2019_Sep_30,117,001,4,recog,7,ARGUABLE,LF,target,left,aqua,pleasantness,liberal,no,z,1,0.800430320552,3,620
2019_Sep_30,117,001,4,recog,8,DAFFODILS,LF,lure,-,-,-,liberal,no,m,1,0.600422915138,1,621
2019_Sep_30,117,001,4,recog,9,ECLECTIC,LF,lure,-,-,-,liberal,no,m,1,0.706280744383,1,622
2019_Sep_30,117,001,4,recog,10,BAIZE,LF,target,right,yellow,imageability,liberal,no,z,1,0.776763790017,3,625
2019_Sep_30,117,001,4,recog,11,COILING,LF,lure,-,-,-,liberal,no,m,1,0.635519445811,1,626
2019_Sep_30,117,001,4,recog,12,LAMENT,LF,target,right,yellow,imageability,conservative,no,z,1,0.659132452065,1,627
2019_Sep_30,117,001,4,recog,13,DEVELOPED,HF,target,left,aqua,pleasantness,conservative,no,z,1,1.00014407563,1,628
2019_Sep_30,117,001,4,recog,14,LANGUAGE,HF,lure,-,-,-,liberal,no,m,1,0.588653805686,1,629
2019_Sep_30,117,001,4,recog,15,WRITE,HF,lure,-,-,-,conservative,no,m,1,0.965033247377,3,632
2019_Sep_30,117,001,4,recog,16,DEITIES,LF,lure,-,-,-,conservative,no,m,1,0.76501850987,3,635
2019_Sep_30,117,001,4,recog,17,EASILY,HF,lure,-,-,-,conservative,no,m,1,0.623879747805,3,638
2019_Sep_30,117,001,4,recog,18,JOSTLED,LF,lure,-,-,-,liberal,no,m,1,0.871020414747,1,639
2019_Sep_30,117,001,4,recog,19,HATCHES,LF,target,left,aqua,pleasantness,liberal,no,z,1,0.870932429628,3,642
2019_Sep_30,117,001,4,recog,20,WAFER,LF,target,right,yellow,imageability,conservative,no,z,1,0.717982031972,1,643
2019_Sep_30,117,001,4,recog,21,LIQUEUR,LF,lure,-,-,-,conservative,no,m,1,0.741566076457,3,646
2019_Sep_30,117,001,4,recog,22,DIVAN,LF,lure,-,-,-,conservative,no,m,1,0.623881580829,3,649
2019_Sep_30,117,001,4,recog,23,OTHERS,HF,target,right,yellow,imageability,conservative,no,m,0,2.02394918273,-1,648
2019_Sep_30,117,001,4,recog,24,FINAL,HF,target,left,aqua,pleasantness,conservative,no,m,0,0.741464526966,-1,647
2019_Sep_30,117,001,4,recog,25,TERMS,HF,target,right,yellow,imageability,liberal,no,z,1,0.776710998946,3,650
2019_Sep_30,117,001,4,recog,26,INCLUDING,HF,lure,-,-,-,liberal,no,m,1,0.670828240583,1,651
2019_Sep_30,117,001,4,recog,27,HYPNOSIS,LF,lure,-,-,-,liberal,no,m,1,0.600332730391,1,652
2019_Sep_30,117,001,4,recog,28,VEGAN,LF,target,left,aqua,pleasantness,liberal,no,z,1,0.624012092088,3,655
2019_Sep_30,117,001,4,recog,29,AFRAID,HF,target,right,yellow,imageability,liberal,no,z,1,0.647332181217,3,658
2019_Sep_30,117,001,4,recog,30,AEONS,LF,target,right,yellow,imageability,liberal,no,z,1,0.659101290668,3,661
2019_Sep_30,117,001,4,recog,31,SUBJECT,HF,target,left,aqua,pleasantness,liberal,no,z,1,0.600279572715,3,664
2019_Sep_30,117,001,4,recog,32,JUTTED,LF,target,left,aqua,pleasantness,liberal,no,z,1,0.647368841683,3,667
2019_Sep_30,117,001,4,recog,33,PLACE,HF,target,left,aqua,pleasantness,conservative,no,z,1,0.871121597634,1,668
2019_Sep_30,117,001,4,recog,34,NOTHING,HF,lure,-,-,-,liberal,no,m,1,0.847148218998,1,669
2019_Sep_30,117,001,4,recog,35,PURCHASER,LF,lure,-,-,-,liberal,no,m,1,0.694619050098,1,670
2019_Sep_30,117,001,4,recog,36,MAJOR,HF,lure,-,-,-,liberal,no,m,1,1.45916097391,1,671
2019_Sep_30,117,001,4,recog,37,CASES,HF,lure,-,-,-,conservative,no,m,1,0.905939875369,3,674
2019_Sep_30,117,001,4,recog,38,SIESTA,LF,lure,-,-,-,liberal,no,m,1,0.612007622444,1,675
2019_Sep_30,117,001,4,recog,39,OUTSIDE,HF,lure,-,-,-,conservative,no,m,1,0.77673482825,3,678
2019_Sep_30,117,001,4,recog,40,MEMBERS,HF,target,right,yellow,imageability,conservative,no,z,1,0.659080027598,1,679
2019_Sep_30,117,001,4,recog,41,MERELY,HF,lure,-,-,-,conservative,no,m,1,0.729452725229,3,682
2019_Sep_30,117,001,4,recog,42,WAITING,HF,target,right,yellow,imageability,conservative,no,z,1,0.72977203789,1,683
2019_Sep_30,117,001,4,recog,43,CIRCUSES,LF,lure,-,-,-,liberal,no,m,1,0.835538582574,1,684
2019_Sep_30,117,001,4,recog,44,PRIVATE,HF,lure,-,-,-,conservative,no,m,1,1.23555009396,3,687
2019_Sep_30,117,001,4,recog,45,HAIRDO,LF,lure,-,-,-,conservative,no,m,1,0.670893862818,3,690
2019_Sep_30,117,001,4,recog,46,EJECTED,LF,target,right,yellow,imageability,liberal,yes,z,1,1.21206759897,3,693
2019_Sep_30,117,001,4,recog,47,SHALL,HF,lure,-,-,-,conservative,yes,m,1,1.15331223646,3,696
2019_Sep_30,117,001,4,recog,48,MOSAICS,LF,target,right,yellow,imageability,liberal,no,z,1,1.4591994674,3,699
2019_Sep_30,117,001,4,recog,49,POETICAL,LF,lure,-,-,-,conservative,yes,z,0,3.94167576457,-3,696
2019_Sep_30,117,001,4,recog,50,SEGMENTED,LF,lure,-,-,-,conservative,no,z,0,2.28274164563,-3,693
2019_Sep_30,117,001,4,recog,51,ARSENALS,LF,lure,-,-,-,conservative,no,m,1,1.12965487104,3,696
2019_Sep_30,117,001,4,recog,52,OATHS,LF,lure,-,-,-,conservative,no,m,1,0.647361876195,3,699
2019_Sep_30,117,001,4,recog,53,EXCEPT,HF,lure,-,-,-,liberal,no,z,0,1.04733122805,-1,698
2019_Sep_30,117,001,4,recog,54,KITCHEN,HF,target,right,yellow,imageability,liberal,no,z,1,0.870855076045,3,701
2019_Sep_30,117,001,4,recog,55,YORKER,LF,target,right,yellow,imageability,conservative,no,z,1,0.812032991486,1,702
2019_Sep_30,117,001,4,recog,56,MEANS,HF,lure,-,-,-,liberal,no,m,1,0.859154155061,1,703
2019_Sep_30,117,001,4,recog,57,MATERIAL,HF,lure,-,-,-,liberal,no,m,1,0.5177183699,1,704
2019_Sep_30,117,001,4,recog,58,NUMBER,HF,lure,-,-,-,conservative,no,m,1,0.694457377442,3,707
2019_Sep_30,117,001,4,recog,59,NOBLEMAN,LF,target,left,aqua,pleasantness,liberal,no,z,1,0.659266262766,3,710
2019_Sep_30,117,001,4,recog,60,USING,HF,target,right,yellow,imageability,liberal,no,m,0,1.58863437564,-3,707
2019_Sep_30,117,001,4,recog,61,CLASS,HF,target,right,yellow,imageability,conservative,no,z,1,1.04736422246,1,708
2019_Sep_30,117,001,4,recog,62,GLASS,HF,lure,-,-,-,conservative,no,m,1,0.835823434396,3,711
2019_Sep_30,117,001,4,recog,63,LIGHT,HF,target,right,yellow,imageability,liberal,no,z,1,0.670861968213,3,714
2019_Sep_30,117,001,4,recog,64,IMPORTANT,HF,target,left,aqua,pleasantness,liberal,no,z,1,0.941511525684,3,717
2019_Sep_30,117,001,4,recog,65,SIMILAR,HF,lure,-,-,-,liberal,yes,m,1,1.45932227996,1,718
2019_Sep_30,117,001,4,recog,66,ARDENTLY,LF,lure,-,-,-,liberal,no,m,1,4.84739824338,1,719
2019_Sep_30,117,001,4,recog,67,GARDEN,HF,target,left,aqua,pleasantness,liberal,no,z,1,0.753185977812,3,722
2019_Sep_30,117,001,4,recog,68,TONAL,LF,lure,-,-,-,conservative,no,m,1,0.729745275749,3,725
2019_Sep_30,117,001,4,recog,69,JADED,LF,lure,-,-,-,liberal,no,m,1,0.729561973418,1,726
2019_Sep_30,117,001,4,recog,70,GREATER,HF,target,left,aqua,pleasantness,liberal,no,m,0,0.741361877661,-3,723
2019_Sep_30,117,001,4,recog,71,TRYING,HF,target,left,aqua,pleasantness,liberal,no,m,0,2.87099585223,-3,720
2019_Sep_30,117,001,4,recog,72,NEGATION,LF,lure,-,-,-,conservative,no,m,1,0.929874393911,3,723
2019_Sep_30,117,001,4,recog,73,SEEMED,HF,target,right,yellow,imageability,liberal,no,z,1,0.929982175681,3,726
2019_Sep_30,117,001,4,recog,74,VARIOUS,HF,target,left,aqua,pleasantness,conservative,no,z,1,1.55334317789,1,727
2019_Sep_30,117,001,4,recog,75,NAUGHT,LF,target,right,yellow,imageability,liberal,no,z,1,0.729739410074,3,730
2019_Sep_30,117,001,4,recog,76,STUDENT,HF,target,left,aqua,pleasantness,conservative,no,z,1,0.694562959585,1,731
2019_Sep_30,117,001,4,recog,77,HEIFERS,LF,lure,-,-,-,liberal,no,m,1,0.670890929981,1,732
2019_Sep_30,117,001,4,recog,78,WANTED,HF,target,right,yellow,imageability,conservative,no,z,1,1.0826781497,1,733
2019_Sep_30,117,001,4,recog,79,INITIATES,LF,target,left,aqua,pleasantness,conservative,no,z,1,0.741452795617,1,734
2019_Sep_30,117,001,4,recog,80,WITHIN,HF,lure,-,-,-,liberal,no,m,1,0.882724268569,1,735
2019_Sep_30,117,001,4,recog,81,TOTAL,HF,lure,-,-,-,conservative,no,m,1,0.847334087562,3,738
2019_Sep_30,117,001,4,recog,82,COACHED,LF,target,left,aqua,pleasantness,conservative,no,z,1,1.0236009083,1,739
2019_Sep_30,117,001,4,recog,83,RELAXES,LF,lure,-,-,-,conservative,no,m,1,0.576737321161,3,742
2019_Sep_30,117,001,4,recog,84,QUESTION,HF,target,left,aqua,pleasantness,liberal,no,z,1,0.918064591342,3,745
2019_Sep_30,117,001,4,recog,85,TRUTH,HF,target,right,yellow,imageability,conservative,no,z,1,0.824007399548,1,746
2019_Sep_30,117,001,4,recog,86,BACHELORS,LF,target,right,yellow,imageability,conservative,no,z,1,0.741581107249,1,747
2019_Sep_30,117,001,4,recog,87,POSITION,HF,lure,-,-,-,liberal,no,m,1,0.717924841645,1,748
2019_Sep_30,117,001,4,recog,88,AREAS,HF,lure,-,-,-,liberal,no,m,1,0.659152615321,1,749
2019_Sep_30,117,001,4,recog,89,JOLLITY,LF,lure,-,-,-,liberal,no,m,1,0.623757301848,1,750
2019_Sep_30,117,001,4,recog,90,LASER,LF,target,left,aqua,pleasantness,conservative,no,z,1,0.564937783523,1,751
2019_Sep_30,117,001,4,recog,91,ICEBOX,LF,target,right,yellow,imageability,liberal,no,z,1,0.57678204693,3,754
2019_Sep_30,117,001,4,recog,92,RANGE,HF,lure,-,-,-,conservative,no,m,1,0.811987165904,3,757
2019_Sep_30,117,001,4,recog,93,TEDIUM,LF,target,left,aqua,pleasantness,conservative,no,z,1,0.847152984858,1,758
2019_Sep_30,117,001,4,recog,94,ROOFED,LF,target,left,aqua,pleasantness,conservative,no,z,1,0.682684235339,1,759
2019_Sep_30,117,001,4,recog,95,CAUGHT,HF,lure,-,-,-,liberal,no,m,1,0.76505627015,1,760
