date,subj,session,cycle,task,trial,item,wf,type,source,colour,encoding,bias,null,response,corr,rt,points,total
2019_Oct_08,118,001,0,source,0,VECTORS,LF,target,right,aqua,imageability,liberal,no,1,0,3.64743867048,-,-
2019_Oct_08,118,001,0,source,1,DERANGED,LF,target,left,yellow,pleasantness,liberal,no,1,1,1.17676018541,-,-
2019_Oct_08,118,001,0,source,2,HIGHER,HF,target,left,yellow,pleasantness,liberal,no,1,1,0.870927557187,-,-
2019_Oct_08,118,001,0,source,3,AHEAD,HF,target,left,yellow,pleasantness,conservative,no,3,1,3.05928495698,-,-
2019_Oct_08,118,001,0,source,4,WALKED,HF,target,right,aqua,imageability,liberal,no,9,1,2.21204638006,-,-
2019_Oct_08,118,001,0,source,5,TRYING,HF,target,left,yellow,pleasantness,liberal,no,1,1,0.988564458868,-,-
2019_Oct_08,118,001,0,source,6,ANSWER,HF,target,left,yellow,pleasantness,conservative,no,1,1,0.894424435903,-,-
2019_Oct_08,118,001,0,source,7,PHANTOMS,LF,target,right,aqua,imageability,conservative,no,9,1,0.75299847052,-,-
2019_Oct_08,118,001,0,source,8,CENTRAL,HF,target,left,yellow,pleasantness,liberal,no,1,1,0.729759682431,-,-
2019_Oct_08,118,001,0,source,9,DRYER,LF,target,right,aqua,imageability,conservative,no,9,1,1.1768690674,-,-
2019_Oct_08,118,001,0,source,10,PHYSICAL,HF,target,right,aqua,imageability,conservative,yes,9,1,1.05915334543,-,-
2019_Oct_08,118,001,0,source,11,HALLMARK,LF,target,right,aqua,imageability,liberal,no,9,1,1.55325172195,-,-
2019_Oct_08,118,001,0,source,12,KNOWLEDGE,HF,target,left,yellow,pleasantness,conservative,no,1,1,1.50624403349,-,-
2019_Oct_08,118,001,0,source,13,KICKER,LF,target,left,yellow,pleasantness,liberal,no,1,1,0.94153440744,-,-
2019_Oct_08,118,001,0,source,14,WETTER,LF,target,left,yellow,pleasantness,conservative,no,1,1,0.894485659106,-,-
2019_Oct_08,118,001,0,source,15,AVAILABLE,HF,target,left,yellow,pleasantness,conservative,no,1,1,1.43579519042,-,-
2019_Oct_08,118,001,0,source,16,INTEREST,HF,target,left,yellow,pleasantness,liberal,no,1,1,0.729680128928,-,-
2019_Oct_08,118,001,0,source,17,BELIEVE,HF,target,left,yellow,pleasantness,conservative,yes,3,1,1.10624462006,-,-
2019_Oct_08,118,001,0,source,18,VIVACIOUS,LF,target,left,yellow,pleasantness,liberal,no,1,1,2.21216919307,-,-
2019_Oct_08,118,001,0,source,19,FATHER,HF,target,right,aqua,imageability,liberal,no,1,0,1.41212234082,-,-
2019_Oct_08,118,001,0,source,20,EITHER,HF,target,right,aqua,imageability,conservative,no,8,1,3.05910018756,-,-
2019_Oct_08,118,001,0,source,21,HOWEVER,HF,target,right,aqua,imageability,conservative,no,9,1,1.64742693909,-,-
2019_Oct_08,118,001,0,source,22,PIZZA,LF,target,right,aqua,imageability,liberal,no,9,1,1.15322114701,-,-
2019_Oct_08,118,001,0,source,23,VOUCH,LF,target,left,yellow,pleasantness,conservative,no,1,1,1.52947622267,-,-
2019_Oct_08,118,001,0,source,24,PIPELINES,LF,target,left,yellow,pleasantness,liberal,no,2,1,2.40032825902,-,-
2019_Oct_08,118,001,0,source,25,TOKENS,LF,target,right,aqua,imageability,conservative,no,8,1,2.35326887911,-,-
2019_Oct_08,118,001,0,source,26,HESITATES,LF,target,left,yellow,pleasantness,liberal,no,1,1,1.81218334406,-,-
2019_Oct_08,118,001,0,source,27,CICADAS,LF,target,right,aqua,imageability,liberal,no,8,1,2.30629015252,-,-
2019_Oct_08,118,001,0,source,28,TOOTHACHE,LF,target,left,yellow,pleasantness,conservative,no,1,1,0.941487848477,-,-
2019_Oct_08,118,001,0,source,29,WRONG,HF,target,right,aqua,imageability,conservative,no,2,0,2.04739262477,-,-
2019_Oct_08,118,001,0,source,30,MATERIAL,HF,target,left,yellow,pleasantness,liberal,no,1,1,1.34144620204,-,-
2019_Oct_08,118,001,0,source,31,EASILY,HF,target,right,aqua,imageability,liberal,no,8,1,2.51792556725,-,-
2019_Oct_08,118,001,0,source,32,SIBLINGS,LF,target,left,yellow,pleasantness,liberal,no,1,1,0.776736209382,-,-
2019_Oct_08,118,001,0,source,33,NOSTRIL,LF,target,right,aqua,imageability,conservative,no,7,1,1.24737033512,-,-
2019_Oct_08,118,001,0,source,34,ELECTING,LF,target,right,aqua,imageability,liberal,no,8,1,2.61207402215,-,-
2019_Oct_08,118,001,0,source,35,KERNEL,LF,target,left,yellow,pleasantness,conservative,no,1,1,0.988471340942,-,-
2019_Oct_08,118,001,0,source,36,SUBJECT,HF,target,right,aqua,imageability,liberal,no,8,1,2.37683614618,-,-
2019_Oct_08,118,001,0,source,37,STRAIGHT,HF,target,right,aqua,imageability,conservative,no,7,1,2.58853388393,-,-
2019_Oct_08,118,001,0,source,38,PAPER,HF,target,right,aqua,imageability,conservative,no,7,1,1.27088664396,-,-
2019_Oct_08,118,001,0,source,39,HUSBAND,HF,target,left,yellow,pleasantness,conservative,yes,7,0,1.22386282483,-,-
2019_Oct_08,118,001,0,source,40,LOITERING,LF,target,right,aqua,imageability,liberal,no,8,1,2.11802403762,-,-
2019_Oct_08,118,001,0,source,41,DOING,HF,target,right,aqua,imageability,liberal,no,8,1,1.15331169869,-,-
2019_Oct_08,118,001,0,source,42,BLOOD,HF,target,left,yellow,pleasantness,liberal,yes,7,0,0.80037056535,-,-
2019_Oct_08,118,001,0,source,43,ANAEMIC,LF,target,left,yellow,pleasantness,conservative,no,1,1,1.31803620894,-,-
2019_Oct_08,118,001,0,source,44,KITCHEN,HF,target,right,aqua,imageability,liberal,no,9,1,1.15326220688,-,-
2019_Oct_08,118,001,0,source,45,CYANIDE,LF,target,right,aqua,imageability,conservative,no,8,1,1.34154995153,-,-
2019_Oct_08,118,001,0,source,46,LICENSING,LF,target,right,aqua,imageability,conservative,no,8,1,1.03544566826,-,-
2019_Oct_08,118,001,0,source,47,UNHEEDED,LF,target,left,yellow,pleasantness,conservative,no,2,1,1.01187510173,-,-
2019_Oct_08,118,001,0,recog,0,KITCHEN,HF,target,right,aqua,imageability,liberal,no,z,1,0.988598919832,3,3
2019_Oct_08,118,001,0,recog,1,TOGETHER,HF,lure,-,-,-,conservative,no,m,1,0.941628625184,3,6
2019_Oct_08,118,001,0,recog,2,SUBJECT,HF,target,right,aqua,imageability,liberal,no,z,1,0.98858535541,3,9
2019_Oct_08,118,001,0,recog,3,WRONG,HF,target,right,aqua,imageability,conservative,no,z,1,0.976710253677,1,10
2019_Oct_08,118,001,0,recog,4,FONDLE,LF,lure,-,-,-,liberal,no,m,1,0.870872566286,1,11
2019_Oct_08,118,001,0,recog,5,GIVEN,HF,lure,-,-,-,liberal,no,m,1,1.14145456065,1,12
2019_Oct_08,118,001,0,recog,6,PHANTOMS,LF,target,right,aqua,imageability,conservative,no,z,1,0.64738001352,1,13
2019_Oct_08,118,001,0,recog,7,VOUCH,LF,target,left,yellow,pleasantness,conservative,no,z,1,0.717924540753,1,14
2019_Oct_08,118,001,0,recog,8,HALLMARK,LF,target,right,aqua,imageability,liberal,no,z,1,0.600211385023,3,17
2019_Oct_08,118,001,0,recog,9,HUSBAND,HF,target,left,yellow,pleasantness,conservative,no,z,1,0.717937005357,1,18
2019_Oct_08,118,001,0,recog,10,HOWEVER,HF,target,right,aqua,imageability,conservative,no,z,1,0.612020497675,1,19
2019_Oct_08,118,001,0,recog,11,HESITATES,LF,target,left,yellow,pleasantness,liberal,no,z,1,0.553185732867,3,22
2019_Oct_08,118,001,0,recog,12,MONEY,HF,lure,-,-,-,conservative,no,m,1,0.564986780187,3,25
2019_Oct_08,118,001,0,recog,13,WIPERS,LF,lure,-,-,-,conservative,no,m,1,0.694470921545,3,28
2019_Oct_08,118,001,0,recog,14,PAPER,HF,target,right,aqua,imageability,conservative,no,z,1,0.717982097896,1,29
2019_Oct_08,118,001,0,recog,15,BEQUEST,LF,lure,-,-,-,liberal,no,m,1,0.588562479195,1,30
2019_Oct_08,118,001,0,recog,16,FATHER,HF,target,right,aqua,imageability,liberal,no,z,1,0.576800658718,3,33
2019_Oct_08,118,001,0,recog,17,NADIR,LF,lure,-,-,-,conservative,yes,m,1,0.56492775662,3,36
2019_Oct_08,118,001,0,recog,18,ANSWER,HF,target,left,yellow,pleasantness,conservative,no,z,1,0.988575457048,1,37
2019_Oct_08,118,001,0,recog,19,WHITE,HF,lure,-,-,-,liberal,no,m,1,0.647351784858,1,38
2019_Oct_08,118,001,0,recog,20,WAKED,LF,lure,-,-,-,conservative,yes,m,1,0.729654833114,3,41
2019_Oct_08,118,001,0,recog,21,WEEKS,HF,lure,-,-,-,liberal,no,m,1,2.05923436535,1,42
2019_Oct_08,118,001,0,recog,22,GEARING,LF,lure,-,-,-,liberal,no,m,1,1.31794968992,1,43
2019_Oct_08,118,001,0,recog,23,EASILY,HF,target,right,aqua,imageability,liberal,no,z,1,0.623883134804,3,46
2019_Oct_08,118,001,0,recog,24,CENTRAL,HF,target,left,yellow,pleasantness,liberal,no,z,1,0.564957451707,3,49
2019_Oct_08,118,001,0,recog,25,GROUND,HF,lure,-,-,-,conservative,no,m,1,0.89448345947,3,52
2019_Oct_08,118,001,0,recog,26,HOLED,LF,lure,-,-,-,conservative,no,m,1,0.871108293948,3,55
2019_Oct_08,118,001,0,recog,27,OLDER,HF,lure,-,-,-,conservative,no,m,1,0.800048685278,3,58
2019_Oct_08,118,001,0,recog,28,ABOVE,HF,lure,-,-,-,liberal,no,m,1,1.23555608999,1,59
2019_Oct_08,118,001,0,recog,29,RECENT,HF,lure,-,-,-,conservative,no,m,1,0.776621828308,3,62
2019_Oct_08,118,001,0,recog,30,PHYSICAL,HF,target,right,aqua,imageability,conservative,no,z,1,0.588605738704,1,63
2019_Oct_08,118,001,0,recog,31,SPOKE,HF,lure,-,-,-,liberal,no,m,1,0.918084820898,1,64
2019_Oct_08,118,001,0,recog,32,KERNEL,LF,target,left,yellow,pleasantness,conservative,no,z,1,0.565073299205,1,65
2019_Oct_08,118,001,0,recog,33,ELECTING,LF,target,right,aqua,imageability,liberal,no,z,1,0.612006566647,3,68
2019_Oct_08,118,001,0,recog,34,THING,HF,lure,-,-,-,conservative,no,m,1,0.635512977119,3,71
2019_Oct_08,118,001,0,recog,35,DOING,HF,target,right,aqua,imageability,liberal,no,z,1,0.917953209342,3,74
2019_Oct_08,118,001,0,recog,36,ANAEMIC,LF,target,left,yellow,pleasantness,conservative,no,z,1,0.576470713313,1,75
2019_Oct_08,118,001,0,recog,37,MATERIAL,HF,target,left,yellow,pleasantness,liberal,no,z,1,0.623767653912,3,78
2019_Oct_08,118,001,0,recog,38,NOSTRIL,LF,target,right,aqua,imageability,conservative,no,z,1,0.529652560156,1,79
2019_Oct_08,118,001,0,recog,39,KNOWLEDGE,HF,target,left,yellow,pleasantness,conservative,no,z,1,0.600088572011,1,80
2019_Oct_08,118,001,0,recog,40,DERANGED,LF,target,left,yellow,pleasantness,liberal,no,z,1,0.541394583909,3,83
2019_Oct_08,118,001,0,recog,41,VOICE,HF,lure,-,-,-,liberal,no,m,1,0.753211835215,1,84
2019_Oct_08,118,001,0,recog,42,UNTIL,HF,lure,-,-,-,liberal,no,m,1,0.553220927044,1,85
2019_Oct_08,118,001,0,recog,43,VILLAGE,HF,lure,-,-,-,liberal,no,m,1,0.564941321043,1,86
2019_Oct_08,118,001,0,recog,44,DRINK,HF,lure,-,-,-,liberal,no,m,1,0.835318749258,1,87
2019_Oct_08,118,001,0,recog,45,AVAILABLE,HF,target,left,yellow,pleasantness,conservative,no,m,0,0.412032522352,-1,86
2019_Oct_08,118,001,0,recog,46,GRACES,LF,lure,-,-,-,conservative,no,m,1,0.84728660231,3,89
2019_Oct_08,118,001,0,recog,47,LICENSING,LF,target,right,aqua,imageability,conservative,no,z,1,0.635572000686,1,90
2019_Oct_08,118,001,0,recog,48,TEXTURES,LF,lure,-,-,-,liberal,no,m,1,0.765046610288,1,91
2019_Oct_08,118,001,0,recog,49,IMPORTANT,HF,lure,-,-,-,conservative,no,m,1,0.670929683502,3,94
2019_Oct_08,118,001,0,recog,50,GEYSER,LF,lure,-,-,-,liberal,no,m,1,0.576727337517,1,95
2019_Oct_08,118,001,0,recog,51,KICKER,LF,target,left,yellow,pleasantness,liberal,no,z,1,0.635538272934,3,98
2019_Oct_08,118,001,0,recog,52,UPROOTED,LF,lure,-,-,-,liberal,no,m,1,0.953279364041,1,99
2019_Oct_08,118,001,0,recog,53,TAILED,LF,lure,-,-,-,conservative,no,m,1,0.753139247226,3,102
2019_Oct_08,118,001,0,recog,54,ROWAN,LF,lure,-,-,-,conservative,no,m,1,0.565035905392,3,105
2019_Oct_08,118,001,0,recog,55,SAVOURED,LF,lure,-,-,-,liberal,no,m,1,0.470984601081,1,106
2019_Oct_08,118,001,0,recog,56,JOYFULLY,LF,lure,-,-,-,liberal,no,m,1,0.470645490526,1,107
2019_Oct_08,118,001,0,recog,57,CYANIDE,LF,target,right,aqua,imageability,conservative,no,z,1,0.612032229067,1,108
2019_Oct_08,118,001,0,recog,58,TESTIFIES,LF,lure,-,-,-,liberal,no,m,1,0.670818968488,1,109
2019_Oct_08,118,001,0,recog,59,BUMBLING,LF,lure,-,-,-,conservative,no,m,1,0.470943907815,3,112
2019_Oct_08,118,001,0,recog,60,HYDRAULIC,LF,lure,-,-,-,conservative,no,m,1,0.541509331589,3,115
2019_Oct_08,118,001,0,recog,61,BLOOD,HF,target,left,yellow,pleasantness,liberal,no,z,1,0.564976148613,3,118
2019_Oct_08,118,001,0,recog,62,EITHER,HF,target,right,aqua,imageability,conservative,no,z,1,0.870900428342,1,119
2019_Oct_08,118,001,0,recog,63,GLIDED,LF,lure,-,-,-,conservative,no,m,1,0.623761788216,3,122
2019_Oct_08,118,001,0,recog,64,YORKER,LF,lure,-,-,-,liberal,no,m,1,0.659016088138,1,123
2019_Oct_08,118,001,0,recog,65,STRAIGHT,HF,target,right,aqua,imageability,conservative,no,m,0,0.953148119091,-1,122
2019_Oct_08,118,001,0,recog,66,DRYER,LF,target,right,aqua,imageability,conservative,no,z,1,1.3180765356,1,123
2019_Oct_08,118,001,0,recog,67,VEHEMENCE,LF,lure,-,-,-,liberal,no,m,1,0.68261891599,1,124
2019_Oct_08,118,001,0,recog,68,PIZZA,LF,target,right,aqua,imageability,liberal,no,z,1,0.764968156602,3,127
2019_Oct_08,118,001,0,recog,69,DOUBT,HF,lure,-,-,-,conservative,no,m,1,1.25913985433,3,130
2019_Oct_08,118,001,0,recog,70,SUDDENLY,HF,lure,-,-,-,liberal,no,m,1,0.553358770902,1,131
2019_Oct_08,118,001,0,recog,71,DOCTOR,HF,lure,-,-,-,liberal,no,m,1,0.906257377946,1,132
2019_Oct_08,118,001,0,recog,72,TOOTHACHE,LF,target,left,yellow,pleasantness,conservative,no,z,1,0.576821921866,1,133
2019_Oct_08,118,001,0,recog,73,UNHEEDED,LF,target,left,yellow,pleasantness,conservative,no,z,1,0.647280663293,1,134
2019_Oct_08,118,001,0,recog,74,TOKENS,LF,target,right,aqua,imageability,conservative,no,z,1,0.694205865403,1,135
2019_Oct_08,118,001,0,recog,75,WETTER,LF,target,left,yellow,pleasantness,conservative,no,z,1,0.49436746533,1,136
2019_Oct_08,118,001,0,recog,76,VIVACIOUS,LF,target,left,yellow,pleasantness,liberal,no,z,1,0.565086497021,3,139
2019_Oct_08,118,001,0,recog,77,SOUND,HF,lure,-,-,-,conservative,no,m,1,0.600285806042,3,142
2019_Oct_08,118,001,0,recog,78,SIBLINGS,LF,target,left,yellow,pleasantness,liberal,no,z,1,0.635687481578,3,145
2019_Oct_08,118,001,0,recog,79,VECTORS,LF,target,right,aqua,imageability,liberal,no,z,1,0.776693316479,3,148
2019_Oct_08,118,001,0,recog,80,WASHBASIN,LF,lure,-,-,-,conservative,no,m,1,0.741619386712,3,151
2019_Oct_08,118,001,0,recog,81,WALKED,HF,target,right,aqua,imageability,liberal,yes,m,0,0.670661694512,-3,148
2019_Oct_08,118,001,0,recog,82,BELIEVE,HF,target,left,yellow,pleasantness,conservative,yes,m,0,1.81209865808,-1,147
2019_Oct_08,118,001,0,recog,83,APART,HF,lure,-,-,-,conservative,no,m,1,1.83556950777,3,150
2019_Oct_08,118,001,0,recog,84,ABLAZE,LF,lure,-,-,-,conservative,no,m,1,0.553400197381,3,153
2019_Oct_08,118,001,0,recog,85,PRUDENTLY,LF,lure,-,-,-,liberal,no,m,1,0.776783868163,1,154
2019_Oct_08,118,001,0,recog,86,CLASS,HF,lure,-,-,-,conservative,no,m,1,0.776810263795,3,157
2019_Oct_08,118,001,0,recog,87,INTEREST,HF,target,left,yellow,pleasantness,liberal,no,z,1,0.67093811544,3,160
2019_Oct_08,118,001,0,recog,88,CICADAS,LF,target,right,aqua,imageability,liberal,no,z,1,0.612005833435,3,163
2019_Oct_08,118,001,0,recog,89,HIGHER,HF,target,left,yellow,pleasantness,liberal,no,z,1,0.553205896198,3,166
2019_Oct_08,118,001,0,recog,90,LOITERING,LF,target,right,aqua,imageability,liberal,no,z,1,0.576766197753,3,169
2019_Oct_08,118,001,0,recog,91,PIPELINES,LF,target,left,yellow,pleasantness,liberal,no,z,1,0.623979918789,3,172
2019_Oct_08,118,001,0,recog,92,TRYING,HF,target,left,yellow,pleasantness,liberal,no,z,1,0.588529118049,3,175
2019_Oct_08,118,001,0,recog,93,BETTER,HF,lure,-,-,-,liberal,no,m,1,1.18844795148,1,176
2019_Oct_08,118,001,0,recog,94,NUMBER,HF,lure,-,-,-,conservative,no,m,1,0.717945437295,3,179
2019_Oct_08,118,001,0,recog,95,AHEAD,HF,target,left,yellow,pleasantness,conservative,no,m,0,0.859159137801,-1,178
2019_Oct_08,118,001,1,source,0,AMONG,HF,target,right,aqua,imageability,liberal,no,2,0,3.68264311199,-,-
2019_Oct_08,118,001,1,source,1,GARDEN,HF,target,right,aqua,imageability,liberal,no,8,1,0.823738398753,-,-
2019_Oct_08,118,001,1,source,2,INROADS,LF,target,right,aqua,imageability,liberal,no,9,1,1.29444217963,-,-
2019_Oct_08,118,001,1,source,3,INVOLVED,HF,target,left,yellow,pleasantness,liberal,yes,7,0,1.05917937445,-,-
2019_Oct_08,118,001,1,source,4,SOLEMNITY,LF,target,right,aqua,imageability,liberal,no,9,1,1.6238156793,-,-
2019_Oct_08,118,001,1,source,5,RUNNING,HF,target,right,aqua,imageability,conservative,no,9,1,0.717833255857,-,-
2019_Oct_08,118,001,1,source,6,SPRATS,LF,target,left,yellow,pleasantness,liberal,no,2,1,2.00002712884,-,-
2019_Oct_08,118,001,1,source,7,UPSTART,LF,target,left,yellow,pleasantness,liberal,no,2,1,1.2120731423,-,-
2019_Oct_08,118,001,1,source,8,MOGUL,LF,target,right,aqua,imageability,conservative,no,8,1,0.965006356948,-,-
2019_Oct_08,118,001,1,source,9,LOBBIES,LF,target,left,yellow,pleasantness,conservative,no,1,1,1.88241588958,-,-
2019_Oct_08,118,001,1,source,10,ORIGINALS,LF,target,left,yellow,pleasantness,liberal,no,1,1,0.63555880287,-,-
2019_Oct_08,118,001,1,source,11,OBSCURELY,LF,target,right,aqua,imageability,conservative,no,2,0,2.81210122432,-,-
2019_Oct_08,118,001,1,source,12,PONCE,LF,target,right,aqua,imageability,liberal,yes,2,0,0.88251633963,-,-
2019_Oct_08,118,001,1,source,13,POTASH,LF,target,left,yellow,pleasantness,conservative,no,1,1,2.54170656562,-,-
2019_Oct_08,118,001,1,source,14,UNLESS,HF,target,left,yellow,pleasantness,liberal,no,1,1,1.89421510387,-,-
2019_Oct_08,118,001,1,source,15,STOOD,HF,target,right,aqua,imageability,liberal,no,9,1,1.1532024501,-,-
2019_Oct_08,118,001,1,source,16,THRASH,LF,target,right,aqua,imageability,liberal,no,9,1,0.941491514537,-,-
2019_Oct_08,118,001,1,source,17,SITTING,HF,target,left,yellow,pleasantness,liberal,no,1,1,1.43561592009,-,-
2019_Oct_08,118,001,1,source,18,LIVED,HF,target,left,yellow,pleasantness,conservative,no,1,1,0.600476807771,-,-
2019_Oct_08,118,001,1,source,19,BREAK,HF,target,left,yellow,pleasantness,conservative,no,1,1,0.811978777911,-,-
2019_Oct_08,118,001,1,source,20,HAGGLING,LF,target,right,aqua,imageability,conservative,yes,3,0,1.24731937689,-,-
2019_Oct_08,118,001,1,source,21,SPICED,LF,target,left,yellow,pleasantness,conservative,no,1,1,1.12978219204,-,-
2019_Oct_08,118,001,1,source,22,MOUTH,HF,target,left,yellow,pleasantness,conservative,no,1,1,0.788322058977,-,-
2019_Oct_08,118,001,1,source,23,PACIFISM,LF,target,right,aqua,imageability,liberal,no,9,1,1.22381040017,-,-
2019_Oct_08,118,001,1,source,24,BRING,HF,target,right,aqua,imageability,liberal,no,9,1,1.1179796783,-,-
2019_Oct_08,118,001,1,source,25,ZIGZAG,LF,target,left,yellow,pleasantness,liberal,no,1,1,0.929742891876,-,-
2019_Oct_08,118,001,1,source,26,LUNACY,LF,target,left,yellow,pleasantness,conservative,no,1,1,1.1415245824,-,-
2019_Oct_08,118,001,1,source,27,TROUBLE,HF,target,left,yellow,pleasantness,conservative,no,1,1,1.70602304339,-,-
2019_Oct_08,118,001,1,source,28,TABLE,HF,target,left,yellow,pleasantness,conservative,no,1,1,0.765165390633,-,-
2019_Oct_08,118,001,1,source,29,AUBURN,LF,target,right,aqua,imageability,conservative,no,9,1,0.87084103817,-,-
2019_Oct_08,118,001,1,source,30,JOCKEYS,LF,target,left,yellow,pleasantness,conservative,no,1,1,0.847352957997,-,-
2019_Oct_08,118,001,1,source,31,MIDDLE,HF,target,left,yellow,pleasantness,conservative,yes,7,0,0.94127741663,-,-
2019_Oct_08,118,001,1,source,32,LETTER,HF,target,right,aqua,imageability,conservative,no,9,1,1.62389633262,-,-
2019_Oct_08,118,001,1,source,33,MARKET,HF,target,left,yellow,pleasantness,liberal,no,1,1,0.8238084205,-,-
2019_Oct_08,118,001,1,source,34,DOGMAS,LF,target,left,yellow,pleasantness,liberal,no,2,1,1.24732230974,-,-
2019_Oct_08,118,001,1,source,35,FREEDOM,HF,target,left,yellow,pleasantness,liberal,no,1,1,0.776826394459,-,-
2019_Oct_08,118,001,1,source,36,MAYBE,HF,target,left,yellow,pleasantness,liberal,no,2,1,1.55334337345,-,-
2019_Oct_08,118,001,1,source,37,EXPECT,HF,target,right,aqua,imageability,liberal,no,8,1,1.58835424698,-,-
2019_Oct_08,118,001,1,source,38,GAMBITS,LF,target,right,aqua,imageability,liberal,no,8,1,1.07083084652,-,-
2019_Oct_08,118,001,1,source,39,BYGONE,LF,target,left,yellow,pleasantness,conservative,no,1,1,1.24719583066,-,-
2019_Oct_08,118,001,1,source,40,ENERGY,HF,target,right,aqua,imageability,conservative,no,9,1,1.24740479609,-,-
2019_Oct_08,118,001,1,source,41,WHATEVER,HF,target,right,aqua,imageability,conservative,no,9,1,1.08273674316,-,-
2019_Oct_08,118,001,1,source,42,SIMILAR,HF,target,right,aqua,imageability,conservative,no,9,1,0.812124687102,-,-
2019_Oct_08,118,001,1,source,43,CAPITAL,HF,target,right,aqua,imageability,conservative,no,9,1,0.682669874225,-,-
2019_Oct_08,118,001,1,source,44,EGOISM,LF,target,left,yellow,pleasantness,liberal,no,1,1,0.835543845345,-,-
2019_Oct_08,118,001,1,source,45,GERANIUMS,LF,target,right,aqua,imageability,conservative,no,9,1,0.776767737498,-,-
2019_Oct_08,118,001,1,source,46,BUOYANCY,LF,target,right,aqua,imageability,conservative,no,9,1,0.612004000405,-,-
2019_Oct_08,118,001,1,source,47,TERMS,HF,target,right,aqua,imageability,liberal,no,9,1,1.29438682213,-,-
2019_Oct_08,118,001,1,recog,0,MORNING,HF,lure,-,-,-,liberal,no,m,1,1.1531778875,1,179
2019_Oct_08,118,001,1,recog,1,VEERED,LF,lure,-,-,-,liberal,no,m,1,0.658932501969,1,180
2019_Oct_08,118,001,1,recog,2,GERANIUMS,LF,target,right,aqua,imageability,conservative,no,z,1,0.741426185347,1,181
2019_Oct_08,118,001,1,recog,3,NOTHING,HF,lure,-,-,-,liberal,no,m,1,0.78842910793,1,182
2019_Oct_08,118,001,1,recog,4,POTASH,LF,target,left,yellow,pleasantness,conservative,no,z,1,0.553134774633,1,183
2019_Oct_08,118,001,1,recog,5,REACHED,HF,lure,-,-,-,conservative,no,m,1,0.81200554015,3,186
2019_Oct_08,118,001,1,recog,6,NEARLY,HF,lure,-,-,-,liberal,no,m,1,1.02369374614,1,187
2019_Oct_08,118,001,1,recog,7,BRING,HF,target,right,aqua,imageability,liberal,no,z,1,0.788744022489,3,190
2019_Oct_08,118,001,1,recog,8,LIGHT,HF,lure,-,-,-,conservative,no,m,1,0.659048349467,3,193
2019_Oct_08,118,001,1,recog,9,COVER,HF,lure,-,-,-,liberal,no,m,1,0.764972555874,1,194
2019_Oct_08,118,001,1,recog,10,FORCE,HF,lure,-,-,-,conservative,no,m,1,0.612086486756,3,197
2019_Oct_08,118,001,1,recog,11,EMACIATED,LF,lure,-,-,-,conservative,no,m,1,0.800266449245,3,200
2019_Oct_08,118,001,1,recog,12,CHURCH,HF,lure,-,-,-,conservative,no,m,1,0.576735769455,3,203
2019_Oct_08,118,001,1,recog,13,MARKET,HF,target,left,yellow,pleasantness,liberal,no,z,1,0.529774639956,3,206
2019_Oct_08,118,001,1,recog,14,PSEUDONYM,LF,lure,-,-,-,liberal,no,m,1,0.729617439301,1,207
2019_Oct_08,118,001,1,recog,15,JOCKEYS,LF,target,left,yellow,pleasantness,conservative,no,z,1,0.576680778554,1,208
2019_Oct_08,118,001,1,recog,16,PUBLIC,HF,lure,-,-,-,conservative,no,m,1,0.553270052249,3,211
2019_Oct_08,118,001,1,recog,17,SIMILAR,HF,target,right,aqua,imageability,conservative,no,z,1,0.564898794746,1,212
2019_Oct_08,118,001,1,recog,18,BYGONE,LF,target,left,yellow,pleasantness,conservative,no,z,1,0.506185743132,1,213
2019_Oct_08,118,001,1,recog,19,ROSEBUD,LF,lure,-,-,-,conservative,no,m,1,0.623821911601,3,216
2019_Oct_08,118,001,1,recog,20,PACIFISM,LF,target,right,aqua,imageability,liberal,yes,m,0,0.941621659669,-3,213
2019_Oct_08,118,001,1,recog,21,STOOD,HF,target,right,aqua,imageability,liberal,yes,m,0,1.23551539672,-3,210
2019_Oct_08,118,001,1,recog,22,AUBURN,LF,target,right,aqua,imageability,conservative,no,m,0,0.941587198705,-1,209
2019_Oct_08,118,001,1,recog,23,MOGUL,LF,target,right,aqua,imageability,conservative,no,z,1,0.717942137841,1,210
2019_Oct_08,118,001,1,recog,24,ALTHOUGH,HF,lure,-,-,-,conservative,no,m,1,1.94159636386,3,213
2019_Oct_08,118,001,1,recog,25,LOBBIES,LF,target,left,yellow,pleasantness,conservative,no,z,1,0.965024320642,1,214
2019_Oct_08,118,001,1,recog,26,OBSCURELY,LF,target,right,aqua,imageability,conservative,no,m,0,1.24739379791,-1,213
2019_Oct_08,118,001,1,recog,27,HOPPER,LF,lure,-,-,-,conservative,no,m,1,3.6356214925,3,216
2019_Oct_08,118,001,1,recog,28,YEOMAN,LF,lure,-,-,-,liberal,no,m,1,0.529794070075,1,217
2019_Oct_08,118,001,1,recog,29,COWARDS,LF,lure,-,-,-,conservative,no,m,1,0.517896605375,3,220
2019_Oct_08,118,001,1,recog,30,DOGMAS,LF,target,left,yellow,pleasantness,liberal,no,z,1,0.670886423993,3,223
2019_Oct_08,118,001,1,recog,31,CAPITAL,HF,target,right,aqua,imageability,conservative,no,z,1,0.541530228131,1,224
2019_Oct_08,118,001,1,recog,32,LIVED,HF,target,left,yellow,pleasantness,conservative,no,z,1,0.506076127937,1,225
2019_Oct_08,118,001,1,recog,33,LETTER,HF,target,right,aqua,imageability,conservative,no,z,1,0.588584108949,1,226
2019_Oct_08,118,001,1,recog,34,CHEEKBONE,LF,lure,-,-,-,liberal,no,m,1,0.670799171764,1,227
2019_Oct_08,118,001,1,recog,35,HAGGLING,LF,target,right,aqua,imageability,conservative,no,m,0,1.36505489558,-1,226
2019_Oct_08,118,001,1,recog,36,INVOLVED,HF,target,left,yellow,pleasantness,liberal,no,z,1,2.34153712032,3,229
2019_Oct_08,118,001,1,recog,37,WHATEVER,HF,target,right,aqua,imageability,conservative,no,m,0,0.835632197392,-1,228
2019_Oct_08,118,001,1,recog,38,CORNER,HF,lure,-,-,-,conservative,no,m,1,0.929696332913,3,231
2019_Oct_08,118,001,1,recog,39,INROADS,LF,target,right,aqua,imageability,liberal,no,z,1,0.682761525726,3,234
2019_Oct_08,118,001,1,recog,40,STAFF,HF,lure,-,-,-,conservative,no,m,1,0.965068679969,3,237
2019_Oct_08,118,001,1,recog,41,LUNACY,LF,target,left,yellow,pleasantness,conservative,no,z,1,0.600301936706,1,238
2019_Oct_08,118,001,1,recog,42,TROUBLE,HF,target,left,yellow,pleasantness,conservative,no,z,1,0.776794866343,1,239
2019_Oct_08,118,001,1,recog,43,SUSPEND,LF,lure,-,-,-,conservative,no,m,1,0.623727327252,3,242
2019_Oct_08,118,001,1,recog,44,RUPTURE,LF,lure,-,-,-,liberal,no,m,1,0.576736136061,1,243
2019_Oct_08,118,001,1,recog,45,EXPECT,HF,target,right,aqua,imageability,liberal,no,m,0,0.812159881278,-3,240
2019_Oct_08,118,001,1,recog,46,SOLEMNITY,LF,target,right,aqua,imageability,liberal,no,z,1,0.917947710252,3,243
2019_Oct_08,118,001,1,recog,47,UNLESS,HF,target,left,yellow,pleasantness,liberal,no,z,1,0.60026857556,3,246
2019_Oct_08,118,001,1,recog,48,BOLDNESS,LF,lure,-,-,-,conservative,yes,m,1,0.976790906998,3,249
2019_Oct_08,118,001,1,recog,49,UNEARTHED,LF,lure,-,-,-,liberal,no,m,1,1.23536105559,1,250
2019_Oct_08,118,001,1,recog,50,RANGE,HF,lure,-,-,-,liberal,no,m,1,0.588569444709,1,251
2019_Oct_08,118,001,1,recog,51,RAKING,LF,lure,-,-,-,conservative,no,m,1,0.470811196441,3,254
2019_Oct_08,118,001,1,recog,52,ERUDITE,LF,lure,-,-,-,conservative,no,m,1,0.447252361309,3,257
2019_Oct_08,118,001,1,recog,53,TERMS,HF,target,right,aqua,imageability,liberal,no,z,1,0.553164103113,3,260
2019_Oct_08,118,001,1,recog,54,ORIGINALS,LF,target,left,yellow,pleasantness,liberal,no,z,1,0.588233633608,3,263
2019_Oct_08,118,001,1,recog,55,MOUTH,HF,target,left,yellow,pleasantness,conservative,no,z,1,0.718039288432,1,264
2019_Oct_08,118,001,1,recog,56,MIDDLE,HF,target,left,yellow,pleasantness,conservative,no,m,0,1.14150405246,-1,263
2019_Oct_08,118,001,1,recog,57,FREEDOM,HF,target,left,yellow,pleasantness,liberal,no,z,1,0.647276264021,3,266
2019_Oct_08,118,001,1,recog,58,SPICED,LF,target,left,yellow,pleasantness,conservative,no,z,1,0.7179091433,1,267
2019_Oct_08,118,001,1,recog,59,RUNNING,HF,target,right,aqua,imageability,conservative,no,z,1,0.518061211472,1,268
2019_Oct_08,118,001,1,recog,60,PONCE,LF,target,right,aqua,imageability,liberal,no,m,0,0.694344442473,-3,265
2019_Oct_08,118,001,1,recog,61,BREAK,HF,target,left,yellow,pleasantness,conservative,no,z,1,0.835853260814,1,266
2019_Oct_08,118,001,1,recog,62,POWER,HF,lure,-,-,-,liberal,no,m,1,1.31823160994,1,267
2019_Oct_08,118,001,1,recog,63,GARDEN,HF,target,right,aqua,imageability,liberal,no,z,1,0.658900973852,3,270
2019_Oct_08,118,001,1,recog,64,ENERGY,HF,target,right,aqua,imageability,conservative,no,z,1,0.776808064159,1,271
2019_Oct_08,118,001,1,recog,65,MOVED,HF,lure,-,-,-,conservative,no,m,1,0.776960938863,3,274
2019_Oct_08,118,001,1,recog,66,PORCHES,LF,lure,-,-,-,liberal,no,m,1,0.753430699,1,275
2019_Oct_08,118,001,1,recog,67,ACCORDING,HF,lure,-,-,-,conservative,no,m,1,1.07086457427,3,278
2019_Oct_08,118,001,1,recog,68,SMEARING,LF,lure,-,-,-,conservative,no,m,1,0.906163893414,3,281
2019_Oct_08,118,001,1,recog,69,ASTERN,LF,lure,-,-,-,liberal,yes,z,0,1.10592310659,-1,280
2019_Oct_08,118,001,1,recog,70,TABLE,HF,target,left,yellow,pleasantness,conservative,no,m,0,0.835661159267,-1,279
2019_Oct_08,118,001,1,recog,71,BUILDING,HF,lure,-,-,-,liberal,no,m,1,1.04744578264,1,280
2019_Oct_08,118,001,1,recog,72,GAMBITS,LF,target,right,aqua,imageability,liberal,no,z,1,0.564954885465,3,283
2019_Oct_08,118,001,1,recog,73,UPSTART,LF,target,left,yellow,pleasantness,liberal,no,z,1,0.57658289475,3,286
2019_Oct_08,118,001,1,recog,74,HARDLY,HF,lure,-,-,-,liberal,no,m,1,0.647436837451,1,287
2019_Oct_08,118,001,1,recog,75,WANTED,HF,lure,-,-,-,liberal,no,m,1,0.76521341602,1,288
2019_Oct_08,118,001,1,recog,76,USUAL,HF,lure,-,-,-,liberal,no,m,1,0.988537330023,1,289
2019_Oct_08,118,001,1,recog,77,THRASH,LF,target,right,aqua,imageability,liberal,no,z,1,0.553186832685,3,292
2019_Oct_08,118,001,1,recog,78,SPRATS,LF,target,left,yellow,pleasantness,liberal,no,z,1,1.67071815184,3,295
2019_Oct_08,118,001,1,recog,79,MIGHTILY,LF,lure,-,-,-,liberal,no,m,1,0.635533873662,1,296
2019_Oct_08,118,001,1,recog,80,WOMAN,HF,lure,-,-,-,conservative,no,m,1,0.552978233868,3,299
2019_Oct_08,118,001,1,recog,81,MOODILY,LF,lure,-,-,-,conservative,no,m,1,0.659111405699,3,302
2019_Oct_08,118,001,1,recog,82,AMONG,HF,target,right,aqua,imageability,liberal,no,z,1,0.600248778835,3,305
2019_Oct_08,118,001,1,recog,83,ANIMAL,HF,lure,-,-,-,liberal,no,m,1,0.612100417784,1,306
2019_Oct_08,118,001,1,recog,84,ZIGZAG,LF,target,left,yellow,pleasantness,liberal,no,z,1,0.612133778931,3,309
2019_Oct_08,118,001,1,recog,85,MAYBE,HF,target,left,yellow,pleasantness,liberal,no,z,1,0.612016465009,3,312
2019_Oct_08,118,001,1,recog,86,AEROSOL,LF,lure,-,-,-,conservative,no,m,1,0.459143593707,3,315
2019_Oct_08,118,001,1,recog,87,TAKEN,HF,lure,-,-,-,conservative,no,m,1,0.576792593386,3,318
2019_Oct_08,118,001,1,recog,88,EGOISM,LF,target,left,yellow,pleasantness,liberal,no,z,1,0.78866226935,3,321
2019_Oct_08,118,001,1,recog,89,TIRADE,LF,lure,-,-,-,conservative,no,m,1,0.576510673367,3,324
2019_Oct_08,118,001,1,recog,90,CYNIC,LF,lure,-,-,-,liberal,no,m,1,0.517920801371,1,325
2019_Oct_08,118,001,1,recog,91,BUOYANCY,LF,target,right,aqua,imageability,conservative,no,z,1,0.682649344288,1,326
2019_Oct_08,118,001,1,recog,92,HOBBLE,LF,lure,-,-,-,liberal,no,m,1,1.17667916549,1,327
2019_Oct_08,118,001,1,recog,93,ROUND,HF,lure,-,-,-,liberal,no,m,1,0.600264176288,1,328
2019_Oct_08,118,001,1,recog,94,SITTING,HF,target,left,yellow,pleasantness,liberal,no,z,1,0.51795672876,3,331
2019_Oct_08,118,001,1,recog,95,ENLIGHTEN,LF,lure,-,-,-,liberal,no,m,1,0.541438943236,1,332
2019_Oct_08,118,001,2,source,0,FRUGAL,LF,target,left,yellow,pleasantness,conservative,no,1,1,1.8238021882,-,-
2019_Oct_08,118,001,2,source,1,EXUDED,LF,target,left,yellow,pleasantness,conservative,no,1,1,1.16497526876,-,-
2019_Oct_08,118,001,2,source,2,MAILBOX,LF,target,left,yellow,pleasantness,liberal,no,1,1,0.705976117818,-,-
2019_Oct_08,118,001,2,source,3,REQUIRED,HF,target,left,yellow,pleasantness,conservative,yes,3,1,1.00028778571,-,-
2019_Oct_08,118,001,2,source,4,ENOUGH,HF,target,left,yellow,pleasantness,liberal,no,1,1,0.729663998264,-,-
2019_Oct_08,118,001,2,source,5,QUALITY,HF,target,right,aqua,imageability,conservative,no,7,1,0.917999768305,-,-
2019_Oct_08,118,001,2,source,6,FIGURE,HF,target,right,aqua,imageability,conservative,no,9,1,2.23567487033,-,-
2019_Oct_08,118,001,2,source,7,DECIDED,HF,target,left,yellow,pleasantness,conservative,no,1,1,1.28242740101,-,-
2019_Oct_08,118,001,2,source,8,NURTURING,LF,target,left,yellow,pleasantness,liberal,yes,3,1,0.823592122957,-,-
2019_Oct_08,118,001,2,source,9,TRUTH,HF,target,left,yellow,pleasantness,conservative,no,1,1,1.34125263406,-,-
2019_Oct_08,118,001,2,source,10,RAPACIOUS,LF,target,right,aqua,imageability,conservative,no,9,1,2.04713013487,-,-
2019_Oct_08,118,001,2,source,11,SMUDGE,LF,target,right,aqua,imageability,liberal,no,9,1,0.776793033313,-,-
2019_Oct_08,118,001,2,source,12,FAMILY,HF,target,right,aqua,imageability,conservative,no,9,1,0.706250705717,-,-
2019_Oct_08,118,001,2,source,13,SPEAK,HF,target,right,aqua,imageability,liberal,no,9,1,0.600256844167,-,-
2019_Oct_08,118,001,2,source,14,NEWMARKET,LF,target,left,yellow,pleasantness,liberal,no,1,1,1.02384148836,-,-
2019_Oct_08,118,001,2,source,15,ALDER,LF,target,right,aqua,imageability,liberal,no,8,1,1.38828268549,-,-
2019_Oct_08,118,001,2,source,16,COUNCIL,HF,target,right,aqua,imageability,conservative,no,9,1,1.05917240894,-,-
2019_Oct_08,118,001,2,source,17,SWOOPING,LF,target,left,yellow,pleasantness,liberal,no,9,0,0.682405917901,-,-
2019_Oct_08,118,001,2,source,18,HOTEL,HF,target,right,aqua,imageability,liberal,no,9,1,1.12975103053,-,-
2019_Oct_08,118,001,2,source,19,PAVILIONS,LF,target,right,aqua,imageability,conservative,no,9,1,0.776569403649,-,-
2019_Oct_08,118,001,2,source,20,FECKLESS,LF,target,right,aqua,imageability,liberal,no,9,1,0.765011782717,-,-
2019_Oct_08,118,001,2,source,21,MENFOLK,LF,target,right,aqua,imageability,conservative,no,9,1,0.682635046654,-,-
2019_Oct_08,118,001,2,source,22,AFFABLE,LF,target,right,aqua,imageability,conservative,no,2,0,3.08294094271,-,-
2019_Oct_08,118,001,2,source,23,ALMOST,HF,target,right,aqua,imageability,liberal,no,2,0,1.16506032135,-,-
2019_Oct_08,118,001,2,source,24,WINDOW,HF,target,right,aqua,imageability,liberal,no,9,1,0.729507090893,-,-
2019_Oct_08,118,001,2,source,25,LOOKED,HF,target,left,yellow,pleasantness,liberal,no,1,1,1.81214448383,-,-
2019_Oct_08,118,001,2,source,26,MOBILIZE,LF,target,right,aqua,imageability,liberal,no,9,1,1.5298563931,-,-
2019_Oct_08,118,001,2,source,27,INDEED,HF,target,left,yellow,pleasantness,conservative,no,1,1,1.58829082415,-,-
2019_Oct_08,118,001,2,source,28,PLUGGING,LF,target,right,aqua,imageability,conservative,no,8,1,1.65938672681,-,-
2019_Oct_08,118,001,2,source,29,ADDED,HF,target,left,yellow,pleasantness,liberal,no,1,1,1.32954763752,-,-
2019_Oct_08,118,001,2,source,30,PARENTS,HF,target,left,yellow,pleasantness,liberal,yes,3,1,0.918027630361,-,-
2019_Oct_08,118,001,2,source,31,OBESE,LF,target,right,aqua,imageability,liberal,no,9,1,0.89421913654,-,-
2019_Oct_08,118,001,2,source,32,GUESSWORK,LF,target,right,aqua,imageability,conservative,no,9,1,1.14153521397,-,-
2019_Oct_08,118,001,2,source,33,ANTELOPES,LF,target,left,yellow,pleasantness,conservative,no,1,1,1.03561540684,-,-
2019_Oct_08,118,001,2,source,34,GIRLS,HF,target,right,aqua,imageability,conservative,no,9,1,1.17684780425,-,-
2019_Oct_08,118,001,2,source,35,USING,HF,target,right,aqua,imageability,conservative,no,8,1,1.24714890509,-,-
2019_Oct_08,118,001,2,source,36,BEHIND,HF,target,left,yellow,pleasantness,liberal,no,1,1,1.44740266977,-,-
2019_Oct_08,118,001,2,source,37,BUBBLED,LF,target,right,aqua,imageability,liberal,no,9,1,1.1412195662,-,-
2019_Oct_08,118,001,2,source,38,SUCCESS,HF,target,left,yellow,pleasantness,conservative,no,1,1,0.835573907038,-,-
2019_Oct_08,118,001,2,source,39,MEETING,HF,target,right,aqua,imageability,liberal,no,9,1,1.64733858704,-,-
2019_Oct_08,118,001,2,source,40,ROVERS,LF,target,left,yellow,pleasantness,conservative,no,1,1,0.859126876473,-,-
2019_Oct_08,118,001,2,source,41,FURTHER,HF,target,left,yellow,pleasantness,conservative,no,1,1,0.882661149002,-,-
2019_Oct_08,118,001,2,source,42,BOASTS,LF,target,left,yellow,pleasantness,liberal,no,1,1,0.823908870546,-,-
2019_Oct_08,118,001,2,source,43,ELICIT,LF,target,left,yellow,pleasantness,conservative,no,1,1,0.623774619426,-,-
2019_Oct_08,118,001,2,source,44,DIFFERENT,HF,target,right,aqua,imageability,liberal,no,8,1,1.16477070261,-,-
2019_Oct_08,118,001,2,source,45,ENHANCES,LF,target,left,yellow,pleasantness,conservative,yes,9,0,0.741288341489,-,-
2019_Oct_08,118,001,2,source,46,SIPHON,LF,target,left,yellow,pleasantness,liberal,no,1,1,2.21209513866,-,-
2019_Oct_08,118,001,2,source,47,HUNDRED,HF,target,left,yellow,pleasantness,liberal,no,1,1,0.882463914971,-,-
2019_Oct_08,118,001,2,recog,0,BIBLES,LF,lure,-,-,-,liberal,no,m,1,1.07075495908,1,333
2019_Oct_08,118,001,2,recog,1,RINSING,LF,lure,-,-,-,conservative,no,m,1,0.70621184548,3,336
2019_Oct_08,118,001,2,recog,2,EDUCATION,HF,lure,-,-,-,conservative,no,m,1,0.518134532673,3,339
2019_Oct_08,118,001,2,recog,3,PREPARED,HF,lure,-,-,-,liberal,no,m,1,0.612031495855,1,340
2019_Oct_08,118,001,2,recog,4,MAILBOX,LF,target,left,yellow,pleasantness,liberal,no,z,1,0.659146599876,3,343
2019_Oct_08,118,001,2,recog,5,SUCCESS,HF,target,left,yellow,pleasantness,conservative,no,z,1,0.55298080011,1,344
2019_Oct_08,118,001,2,recog,6,NEWMARKET,LF,target,left,yellow,pleasantness,liberal,no,z,1,0.541257473263,3,347
2019_Oct_08,118,001,2,recog,7,DIFFERENT,HF,target,right,aqua,imageability,liberal,no,z,1,0.43559905621,3,350
2019_Oct_08,118,001,2,recog,8,ELICIT,LF,target,left,yellow,pleasantness,conservative,no,z,1,0.482666868056,1,351
2019_Oct_08,118,001,2,recog,9,CLOSE,HF,lure,-,-,-,conservative,no,m,1,0.600360227061,3,354
2019_Oct_08,118,001,2,recog,10,PUTTS,LF,lure,-,-,-,conservative,no,m,1,0.565004743882,3,357
2019_Oct_08,118,001,2,recog,11,MOTHER,HF,lure,-,-,-,liberal,no,m,1,0.929743258482,1,358
2019_Oct_08,118,001,2,recog,12,HOTEL,HF,target,right,aqua,imageability,liberal,no,z,1,0.576469613495,3,361
2019_Oct_08,118,001,2,recog,13,HEALTH,HF,lure,-,-,-,liberal,no,m,1,0.588641299486,1,362
2019_Oct_08,118,001,2,recog,14,SIPHON,LF,target,left,yellow,pleasantness,liberal,no,z,1,0.57653340294,3,365
2019_Oct_08,118,001,2,recog,15,GUESSWORK,LF,target,right,aqua,imageability,conservative,no,z,1,0.494498343674,1,366
2019_Oct_08,118,001,2,recog,16,FRUGAL,LF,target,left,yellow,pleasantness,conservative,no,z,1,0.565017941698,1,367
2019_Oct_08,118,001,2,recog,17,REQUIRED,HF,target,left,yellow,pleasantness,conservative,no,z,1,0.459080537474,1,368
2019_Oct_08,118,001,2,recog,18,MOMENT,HF,lure,-,-,-,liberal,no,m,1,0.68250050225,1,369
2019_Oct_08,118,001,2,recog,19,SWOOPING,LF,target,left,yellow,pleasantness,liberal,no,z,1,0.612164207229,3,372
2019_Oct_08,118,001,2,recog,20,ANCHORAGE,LF,lure,-,-,-,conservative,no,m,1,0.706228709356,3,375
2019_Oct_08,118,001,2,recog,21,FECKLESS,LF,target,right,aqua,imageability,liberal,no,z,1,0.506218004461,3,378
2019_Oct_08,118,001,2,recog,22,SOCIAL,HF,lure,-,-,-,conservative,no,m,1,0.564955252071,3,381
2019_Oct_08,118,001,2,recog,23,ANTELOPES,LF,target,left,yellow,pleasantness,conservative,yes,m,0,0.41203362217,-1,380
2019_Oct_08,118,001,2,recog,24,BABBLED,LF,lure,-,-,-,liberal,no,m,1,0.882723472023,1,381
2019_Oct_08,118,001,2,recog,25,IRRIGATED,LF,lure,-,-,-,liberal,no,m,1,0.694365339015,1,382
2019_Oct_08,118,001,2,recog,26,QUALITY,HF,target,right,aqua,imageability,conservative,no,z,1,0.576693243158,1,383
2019_Oct_08,118,001,2,recog,27,UPDATE,LF,lure,-,-,-,liberal,no,m,1,0.717740504538,1,384
2019_Oct_08,118,001,2,recog,28,NOBLEMAN,LF,lure,-,-,-,liberal,no,m,1,0.529806901285,1,385
2019_Oct_08,118,001,2,recog,29,RAPACIOUS,LF,target,right,aqua,imageability,conservative,no,z,1,0.564970649523,1,386
2019_Oct_08,118,001,2,recog,30,HAVING,HF,lure,-,-,-,conservative,no,m,1,0.541466805293,3,389
2019_Oct_08,118,001,2,recog,31,COPIOUSLY,LF,lure,-,-,-,liberal,no,m,1,0.494423556049,1,390
2019_Oct_08,118,001,2,recog,32,ALDER,LF,target,right,aqua,imageability,liberal,no,m,0,0.517682507468,-3,387
2019_Oct_08,118,001,2,recog,33,PARENTS,HF,target,left,yellow,pleasantness,liberal,no,z,1,0.717743803992,3,390
2019_Oct_08,118,001,2,recog,34,BIDDER,LF,lure,-,-,-,liberal,no,m,1,0.576782695023,1,391
2019_Oct_08,118,001,2,recog,35,BOASTS,LF,target,left,yellow,pleasantness,liberal,yes,m,0,0.965021021188,-3,388
2019_Oct_08,118,001,2,recog,36,TONAL,LF,lure,-,-,-,conservative,no,m,1,0.482831474152,3,391
2019_Oct_08,118,001,2,recog,37,DECIDED,HF,target,left,yellow,pleasantness,conservative,no,z,1,0.647415940909,1,392
2019_Oct_08,118,001,2,recog,38,LOOKED,HF,target,left,yellow,pleasantness,liberal,no,z,1,0.541404482272,3,395
2019_Oct_08,118,001,2,recog,39,MENFOLK,LF,target,right,aqua,imageability,conservative,no,z,1,0.576824488108,1,396
2019_Oct_08,118,001,2,recog,40,ALMOST,HF,target,right,aqua,imageability,liberal,no,z,1,0.682666208165,3,399
2019_Oct_08,118,001,2,recog,41,GIRLS,HF,target,right,aqua,imageability,conservative,no,z,1,0.482376882705,1,400
2019_Oct_08,118,001,2,recog,42,INDEED,HF,target,left,yellow,pleasantness,conservative,no,z,1,0.529684454879,1,401
2019_Oct_08,118,001,2,recog,43,SMUDGE,LF,target,right,aqua,imageability,liberal,no,z,1,0.494421356413,3,404
2019_Oct_08,118,001,2,recog,44,LEVEL,HF,lure,-,-,-,liberal,no,m,1,0.65891490488,1,405
2019_Oct_08,118,001,2,recog,45,MOBILIZE,LF,target,right,aqua,imageability,liberal,no,z,1,0.588626635246,3,408
2019_Oct_08,118,001,2,recog,46,ENTIRELY,HF,lure,-,-,-,liberal,no,m,1,0.659134868484,1,409
2019_Oct_08,118,001,2,recog,47,ROVERS,LF,target,left,yellow,pleasantness,conservative,no,z,1,0.670815302428,1,410
2019_Oct_08,118,001,2,recog,48,ADDED,HF,target,left,yellow,pleasantness,liberal,no,z,1,0.506150915562,3,413
2019_Oct_08,118,001,2,recog,49,FURTHER,HF,target,left,yellow,pleasantness,conservative,no,z,1,0.612079154636,1,414
2019_Oct_08,118,001,2,recog,50,BEHIND,HF,target,left,yellow,pleasantness,liberal,no,z,1,0.54142574542,3,417
2019_Oct_08,118,001,2,recog,51,SEPULCHRE,LF,lure,-,-,-,liberal,no,m,1,0.623773519608,1,418
2019_Oct_08,118,001,2,recog,52,GENERAL,HF,lure,-,-,-,liberal,no,m,1,0.741532501089,1,419
2019_Oct_08,118,001,2,recog,53,FAMILY,HF,target,right,aqua,imageability,conservative,no,z,1,0.541584119214,1,420
2019_Oct_08,118,001,2,recog,54,COUNCIL,HF,target,right,aqua,imageability,conservative,yes,m,0,0.741400156321,-1,419
2019_Oct_08,118,001,2,recog,55,TRUTH,HF,target,left,yellow,pleasantness,conservative,no,m,0,2.12965387994,-1,418
2019_Oct_08,118,001,2,recog,56,NURTURING,LF,target,left,yellow,pleasantness,liberal,no,m,0,0.76492892976,-3,415
2019_Oct_08,118,001,2,recog,57,IRONICAL,LF,lure,-,-,-,conservative,no,m,1,0.517908703373,3,418
2019_Oct_08,118,001,2,recog,58,ENHANCES,LF,target,left,yellow,pleasantness,conservative,no,m,0,0.788548988094,-1,417
2019_Oct_08,118,001,2,recog,59,COILING,LF,lure,-,-,-,liberal,no,m,1,0.812195442061,1,418
2019_Oct_08,118,001,2,recog,60,BUBBLED,LF,target,right,aqua,imageability,liberal,no,z,1,0.694380736468,3,421
2019_Oct_08,118,001,2,recog,61,CONCERNED,HF,lure,-,-,-,conservative,no,m,1,0.518127567158,3,424
2019_Oct_08,118,001,2,recog,62,FACILE,LF,lure,-,-,-,conservative,no,m,1,0.718045887341,3,427
2019_Oct_08,118,001,2,recog,63,GUARDSMEN,LF,lure,-,-,-,liberal,yes,z,0,0.894137383401,-1,426
2019_Oct_08,118,001,2,recog,64,THOUSAND,HF,lure,-,-,-,conservative,no,m,1,0.741526268787,3,429
2019_Oct_08,118,001,2,recog,65,PAVILIONS,LF,target,right,aqua,imageability,conservative,no,m,0,2.24711187789,-1,428
2019_Oct_08,118,001,2,recog,66,CARRIED,HF,lure,-,-,-,liberal,no,m,1,0.694246192063,1,429
2019_Oct_08,118,001,2,recog,67,WITHIN,HF,lure,-,-,-,conservative,no,m,1,0.482612976973,3,432
2019_Oct_08,118,001,2,recog,68,LEMURS,LF,lure,-,-,-,conservative,no,m,1,0.682613783506,3,435
2019_Oct_08,118,001,2,recog,69,MINISTER,HF,lure,-,-,-,conservative,no,m,1,0.564740787558,3,438
2019_Oct_08,118,001,2,recog,70,DEGREE,HF,lure,-,-,-,liberal,no,m,1,0.741401622745,1,439
2019_Oct_08,118,001,2,recog,71,CIRCUSES,LF,lure,-,-,-,conservative,no,m,1,0.51784198108,3,442
2019_Oct_08,118,001,2,recog,72,WINDOW,HF,target,right,aqua,imageability,liberal,no,z,1,0.635630657647,3,445
2019_Oct_08,118,001,2,recog,73,SEVEN,HF,lure,-,-,-,conservative,no,m,1,0.588457629877,3,448
2019_Oct_08,118,001,2,recog,74,LOCAL,HF,lure,-,-,-,liberal,no,m,1,0.917971539643,1,449
2019_Oct_08,118,001,2,recog,75,MEETING,HF,target,right,aqua,imageability,liberal,no,z,1,0.588521052716,3,452
2019_Oct_08,118,001,2,recog,76,VIGILANT,LF,lure,-,-,-,liberal,no,m,1,0.670617701791,1,453
2019_Oct_08,118,001,2,recog,77,FIGURE,HF,target,right,aqua,imageability,conservative,no,z,1,0.670807603702,1,454
2019_Oct_08,118,001,2,recog,78,AFFABLE,LF,target,right,aqua,imageability,conservative,no,z,1,0.964964930469,1,455
2019_Oct_08,118,001,2,recog,79,GNARLED,LF,lure,-,-,-,conservative,no,m,1,0.647493294776,3,458
2019_Oct_08,118,001,2,recog,80,DWELT,LF,lure,-,-,-,liberal,no,m,1,0.870679731527,1,459
2019_Oct_08,118,001,2,recog,81,BRUISING,LF,lure,-,-,-,conservative,no,m,1,0.612119481297,3,462
2019_Oct_08,118,001,2,recog,82,FUNNILY,LF,lure,-,-,-,conservative,no,m,1,0.682695536645,3,465
2019_Oct_08,118,001,2,recog,83,CLEAR,HF,lure,-,-,-,liberal,no,m,1,0.459132228921,1,466
2019_Oct_08,118,001,2,recog,84,PIECE,HF,lure,-,-,-,conservative,no,m,1,0.470615428834,3,469
2019_Oct_08,118,001,2,recog,85,SPEAK,HF,target,right,aqua,imageability,liberal,no,z,1,0.553138807299,3,472
2019_Oct_08,118,001,2,recog,86,SOMEONE,HF,lure,-,-,-,conservative,no,m,1,0.541458006749,3,475
2019_Oct_08,118,001,2,recog,87,ALLOWED,HF,lure,-,-,-,liberal,no,m,1,0.494389828297,1,476
2019_Oct_08,118,001,2,recog,88,LANGUAGE,HF,lure,-,-,-,conservative,no,m,1,0.482620675699,3,479
2019_Oct_08,118,001,2,recog,89,USING,HF,target,right,aqua,imageability,conservative,no,z,1,0.576474379373,1,480
2019_Oct_08,118,001,2,recog,90,HUNDRED,HF,target,left,yellow,pleasantness,liberal,no,m,0,0.447350611719,-3,477
2019_Oct_08,118,001,2,recog,91,EXUDED,LF,target,left,yellow,pleasantness,conservative,no,m,0,0.694685752664,-1,476
2019_Oct_08,118,001,2,recog,92,OBESE,LF,target,right,aqua,imageability,liberal,no,m,0,0.470917878788,-3,473
2019_Oct_08,118,001,2,recog,93,PLUGGING,LF,target,right,aqua,imageability,conservative,no,z,1,0.670832166304,1,474
2019_Oct_08,118,001,2,recog,94,TUFTS,LF,lure,-,-,-,conservative,no,m,1,0.600268942166,3,477
2019_Oct_08,118,001,2,recog,95,ENOUGH,HF,target,left,yellow,pleasantness,liberal,no,z,1,0.97677697597,3,480
2019_Oct_08,118,001,3,source,0,BLEACH,LF,target,left,yellow,pleasantness,liberal,yes,7,0,1.44711451745,-,-
2019_Oct_08,118,001,3,source,1,SERIOUS,HF,target,right,aqua,imageability,liberal,no,9,1,2.48287583348,-,-
2019_Oct_08,118,001,3,source,2,ASKED,HF,target,left,yellow,pleasantness,conservative,no,1,1,0.906003319984,-,-
2019_Oct_08,118,001,3,source,3,LABOUR,HF,target,right,aqua,imageability,liberal,no,9,1,0.917891252927,-,-
2019_Oct_08,118,001,3,source,4,UNION,HF,target,left,yellow,pleasantness,conservative,no,1,1,0.753064459601,-,-
2019_Oct_08,118,001,3,source,5,SPUDS,LF,target,left,yellow,pleasantness,liberal,no,2,1,1.41196396703,-,-
2019_Oct_08,118,001,3,source,6,MIMICKED,LF,target,right,aqua,imageability,liberal,no,8,1,1.2592179414,-,-
2019_Oct_08,118,001,3,source,7,MAGGOT,LF,target,right,aqua,imageability,liberal,no,9,1,1.21208634011,-,-
2019_Oct_08,118,001,3,source,8,UNDER,HF,target,right,aqua,imageability,conservative,no,9,1,0.811943217129,-,-
2019_Oct_08,118,001,3,source,9,OFFER,HF,target,right,aqua,imageability,liberal,no,2,0,1.05913538173,-,-
2019_Oct_08,118,001,3,source,10,MEMBERS,HF,target,left,yellow,pleasantness,liberal,no,9,0,1.17653912199,-,-
2019_Oct_08,118,001,3,source,11,AMICABLY,LF,target,left,yellow,pleasantness,conservative,no,1,1,1.01204007444,-,-
2019_Oct_08,118,001,3,source,12,SLEEP,HF,target,right,aqua,imageability,liberal,no,9,1,1.14154511234,-,-
2019_Oct_08,118,001,3,source,13,ACQUIRES,LF,target,right,aqua,imageability,conservative,no,2,0,1.75324849582,-,-
2019_Oct_08,118,001,3,source,14,MILES,HF,target,left,yellow,pleasantness,conservative,no,1,1,1.4709857009,-,-
2019_Oct_08,118,001,3,source,15,SHIELDING,LF,target,right,aqua,imageability,conservative,no,9,1,0.917995735639,-,-
2019_Oct_08,118,001,3,source,16,BEYOND,HF,target,right,aqua,imageability,conservative,no,9,1,2.8591957984,-,-
2019_Oct_08,118,001,3,source,17,PRACTICE,HF,target,left,yellow,pleasantness,conservative,no,1,1,3.2474359576,-,-
2019_Oct_08,118,001,3,source,18,NOURISH,LF,target,right,aqua,imageability,liberal,no,2,0,2.22390498452,-,-
2019_Oct_08,118,001,3,source,19,MAJOR,HF,target,left,yellow,pleasantness,liberal,no,2,1,4.11824510104,-,-
2019_Oct_08,118,001,3,source,20,PASSED,HF,target,left,yellow,pleasantness,liberal,no,1,1,0.823617785377,-,-
2019_Oct_08,118,001,3,source,21,WHETHER,HF,target,left,yellow,pleasantness,conservative,no,1,1,0.941433590789,-,-
2019_Oct_08,118,001,3,source,22,SCENARIOS,LF,target,left,yellow,pleasantness,conservative,no,1,1,0.847170754813,-,-
2019_Oct_08,118,001,3,source,23,RAVAGES,LF,target,right,aqua,imageability,conservative,no,9,1,1.14161403426,-,-
2019_Oct_08,118,001,3,source,24,TODAY,HF,target,right,aqua,imageability,conservative,no,9,1,0.847358457087,-,-
2019_Oct_08,118,001,3,source,25,SAPLINGS,LF,target,left,yellow,pleasantness,conservative,no,8,0,1.51765794487,-,-
2019_Oct_08,118,001,3,source,26,VARIOUS,HF,target,right,aqua,imageability,conservative,no,7,1,2.40034658932,-,-
2019_Oct_08,118,001,3,source,27,CALLED,HF,target,left,yellow,pleasantness,liberal,yes,7,0,0.765124330761,-,-
2019_Oct_08,118,001,3,source,28,CUFFED,LF,target,right,aqua,imageability,liberal,no,9,1,0.953303560038,-,-
2019_Oct_08,118,001,3,source,29,PATCHY,LF,target,left,yellow,pleasantness,liberal,no,1,1,1.482639006,-,-
2019_Oct_08,118,001,3,source,30,SAYING,HF,target,left,yellow,pleasantness,conservative,no,1,1,1.08266232214,-,-
2019_Oct_08,118,001,3,source,31,RATHER,HF,target,right,aqua,imageability,conservative,no,7,1,2.32979802942,-,-
2019_Oct_08,118,001,3,source,32,LAGER,LF,target,right,aqua,imageability,liberal,no,8,1,1.61199923453,-,-
2019_Oct_08,118,001,3,source,33,DEVELOPED,HF,target,left,yellow,pleasantness,liberal,no,1,1,2.7415757606,-,-
2019_Oct_08,118,001,3,source,34,PEWTER,LF,target,left,yellow,pleasantness,conservative,no,8,0,1.48244067215,-,-
2019_Oct_08,118,001,3,source,35,BENIGNLY,LF,target,left,yellow,pleasantness,conservative,no,1,1,1.24750267989,-,-
2019_Oct_08,118,001,3,source,36,OPENED,HF,target,left,yellow,pleasantness,liberal,no,1,1,0.694189734739,-,-
2019_Oct_08,118,001,3,source,37,ARRIVED,HF,target,right,aqua,imageability,liberal,no,8,1,1.47074410754,-,-
2019_Oct_08,118,001,3,source,38,TOTAL,HF,target,right,aqua,imageability,conservative,no,8,1,1.28258724123,-,-
2019_Oct_08,118,001,3,source,39,INFECT,LF,target,right,aqua,imageability,conservative,no,9,1,0.847316664003,-,-
2019_Oct_08,118,001,3,source,40,JABBED,LF,target,left,yellow,pleasantness,liberal,no,1,1,0.965071612817,-,-
2019_Oct_08,118,001,3,source,41,KETCHUP,LF,target,left,yellow,pleasantness,liberal,no,1,1,0.623747490582,-,-
2019_Oct_08,118,001,3,source,42,HIPPY,LF,target,right,aqua,imageability,conservative,no,9,1,0.847314097761,-,-
2019_Oct_08,118,001,3,source,43,DODGED,LF,target,right,aqua,imageability,liberal,no,9,1,0.917730312891,-,-
2019_Oct_08,118,001,3,source,44,QUICKLY,HF,target,right,aqua,imageability,liberal,yes,7,1,0.764988319933,-,-
2019_Oct_08,118,001,3,source,45,VIOLATING,LF,target,right,aqua,imageability,conservative,yes,7,1,0.459041677237,-,-
2019_Oct_08,118,001,3,source,46,DENIALS,LF,target,left,yellow,pleasantness,conservative,no,1,1,1.72978534485,-,-
2019_Oct_08,118,001,3,source,47,INUNDATED,LF,target,left,yellow,pleasantness,liberal,no,1,1,1.0001649727,-,-
2019_Oct_08,118,001,3,recog,0,BEYOND,HF,target,right,aqua,imageability,conservative,no,z,1,1.30611308182,1,481
2019_Oct_08,118,001,3,recog,1,BLEACH,LF,target,left,yellow,pleasantness,liberal,no,z,1,0.964975195438,3,484
2019_Oct_08,118,001,3,recog,2,GRIEVE,LF,lure,-,-,-,conservative,no,m,1,0.623790750091,3,487
2019_Oct_08,118,001,3,recog,3,OPENED,HF,target,left,yellow,pleasantness,liberal,no,z,1,0.57680139193,3,490
2019_Oct_08,118,001,3,recog,4,DODGED,LF,target,right,aqua,imageability,liberal,no,z,1,0.670640064757,3,493
2019_Oct_08,118,001,3,recog,5,YOUNG,HF,lure,-,-,-,liberal,no,m,1,0.623721461556,1,494
2019_Oct_08,118,001,3,recog,6,DEVELOPED,HF,target,left,yellow,pleasantness,liberal,no,z,1,0.529723681721,3,497
2019_Oct_08,118,001,3,recog,7,SAPLINGS,LF,target,left,yellow,pleasantness,conservative,no,z,1,0.64733785383,1,498
2019_Oct_08,118,001,3,recog,8,MIMICKED,LF,target,right,aqua,imageability,liberal,no,z,1,0.541484402381,3,501
2019_Oct_08,118,001,3,recog,9,AFIELD,LF,lure,-,-,-,conservative,no,m,1,0.670815302428,3,504
2019_Oct_08,118,001,3,recog,10,OFTEN,HF,lure,-,-,-,conservative,no,m,1,0.741451847768,3,507
2019_Oct_08,118,001,3,recog,11,UNDER,HF,target,right,aqua,imageability,conservative,no,z,1,0.600267842348,1,508
2019_Oct_08,118,001,3,recog,12,UNION,HF,target,left,yellow,pleasantness,conservative,no,z,1,0.612064857002,1,509
2019_Oct_08,118,001,3,recog,13,INUNDATED,LF,target,left,yellow,pleasantness,liberal,no,z,1,0.529491986726,3,512
2019_Oct_08,118,001,3,recog,14,ACQUIRES,LF,target,right,aqua,imageability,conservative,no,z,1,0.470789933293,1,513
2019_Oct_08,118,001,3,recog,15,SENSE,HF,lure,-,-,-,conservative,no,m,1,0.682687104707,3,516
2019_Oct_08,118,001,3,recog,16,MAUSOLEUM,LF,lure,-,-,-,liberal,no,m,1,0.600275174468,1,517
2019_Oct_08,118,001,3,recog,17,ALONE,HF,lure,-,-,-,conservative,no,m,1,0.694454790881,3,520
2019_Oct_08,118,001,3,recog,18,LABOUR,HF,target,right,aqua,imageability,liberal,no,z,1,0.623671969745,3,523
2019_Oct_08,118,001,3,recog,19,SECOND,HF,lure,-,-,-,conservative,no,m,1,0.565082097749,3,526
2019_Oct_08,118,001,3,recog,20,SUPPORT,HF,lure,-,-,-,liberal,no,m,1,0.965155932199,1,527
2019_Oct_08,118,001,3,recog,21,SHIELDING,LF,target,right,aqua,imageability,conservative,no,m,0,0.752991505006,-1,526
2019_Oct_08,118,001,3,recog,22,AMICABLY,LF,target,left,yellow,pleasantness,conservative,no,z,1,0.623790016879,1,527
2019_Oct_08,118,001,3,recog,23,MAGGOT,LF,target,right,aqua,imageability,liberal,no,z,1,0.564980914491,3,530
2019_Oct_08,118,001,3,recog,24,APPEARED,HF,lure,-,-,-,liberal,no,m,1,0.741490341398,1,531
2019_Oct_08,118,001,3,recog,25,ALIAS,LF,lure,-,-,-,liberal,no,m,1,0.564967350069,1,532
2019_Oct_08,118,001,3,recog,26,NEEDED,HF,lure,-,-,-,liberal,yes,z,0,1.34148139621,-1,531
2019_Oct_08,118,001,3,recog,27,KETCHUP,LF,target,left,yellow,pleasantness,liberal,no,z,1,0.894408305239,3,534
2019_Oct_08,118,001,3,recog,28,FOCUSES,LF,lure,-,-,-,liberal,no,m,1,1.98850910136,1,535
2019_Oct_08,118,001,3,recog,29,CHAIR,HF,lure,-,-,-,conservative,no,m,1,0.612079521242,3,538
2019_Oct_08,118,001,3,recog,30,JOBLESS,LF,lure,-,-,-,conservative,no,m,1,0.753295054778,3,541
2019_Oct_08,118,001,3,recog,31,BLACK,HF,lure,-,-,-,conservative,no,m,1,0.576739068909,3,544
2019_Oct_08,118,001,3,recog,32,HORDE,LF,lure,-,-,-,liberal,no,m,1,0.553141740147,1,545
2019_Oct_08,118,001,3,recog,33,NOURISH,LF,target,right,aqua,imageability,liberal,no,z,1,0.859106346536,3,548
2019_Oct_08,118,001,3,recog,34,HIPPY,LF,target,right,aqua,imageability,conservative,no,z,1,0.553432092103,1,549
2019_Oct_08,118,001,3,recog,35,WHETHER,HF,target,left,yellow,pleasantness,conservative,no,z,1,0.588327484746,1,550
2019_Oct_08,118,001,3,recog,36,SCENARIOS,LF,target,left,yellow,pleasantness,conservative,no,z,1,0.576685177826,1,551
2019_Oct_08,118,001,3,recog,37,ABETTED,LF,lure,-,-,-,conservative,no,m,1,0.647303026259,3,554
2019_Oct_08,118,001,3,recog,38,CUPID,LF,lure,-,-,-,conservative,no,m,1,0.529681888637,3,557
2019_Oct_08,118,001,3,recog,39,FABLE,LF,lure,-,-,-,conservative,no,m,1,0.67091245302,3,560
2019_Oct_08,118,001,3,recog,40,DOODLE,LF,lure,-,-,-,conservative,yes,m,1,1.07087777209,3,563
2019_Oct_08,118,001,3,recog,41,MAJOR,HF,target,left,yellow,pleasantness,liberal,no,z,1,1.18849341062,3,566
2019_Oct_08,118,001,3,recog,42,INSIDE,HF,lure,-,-,-,conservative,no,z,0,0.84725910686,-3,563
2019_Oct_08,118,001,3,recog,43,HAPPEN,HF,lure,-,-,-,liberal,no,m,1,1.6235348591,1,564
2019_Oct_08,118,001,3,recog,44,COMES,HF,lure,-,-,-,conservative,no,m,1,2.0942518378,3,567
2019_Oct_08,118,001,3,recog,45,SLEEP,HF,target,right,aqua,imageability,liberal,no,z,1,0.553211028682,3,570
2019_Oct_08,118,001,3,recog,46,INFECT,LF,target,right,aqua,imageability,conservative,no,z,1,0.729674996444,1,571
2019_Oct_08,118,001,3,recog,47,OUTSIDE,HF,lure,-,-,-,conservative,no,m,1,0.729791210548,3,574
2019_Oct_08,118,001,3,recog,48,WARDROBES,LF,lure,-,-,-,liberal,no,m,1,0.541205048605,1,575
2019_Oct_08,118,001,3,recog,49,WILDFOWL,LF,lure,-,-,-,liberal,no,m,1,0.529952810475,1,576
2019_Oct_08,118,001,3,recog,50,CUFFED,LF,target,right,aqua,imageability,liberal,no,z,1,0.553190865352,3,579
2019_Oct_08,118,001,3,recog,51,TOTAL,HF,target,right,aqua,imageability,conservative,no,z,1,0.553160070447,1,580
2019_Oct_08,118,001,3,recog,52,VIOLATING,LF,target,right,aqua,imageability,conservative,no,z,1,0.694448191972,1,581
2019_Oct_08,118,001,3,recog,53,DIPLOMAS,LF,lure,-,-,-,liberal,no,m,1,0.647353251282,1,582
2019_Oct_08,118,001,3,recog,54,BOWER,LF,lure,-,-,-,conservative,no,m,1,0.58853901641,3,585
2019_Oct_08,118,001,3,recog,55,FLOOR,HF,lure,-,-,-,liberal,no,z,0,0.529670890457,-1,584
2019_Oct_08,118,001,3,recog,56,DEDICATE,LF,lure,-,-,-,liberal,no,z,0,0.929639875588,-1,583
2019_Oct_08,118,001,3,recog,57,SMALL,HF,lure,-,-,-,liberal,no,m,1,0.741380359596,1,584
2019_Oct_08,118,001,3,recog,58,VARIOUS,HF,target,right,aqua,imageability,conservative,no,m,0,0.541387618395,-1,583
2019_Oct_08,118,001,3,recog,59,FULCRUM,LF,lure,-,-,-,conservative,no,m,1,0.576696542612,3,586
2019_Oct_08,118,001,3,recog,60,TODAY,HF,target,right,aqua,imageability,conservative,no,z,1,0.612036994945,1,587
2019_Oct_08,118,001,3,recog,61,PASSED,HF,target,left,yellow,pleasantness,liberal,no,z,1,0.776744274714,3,590
2019_Oct_08,118,001,3,recog,62,DENIALS,LF,target,left,yellow,pleasantness,conservative,no,z,1,0.612184003953,1,591
2019_Oct_08,118,001,3,recog,63,AGILITY,LF,lure,-,-,-,liberal,no,m,1,0.659023786864,1,592
2019_Oct_08,118,001,3,recog,64,MEMBERS,HF,target,left,yellow,pleasantness,liberal,no,z,1,0.553226059528,3,595
2019_Oct_08,118,001,3,recog,65,DIABETIC,LF,lure,-,-,-,liberal,no,m,1,0.635488414517,1,596
2019_Oct_08,118,001,3,recog,66,FIVER,LF,lure,-,-,-,conservative,no,m,1,0.506279960875,3,599
2019_Oct_08,118,001,3,recog,67,FOLLOWED,HF,lure,-,-,-,liberal,no,m,1,0.647308891955,1,600
2019_Oct_08,118,001,3,recog,68,SAYING,HF,target,left,yellow,pleasantness,conservative,no,z,1,0.694147575048,1,601
2019_Oct_08,118,001,3,recog,69,JABBED,LF,target,left,yellow,pleasantness,liberal,no,z,1,0.588671361179,3,604
2019_Oct_08,118,001,3,recog,70,RAVAGES,LF,target,right,aqua,imageability,conservative,no,z,1,0.576559798572,1,605
2019_Oct_08,118,001,3,recog,71,SPUDS,LF,target,left,yellow,pleasantness,liberal,no,z,1,0.835526614863,3,608
2019_Oct_08,118,001,3,recog,72,SERIOUS,HF,target,right,aqua,imageability,liberal,no,z,1,0.694344809079,3,611
2019_Oct_08,118,001,3,recog,73,RATHER,HF,target,right,aqua,imageability,conservative,no,z,1,0.635561735718,1,612
2019_Oct_08,118,001,3,recog,74,RALLIED,LF,lure,-,-,-,conservative,no,m,1,0.647340786678,3,615
2019_Oct_08,118,001,3,recog,75,WATCH,HF,lure,-,-,-,conservative,no,m,1,0.482738722833,3,618
2019_Oct_08,118,001,3,recog,76,FARAWAY,LF,lure,-,-,-,liberal,no,m,1,0.541472304383,1,619
2019_Oct_08,118,001,3,recog,77,OFFER,HF,target,right,aqua,imageability,liberal,no,z,1,0.659089042733,3,622
2019_Oct_08,118,001,3,recog,78,FOUND,HF,lure,-,-,-,liberal,no,m,1,0.835511950623,1,623
2019_Oct_08,118,001,3,recog,79,NUCLEAR,HF,lure,-,-,-,conservative,no,m,1,0.541187451516,3,626
2019_Oct_08,118,001,3,recog,80,CALLED,HF,target,left,yellow,pleasantness,liberal,no,z,1,0.58850602187,3,629
2019_Oct_08,118,001,3,recog,81,ASKED,HF,target,left,yellow,pleasantness,conservative,no,z,1,0.506082726844,1,630
2019_Oct_08,118,001,3,recog,82,INCLUDING,HF,lure,-,-,-,liberal,no,z,0,0.764802450688,-1,629
2019_Oct_08,118,001,3,recog,83,ARRIVED,HF,target,right,aqua,imageability,liberal,no,z,1,0.58860793834,3,632
2019_Oct_08,118,001,3,recog,84,PATCHY,LF,target,left,yellow,pleasantness,liberal,no,z,1,0.565009143154,3,635
2019_Oct_08,118,001,3,recog,85,MILES,HF,target,left,yellow,pleasantness,conservative,yes,m,0,0.470864720918,-1,634
2019_Oct_08,118,001,3,recog,86,BENIGNLY,LF,target,left,yellow,pleasantness,conservative,no,z,1,0.75328112375,1,635
2019_Oct_08,118,001,3,recog,87,DAUGHTER,HF,lure,-,-,-,liberal,no,m,1,0.682819816081,1,636
2019_Oct_08,118,001,3,recog,88,TRADE,HF,lure,-,-,-,liberal,no,m,1,0.529764374988,1,637
2019_Oct_08,118,001,3,recog,89,CASES,HF,lure,-,-,-,conservative,no,m,1,0.753248862422,3,640
2019_Oct_08,118,001,3,recog,90,LAGER,LF,target,right,aqua,imageability,liberal,no,z,1,0.753180673705,3,643
2019_Oct_08,118,001,3,recog,91,PRACTICE,HF,target,left,yellow,pleasantness,conservative,no,z,1,0.541531694555,1,644
2019_Oct_08,118,001,3,recog,92,KILOWATT,LF,lure,-,-,-,conservative,no,m,1,0.623745657552,3,647
2019_Oct_08,118,001,3,recog,93,WADDLED,LF,lure,-,-,-,liberal,no,m,1,0.670921251563,1,648
2019_Oct_08,118,001,3,recog,94,QUICKLY,HF,target,right,aqua,imageability,liberal,no,z,1,1.22369125322,3,651
2019_Oct_08,118,001,3,recog,95,PEWTER,LF,target,left,yellow,pleasantness,conservative,yes,m,0,0.435579626092,-1,650
2019_Oct_08,118,001,4,source,0,CERTAIN,HF,target,right,aqua,imageability,conservative,no,3,0,2.20038061035,-,-
2019_Oct_08,118,001,4,source,1,PEEKED,LF,target,right,aqua,imageability,conservative,no,7,1,2.89445119814,-,-
2019_Oct_08,118,001,4,source,2,MERELY,HF,target,right,aqua,imageability,conservative,no,8,1,1.94151021144,-,-
2019_Oct_08,118,001,4,source,3,MYSELF,HF,target,right,aqua,imageability,conservative,no,9,1,0.764928196548,-,-
2019_Oct_08,118,001,4,source,4,HELICAL,LF,target,right,aqua,imageability,liberal,no,2,0,3.72987772956,-,-
2019_Oct_08,118,001,4,source,5,EVIDENCE,HF,target,left,yellow,pleasantness,conservative,no,1,1,0.824009320591,-,-
2019_Oct_08,118,001,4,source,6,VIBRATE,LF,target,right,aqua,imageability,conservative,no,9,1,1.15322004719,-,-
2019_Oct_08,118,001,4,source,7,WESTERN,HF,target,left,yellow,pleasantness,liberal,no,1,1,0.717727306722,-,-
2019_Oct_08,118,001,4,source,8,BYPASS,LF,target,right,aqua,imageability,liberal,no,9,1,1.36513884836,-,-
2019_Oct_08,118,001,4,source,9,GULLIBLE,LF,target,right,aqua,imageability,conservative,no,9,1,1.04731307126,-,-
2019_Oct_08,118,001,4,source,10,POINT,HF,target,left,yellow,pleasantness,liberal,no,1,1,0.823606053985,-,-
2019_Oct_08,118,001,4,source,11,HISTORY,HF,target,left,yellow,pleasantness,conservative,yes,3,1,0.964810222735,-,-
2019_Oct_08,118,001,4,source,12,OBVIOUSLY,HF,target,left,yellow,pleasantness,liberal,no,2,1,2.49459256142,-,-
2019_Oct_08,118,001,4,source,13,GETTING,HF,target,right,aqua,imageability,liberal,yes,3,0,0.965009656402,-,-
2019_Oct_08,118,001,4,source,14,CHIEF,HF,target,right,aqua,imageability,liberal,no,9,1,0.812013605482,-,-
2019_Oct_08,118,001,4,source,15,TALKING,HF,target,left,yellow,pleasantness,liberal,no,9,0,1.47086325449,-,-
2019_Oct_08,118,001,4,source,16,TATTERS,LF,target,left,yellow,pleasantness,conservative,no,8,0,2.14160120305,-,-
2019_Oct_08,118,001,4,source,17,VEGAN,LF,target,left,yellow,pleasantness,liberal,no,1,1,1.04739079174,-,-
2019_Oct_08,118,001,4,source,18,SLOWLY,HF,target,right,aqua,imageability,liberal,no,9,1,1.70617921755,-,-
2019_Oct_08,118,001,4,source,19,VOYAGES,LF,target,left,yellow,pleasantness,conservative,no,1,1,0.788591880997,-,-
2019_Oct_08,118,001,4,source,20,APOSTLE,LF,target,left,yellow,pleasantness,liberal,yes,7,0,1.10616360013,-,-
2019_Oct_08,118,001,4,source,21,EARLIER,HF,target,left,yellow,pleasantness,liberal,no,1,1,1.49446828198,-,-
2019_Oct_08,118,001,4,source,22,SARDINES,LF,target,left,yellow,pleasantness,conservative,no,1,1,0.835541279103,-,-
2019_Oct_08,118,001,4,source,23,CULINARY,LF,target,left,yellow,pleasantness,conservative,no,1,1,0.647374881036,-,-
2019_Oct_08,118,001,4,source,24,RIVER,HF,target,left,yellow,pleasantness,conservative,no,1,1,0.564803477184,-,-
2019_Oct_08,118,001,4,source,25,BIKINI,LF,target,left,yellow,pleasantness,liberal,no,1,1,0.600392488389,-,-
2019_Oct_08,118,001,4,source,26,WICKEDLY,LF,target,right,aqua,imageability,liberal,no,8,1,2.67098724064,-,-
2019_Oct_08,118,001,4,source,27,SLACKEN,LF,target,right,aqua,imageability,liberal,no,8,1,1.03564400211,-,-
2019_Oct_08,118,001,4,source,28,SLIGHTLY,HF,target,left,yellow,pleasantness,conservative,no,2,1,2.27086024832,-,-
2019_Oct_08,118,001,4,source,29,DESERTER,LF,target,left,yellow,pleasantness,liberal,no,1,1,1.02387155005,-,-
2019_Oct_08,118,001,4,source,30,JEALOUSLY,LF,target,right,aqua,imageability,conservative,no,9,1,1.07087703888,-,-
2019_Oct_08,118,001,4,source,31,ICONS,LF,target,right,aqua,imageability,conservative,no,9,1,0.670860761573,-,-
2019_Oct_08,118,001,4,source,32,HOSPITAL,HF,target,right,aqua,imageability,conservative,no,9,1,0.588370744254,-,-
2019_Oct_08,118,001,4,source,33,LIKELY,HF,target,right,aqua,imageability,conservative,no,8,1,1.42366089824,-,-
2019_Oct_08,118,001,4,source,34,WREATH,LF,target,right,aqua,imageability,liberal,no,9,1,0.694210631281,-,-
2019_Oct_08,118,001,4,source,35,AVENGE,LF,target,left,yellow,pleasantness,conservative,no,1,1,1.35326044717,-,-
2019_Oct_08,118,001,4,source,36,FUTURE,HF,target,right,aqua,imageability,liberal,no,9,1,0.823895306123,-,-
2019_Oct_08,118,001,4,source,37,POUNDS,HF,target,left,yellow,pleasantness,conservative,yes,7,0,0.682616349748,-,-
2019_Oct_08,118,001,4,source,38,BASIC,HF,target,left,yellow,pleasantness,conservative,no,1,1,1.15326184027,-,-
2019_Oct_08,118,001,4,source,39,WAGGED,LF,target,right,aqua,imageability,liberal,no,9,1,1.22404319499,-,-
2019_Oct_08,118,001,4,source,40,SUING,LF,target,left,yellow,pleasantness,liberal,no,1,1,0.670696155476,-,-
2019_Oct_08,118,001,4,source,41,TURNED,HF,target,right,aqua,imageability,conservative,no,8,1,0.965059148213,-,-
2019_Oct_08,118,001,4,source,42,LODGERS,LF,target,right,aqua,imageability,conservative,no,9,1,0.905987555926,-,-
2019_Oct_08,118,001,4,source,43,HOARD,LF,target,left,yellow,pleasantness,liberal,no,1,1,1.70616088725,-,-
2019_Oct_08,118,001,4,source,44,SPACE,HF,target,left,yellow,pleasantness,liberal,no,1,1,0.670840964848,-,-
2019_Oct_08,118,001,4,source,45,BLUECOATS,LF,target,left,yellow,pleasantness,conservative,no,1,1,0.729637969237,-,-
2019_Oct_08,118,001,4,source,46,THEORY,HF,target,right,aqua,imageability,liberal,no,9,1,1.01178308363,-,-
2019_Oct_08,118,001,4,source,47,QUESTION,HF,target,right,aqua,imageability,liberal,no,9,1,1.01203897462,-,-
2019_Oct_08,118,001,4,recog,0,MERELY,HF,target,right,aqua,imageability,conservative,no,z,1,1.12974626465,1,651
2019_Oct_08,118,001,4,recog,1,OBVIOUSLY,HF,target,left,yellow,pleasantness,liberal,no,z,1,0.659023053652,3,654
2019_Oct_08,118,001,4,recog,2,PICTURE,HF,lure,-,-,-,conservative,no,m,1,0.588471194299,3,657
2019_Oct_08,118,001,4,recog,3,SLOWLY,HF,target,right,aqua,imageability,liberal,no,z,1,0.541486602017,3,660
2019_Oct_08,118,001,4,recog,4,VIBRATE,LF,target,right,aqua,imageability,conservative,no,z,1,0.541439676448,1,661
2019_Oct_08,118,001,4,recog,5,TREES,HF,lure,-,-,-,liberal,no,m,1,0.576917972639,1,662
2019_Oct_08,118,001,4,recog,6,ICONS,LF,target,right,aqua,imageability,conservative,no,z,1,0.494162165967,1,663
2019_Oct_08,118,001,4,recog,7,DURING,HF,lure,-,-,-,conservative,no,m,1,0.647391378307,3,666
2019_Oct_08,118,001,4,recog,8,VOWEL,LF,lure,-,-,-,conservative,no,m,1,0.635809927984,3,669
2019_Oct_08,118,001,4,recog,9,POINT,HF,target,left,yellow,pleasantness,liberal,no,z,1,0.670847197151,3,672
2019_Oct_08,118,001,4,recog,10,TIMES,HF,lure,-,-,-,conservative,yes,m,1,0.741434250679,3,675
2019_Oct_08,118,001,4,recog,11,BIKINI,LF,target,left,yellow,pleasantness,liberal,no,z,1,0.588457996484,3,678
2019_Oct_08,118,001,4,recog,12,SARDINES,LF,target,left,yellow,pleasantness,conservative,no,z,1,0.788536890096,1,679
2019_Oct_08,118,001,4,recog,13,TAVERNS,LF,lure,-,-,-,liberal,no,m,1,0.670878725267,1,680
2019_Oct_08,118,001,4,recog,14,HOURS,HF,lure,-,-,-,liberal,no,m,1,0.659061913889,1,681
2019_Oct_08,118,001,4,recog,15,GOUGED,LF,lure,-,-,-,liberal,no,m,1,0.647489628716,1,682
2019_Oct_08,118,001,4,recog,16,WICKEDLY,LF,target,right,aqua,imageability,liberal,yes,m,0,0.64740750897,-3,679
2019_Oct_08,118,001,4,recog,17,EXCEPT,HF,lure,-,-,-,liberal,no,z,0,0.812208273271,-1,678
2019_Oct_08,118,001,4,recog,18,ANGERS,LF,lure,-,-,-,conservative,no,m,1,1.22379610254,3,681
2019_Oct_08,118,001,4,recog,19,IMMEDIACY,LF,lure,-,-,-,conservative,no,m,1,0.659134501878,3,684
2019_Oct_08,118,001,4,recog,20,RIVER,HF,target,left,yellow,pleasantness,conservative,no,z,1,0.68262624811,1,685
2019_Oct_08,118,001,4,recog,21,TOUSLED,LF,lure,-,-,-,liberal,no,m,1,0.706192415362,1,686
2019_Oct_08,118,001,4,recog,22,ANYONE,HF,lure,-,-,-,conservative,no,m,1,0.623862604868,3,689
2019_Oct_08,118,001,4,recog,23,AVENGE,LF,target,left,yellow,pleasantness,conservative,no,z,1,0.659061913889,1,690
2019_Oct_08,118,001,4,recog,24,POUNDS,HF,target,left,yellow,pleasantness,conservative,no,z,1,0.60029240495,1,691
2019_Oct_08,118,001,4,recog,25,HOSPITAL,HF,target,right,aqua,imageability,conservative,no,z,1,0.423837602338,1,692
2019_Oct_08,118,001,4,recog,26,GETTING,HF,target,right,aqua,imageability,liberal,no,m,0,0.588603172462,-3,689
2019_Oct_08,118,001,4,recog,27,RESEARCH,HF,lure,-,-,-,liberal,no,z,0,1.18851284074,-1,688
2019_Oct_08,118,001,4,recog,28,JEALOUSLY,LF,target,right,aqua,imageability,conservative,no,z,1,0.647329421891,1,689
2019_Oct_08,118,001,4,recog,29,JUMBO,LF,lure,-,-,-,conservative,no,m,1,1.55312450966,3,692
2019_Oct_08,118,001,4,recog,30,INEDIBLE,LF,lure,-,-,-,liberal,no,m,1,0.764997485083,1,693
2019_Oct_08,118,001,4,recog,31,HANDS,HF,lure,-,-,-,conservative,no,m,1,0.753141813468,3,696
2019_Oct_08,118,001,4,recog,32,GULLIBLE,LF,target,right,aqua,imageability,conservative,no,z,1,0.647292761291,1,697
2019_Oct_08,118,001,4,recog,33,WESTERN,HF,target,left,yellow,pleasantness,liberal,no,z,1,0.600334198034,3,700
2019_Oct_08,118,001,4,recog,34,VOYAGES,LF,target,left,yellow,pleasantness,conservative,no,z,1,0.600377457543,1,701
2019_Oct_08,118,001,4,recog,35,APOSTLE,LF,target,left,yellow,pleasantness,liberal,no,z,1,1.00010704895,3,704
2019_Oct_08,118,001,4,recog,36,CHIEF,HF,target,right,aqua,imageability,liberal,no,z,1,0.694567338925,3,707
2019_Oct_08,118,001,4,recog,37,HELICAL,LF,target,right,aqua,imageability,liberal,no,z,1,0.694194500617,3,710
2019_Oct_08,118,001,4,recog,38,ACTION,HF,lure,-,-,-,liberal,no,m,1,0.670818601882,1,711
2019_Oct_08,118,001,4,recog,39,EARLIER,HF,target,left,yellow,pleasantness,liberal,no,z,1,0.635579699412,3,714
2019_Oct_08,118,001,4,recog,40,BLIGHTED,LF,lure,-,-,-,liberal,no,m,1,0.647301559835,1,715
2019_Oct_08,118,001,4,recog,41,FUTURE,HF,target,right,aqua,imageability,liberal,no,z,1,1.01202211074,3,718
2019_Oct_08,118,001,4,recog,42,VALUE,HF,lure,-,-,-,liberal,no,m,1,0.647416307515,1,719
2019_Oct_08,118,001,4,recog,43,TOLERABLY,LF,lure,-,-,-,liberal,no,m,1,0.965066113727,1,720
2019_Oct_08,118,001,4,recog,44,CULINARY,LF,target,left,yellow,pleasantness,conservative,no,z,1,0.647274430991,1,721
2019_Oct_08,118,001,4,recog,45,MYSELF,HF,target,right,aqua,imageability,conservative,no,z,1,0.776774336406,1,722
2019_Oct_08,118,001,4,recog,46,SUING,LF,target,left,yellow,pleasantness,liberal,no,z,1,1.08263446008,3,725
2019_Oct_08,118,001,4,recog,47,SHORT,HF,lure,-,-,-,liberal,no,m,1,0.976797872512,1,726
2019_Oct_08,118,001,4,recog,48,WEBBED,LF,lure,-,-,-,liberal,no,m,1,0.682754926818,1,727
2019_Oct_08,118,001,4,recog,49,BULBOUS,LF,lure,-,-,-,conservative,no,m,1,0.647396144185,3,730
2019_Oct_08,118,001,4,recog,50,CANNOT,HF,lure,-,-,-,conservative,no,m,1,0.470899181882,3,733
2019_Oct_08,118,001,4,recog,51,THEORY,HF,target,right,aqua,imageability,liberal,no,z,1,0.612072189122,3,736
2019_Oct_08,118,001,4,recog,52,HOARD,LF,target,left,yellow,pleasantness,liberal,no,z,1,0.694314014174,3,739
2019_Oct_08,118,001,4,recog,53,CAGED,LF,lure,-,-,-,conservative,no,m,1,0.494491744766,3,742
2019_Oct_08,118,001,4,recog,54,SPACE,HF,target,left,yellow,pleasantness,liberal,no,z,1,0.647381479944,3,745
2019_Oct_08,118,001,4,recog,55,EMBATTLED,LF,lure,-,-,-,conservative,no,m,1,0.600214317871,3,748
2019_Oct_08,118,001,4,recog,56,BLUECOATS,LF,target,left,yellow,pleasantness,conservative,no,z,1,0.647306692319,1,749
2019_Oct_08,118,001,4,recog,57,EVIDENCE,HF,target,left,yellow,pleasantness,conservative,no,m,0,0.553161903477,-1,748
2019_Oct_08,118,001,4,recog,58,VEGAN,LF,target,left,yellow,pleasantness,liberal,no,m,0,1.27088077826,-3,745
2019_Oct_08,118,001,4,recog,59,HATCHES,LF,lure,-,-,-,conservative,no,m,1,0.812068962989,3,748
2019_Oct_08,118,001,4,recog,60,TURNED,HF,target,right,aqua,imageability,conservative,no,z,1,0.647175447369,1,749
2019_Oct_08,118,001,4,recog,61,SEEMED,HF,lure,-,-,-,conservative,no,m,1,0.776676085997,3,752
2019_Oct_08,118,001,4,recog,62,CHOICE,HF,lure,-,-,-,liberal,no,m,1,0.78865493723,1,753
2019_Oct_08,118,001,4,recog,63,LIKELY,HF,target,right,aqua,imageability,conservative,no,z,1,0.64709002817,1,754
2019_Oct_08,118,001,4,recog,64,BYPASS,LF,target,right,aqua,imageability,liberal,no,z,1,0.529762541958,3,757
2019_Oct_08,118,001,4,recog,65,NORTH,HF,lure,-,-,-,liberal,no,z,0,0.447457660673,-1,756
2019_Oct_08,118,001,4,recog,66,VORACIOUS,LF,lure,-,-,-,conservative,no,m,1,0.753324016653,3,759
2019_Oct_08,118,001,4,recog,67,DOSSIERS,LF,lure,-,-,-,liberal,no,m,1,1.10620832606,1,760
2019_Oct_08,118,001,4,recog,68,DESERTER,LF,target,left,yellow,pleasantness,liberal,no,z,1,0.776700648599,3,763
2019_Oct_08,118,001,4,recog,69,BECAME,HF,lure,-,-,-,liberal,no,m,1,0.870794479207,1,764
2019_Oct_08,118,001,4,recog,70,OOZED,LF,lure,-,-,-,conservative,yes,m,1,0.776853523304,3,767
2019_Oct_08,118,001,4,recog,71,SACRAMENT,LF,lure,-,-,-,conservative,no,m,1,1.57693776936,3,770
2019_Oct_08,118,001,4,recog,72,PROBABLY,HF,lure,-,-,-,conservative,no,m,1,0.847325829153,3,773
2019_Oct_08,118,001,4,recog,73,SLIGHTLY,HF,target,left,yellow,pleasantness,conservative,no,m,0,0.376692436625,-1,772
2019_Oct_08,118,001,4,recog,74,CERTAIN,HF,target,right,aqua,imageability,conservative,no,m,0,0.941688748568,-1,771
2019_Oct_08,118,001,4,recog,75,PEEKED,LF,target,right,aqua,imageability,conservative,no,z,1,0.670976609071,1,772
2019_Oct_08,118,001,4,recog,76,ASCEND,LF,lure,-,-,-,liberal,no,m,1,0.765002617567,1,773
2019_Oct_08,118,001,4,recog,77,OUGHT,HF,lure,-,-,-,liberal,no,m,1,0.529560542049,1,774
2019_Oct_08,118,001,4,recog,78,LATER,HF,lure,-,-,-,conservative,no,m,1,0.576675279464,3,777
2019_Oct_08,118,001,4,recog,79,WREATH,LF,target,right,aqua,imageability,liberal,no,z,1,0.611866889758,3,780
2019_Oct_08,118,001,4,recog,80,BASIC,HF,target,left,yellow,pleasantness,conservative,no,z,1,0.541506032135,1,781
2019_Oct_08,118,001,4,recog,81,OMITTING,LF,lure,-,-,-,conservative,no,m,1,0.635558069658,3,784
2019_Oct_08,118,001,4,recog,82,STICKER,LF,lure,-,-,-,liberal,yes,m,1,0.953075531102,1,785
2019_Oct_08,118,001,4,recog,83,WAGGED,LF,target,right,aqua,imageability,liberal,no,z,1,0.776748673986,3,788
2019_Oct_08,118,001,4,recog,84,TATTERS,LF,target,left,yellow,pleasantness,conservative,no,z,1,1.35328867583,1,789
2019_Oct_08,118,001,4,recog,85,ITSELF,HF,lure,-,-,-,conservative,no,m,1,0.835561075828,3,792
2019_Oct_08,118,001,4,recog,86,ORDER,HF,lure,-,-,-,conservative,no,z,0,1.09436548566,-3,789
2019_Oct_08,118,001,4,recog,87,MAMMAL,LF,lure,-,-,-,liberal,no,m,1,0.459043876873,1,790
2019_Oct_08,118,001,4,recog,88,DEXTERITY,LF,lure,-,-,-,liberal,no,m,1,0.506323953596,1,791
2019_Oct_08,118,001,4,recog,89,HIMSELF,HF,lure,-,-,-,conservative,no,m,1,0.753164176434,3,794
2019_Oct_08,118,001,4,recog,90,TALKING,HF,target,left,yellow,pleasantness,liberal,no,z,1,0.576876546161,3,797
2019_Oct_08,118,001,4,recog,91,SLACKEN,LF,target,right,aqua,imageability,liberal,no,z,1,0.929685334734,3,800
2019_Oct_08,118,001,4,recog,92,EVENING,HF,lure,-,-,-,liberal,no,m,1,1.04733763387,1,801
2019_Oct_08,118,001,4,recog,93,LODGERS,LF,target,right,aqua,imageability,conservative,no,z,1,0.929783218537,1,802
2019_Oct_08,118,001,4,recog,94,QUESTION,HF,target,right,aqua,imageability,liberal,no,z,1,0.870839571745,3,805
2019_Oct_08,118,001,4,recog,95,HISTORY,HF,target,left,yellow,pleasantness,conservative,no,z,1,0.741554130843,1,806
