date,subj,session,cycle,task,trial,item,wf,type,source,colour,encoding,bias,null,response,corr,rt,points,total
2019_Oct_10,119,001,0,source,0,ANTELOPES,LF,target,left,aqua,imageability,conservative,no,8,0,3.90626285408,-,-
2019_Oct_10,119,001,0,source,1,UNKEMPT,LF,target,left,aqua,imageability,liberal,no,2,1,2.47093228299,-,-
2019_Oct_10,119,001,0,source,2,DOING,HF,target,left,aqua,imageability,conservative,no,7,0,3.05919235527,-,-
2019_Oct_10,119,001,0,source,3,STRAIGHT,HF,target,left,aqua,imageability,conservative,no,2,1,2.54162429328,-,-
2019_Oct_10,119,001,0,source,4,SENSE,HF,target,left,aqua,imageability,liberal,no,2,1,2.5886552721,-,-
2019_Oct_10,119,001,0,source,5,REPORT,HF,target,right,yellow,pleasantness,conservative,no,8,1,3.05926787583,-,-
2019_Oct_10,119,001,0,source,6,FENCED,LF,target,left,aqua,imageability,liberal,no,2,1,3.4591921353,-,-
2019_Oct_10,119,001,0,source,7,LUXURIANT,LF,target,left,aqua,imageability,conservative,no,2,1,2.56509139088,-,-
2019_Oct_10,119,001,0,source,8,AMONG,HF,target,left,aqua,imageability,liberal,no,7,0,2.70620815666,-,-
2019_Oct_10,119,001,0,source,9,MORNING,HF,target,left,aqua,imageability,liberal,no,2,1,2.80043545302,-,-
2019_Oct_10,119,001,0,source,10,HIGHER,HF,target,left,aqua,imageability,conservative,no,7,0,4.047453674,-,-
2019_Oct_10,119,001,0,source,11,VEILING,LF,target,left,aqua,imageability,conservative,no,2,1,2.40036381847,-,-
2019_Oct_10,119,001,0,source,12,PAPER,HF,target,left,aqua,imageability,liberal,yes,7,0,2.470729184,-,-
2019_Oct_10,119,001,0,source,13,FAKING,LF,target,right,yellow,pleasantness,liberal,no,3,0,3.10599127334,-,-
2019_Oct_10,119,001,0,source,14,FUTURE,HF,target,right,yellow,pleasantness,conservative,no,2,0,2.18852974667,-,-
2019_Oct_10,119,001,0,source,15,JUNCTURE,LF,target,left,aqua,imageability,liberal,no,1,1,3.20042863417,-,-
2019_Oct_10,119,001,0,source,16,MINISTER,HF,target,right,yellow,pleasantness,liberal,no,8,1,3.27097730204,-,-
2019_Oct_10,119,001,0,source,17,ACTION,HF,target,right,yellow,pleasantness,conservative,no,2,0,1.60032099904,-,-
2019_Oct_10,119,001,0,source,18,HUSBAND,HF,target,right,yellow,pleasantness,conservative,no,9,1,1.43562165519,-,-
2019_Oct_10,119,001,0,source,19,BABBLED,LF,target,left,aqua,imageability,conservative,yes,3,1,1.41188620298,-,-
2019_Oct_10,119,001,0,source,20,PROBABLY,HF,target,left,aqua,imageability,conservative,no,2,1,2.42386134425,-,-
2019_Oct_10,119,001,0,source,21,CLUBBED,LF,target,right,yellow,pleasantness,conservative,no,2,0,2.14151306542,-,-
2019_Oct_10,119,001,0,source,22,OXIDE,LF,target,right,yellow,pleasantness,liberal,no,8,1,2.82386479034,-,-
2019_Oct_10,119,001,0,source,23,FAMILY,HF,target,left,aqua,imageability,conservative,no,2,1,2.11801920569,-,-
2019_Oct_10,119,001,0,source,24,LOYALIST,LF,target,right,yellow,pleasantness,conservative,no,8,1,1.74156387683,-,-
2019_Oct_10,119,001,0,source,25,OUGHT,HF,target,right,yellow,pleasantness,liberal,no,8,1,1.95307973578,-,-
2019_Oct_10,119,001,0,source,26,STUDENT,HF,target,left,aqua,imageability,liberal,no,2,1,1.81205718739,-,-
2019_Oct_10,119,001,0,source,27,AVOCADO,LF,target,right,yellow,pleasantness,liberal,no,9,1,2.63568661754,-,-
2019_Oct_10,119,001,0,source,28,PLIABLE,LF,target,right,yellow,pleasantness,conservative,no,9,1,2.84745323408,-,-
2019_Oct_10,119,001,0,source,29,MAJOR,HF,target,right,yellow,pleasantness,liberal,no,2,0,1.78855819519,-,-
2019_Oct_10,119,001,0,source,30,PREPARED,HF,target,right,yellow,pleasantness,conservative,no,3,0,2.91808328818,-,-
2019_Oct_10,119,001,0,source,31,KIMONO,LF,target,right,yellow,pleasantness,conservative,no,9,1,2.04719191827,-,-
2019_Oct_10,119,001,0,source,32,WAITING,HF,target,right,yellow,pleasantness,liberal,no,3,0,3.08271627659,-,-
2019_Oct_10,119,001,0,source,33,TOGETHER,HF,target,right,yellow,pleasantness,liberal,no,3,0,2.42379132276,-,-
2019_Oct_10,119,001,0,source,34,IRATE,LF,target,right,yellow,pleasantness,liberal,no,7,1,2.68269413367,-,-
2019_Oct_10,119,001,0,source,35,MAVIS,LF,target,right,yellow,pleasantness,liberal,yes,7,1,1.41210543257,-,-
2019_Oct_10,119,001,0,source,36,OOZED,LF,target,right,yellow,pleasantness,liberal,no,8,1,2.96511280059,-,-
2019_Oct_10,119,001,0,source,37,FALCON,LF,target,left,aqua,imageability,liberal,no,2,1,2.96505707668,-,-
2019_Oct_10,119,001,0,source,38,HOLED,LF,target,left,aqua,imageability,conservative,no,3,1,2.14152516338,-,-
2019_Oct_10,119,001,0,source,39,TOOTHACHE,LF,target,left,aqua,imageability,liberal,no,2,1,3.05922938234,-,-
2019_Oct_10,119,001,0,source,40,SWAGGER,LF,target,right,yellow,pleasantness,conservative,no,8,1,1.41215932345,-,-
2019_Oct_10,119,001,0,source,41,PUBLIC,HF,target,right,yellow,pleasantness,liberal,no,8,1,1.88275872941,-,-
2019_Oct_10,119,001,0,source,42,EFFECT,HF,target,right,yellow,pleasantness,conservative,no,3,0,3.27079949878,-,-
2019_Oct_10,119,001,0,source,43,ALMOST,HF,target,left,aqua,imageability,conservative,no,7,0,2.80035113394,-,-
2019_Oct_10,119,001,0,source,44,MUMBLES,LF,target,left,aqua,imageability,conservative,yes,7,0,1.01203783067,-,-
2019_Oct_10,119,001,0,source,45,ACROSS,HF,target,left,aqua,imageability,liberal,no,7,0,3.24750617179,-,-
2019_Oct_10,119,001,0,source,46,SMUDGE,LF,target,left,aqua,imageability,liberal,no,3,1,2.00011108121,-,-
2019_Oct_10,119,001,0,source,47,MICROCOSM,LF,target,right,yellow,pleasantness,conservative,no,8,1,1.55333951184,-,-
2019_Oct_10,119,001,0,recog,0,CLASS,HF,lure,-,-,-,liberal,no,m,1,2.58867360234,1,1
2019_Oct_10,119,001,0,recog,1,LOOKED,HF,lure,-,-,-,liberal,no,m,1,1.97686064697,1,2
2019_Oct_10,119,001,0,recog,2,REPORT,HF,target,right,yellow,pleasantness,conservative,no,m,0,2.64746562531,-1,1
2019_Oct_10,119,001,0,recog,3,GUARDSMEN,LF,lure,-,-,-,conservative,no,m,1,2.1412986017,3,4
2019_Oct_10,119,001,0,recog,4,PUBLIC,HF,target,right,yellow,pleasantness,liberal,no,z,1,1.9886513861,3,7
2019_Oct_10,119,001,0,recog,5,PAPER,HF,target,left,aqua,imageability,liberal,no,z,1,1.82361439935,3,10
2019_Oct_10,119,001,0,recog,6,ADOPTIVE,LF,lure,-,-,-,liberal,no,m,1,1.48272485514,1,11
2019_Oct_10,119,001,0,recog,7,MUMBLES,LF,target,left,aqua,imageability,conservative,no,z,1,1.31796685454,1,12
2019_Oct_10,119,001,0,recog,8,TOOTHACHE,LF,target,left,aqua,imageability,liberal,no,z,1,1.18862323086,3,15
2019_Oct_10,119,001,0,recog,9,STUDENT,HF,target,left,aqua,imageability,liberal,no,z,1,1.22379234925,3,18
2019_Oct_10,119,001,0,recog,10,CLUBBED,LF,target,right,yellow,pleasantness,conservative,no,z,1,1.32968757218,1,19
2019_Oct_10,119,001,0,recog,11,MAVIS,LF,target,right,yellow,pleasantness,liberal,no,z,1,1.07093030332,3,22
2019_Oct_10,119,001,0,recog,12,STICKER,LF,lure,-,-,-,liberal,no,m,1,0.870857642277,1,23
2019_Oct_10,119,001,0,recog,13,IDEAS,HF,lure,-,-,-,conservative,no,m,1,1.0356647679,3,26
2019_Oct_10,119,001,0,recog,14,NEITHER,HF,lure,-,-,-,liberal,no,m,1,1.32951930064,1,27
2019_Oct_10,119,001,0,recog,15,FUTURE,HF,target,right,yellow,pleasantness,conservative,no,z,1,0.976881543435,1,28
2019_Oct_10,119,001,0,recog,16,APPEARED,HF,lure,-,-,-,conservative,no,m,1,1.37690991864,3,31
2019_Oct_10,119,001,0,recog,17,PLEASE,HF,lure,-,-,-,liberal,no,z,0,1.03562847404,-1,30
2019_Oct_10,119,001,0,recog,18,SLUGS,LF,lure,-,-,-,liberal,no,m,1,1.48268379541,1,31
2019_Oct_10,119,001,0,recog,19,MICROCOSM,LF,target,right,yellow,pleasantness,conservative,no,z,1,1.16503258749,1,32
2019_Oct_10,119,001,0,recog,20,ENTIRELY,HF,lure,-,-,-,liberal,no,z,0,2.74144583013,-1,31
2019_Oct_10,119,001,0,recog,21,VEILING,LF,target,left,aqua,imageability,conservative,no,m,0,1.35306925089,-1,30
2019_Oct_10,119,001,0,recog,22,INDEED,HF,lure,-,-,-,conservative,yes,z,0,1.05919638792,-3,27
2019_Oct_10,119,001,0,recog,23,SOCIAL,HF,lure,-,-,-,conservative,no,m,1,3.95313949234,3,30
2019_Oct_10,119,001,0,recog,24,FAMILY,HF,target,left,aqua,imageability,conservative,no,z,1,0.812082849721,1,31
2019_Oct_10,119,001,0,recog,25,IRATE,LF,target,right,yellow,pleasantness,liberal,no,z,1,0.870907500511,3,34
2019_Oct_10,119,001,0,recog,26,DOING,HF,target,left,aqua,imageability,conservative,no,m,0,1.83557744267,-1,33
2019_Oct_10,119,001,0,recog,27,HOLED,LF,target,left,aqua,imageability,conservative,no,z,1,1.96513919612,1,34
2019_Oct_10,119,001,0,recog,28,FENCED,LF,target,left,aqua,imageability,liberal,no,z,1,0.812023093161,3,37
2019_Oct_10,119,001,0,recog,29,BASIC,HF,lure,-,-,-,conservative,no,z,0,2.78854243119,-3,34
2019_Oct_10,119,001,0,recog,30,AMONG,HF,target,left,aqua,imageability,liberal,no,z,1,1.188586937,3,37
2019_Oct_10,119,001,0,recog,31,FAKING,LF,target,right,yellow,pleasantness,liberal,no,z,1,1.48248252945,3,40
2019_Oct_10,119,001,0,recog,32,HAVING,HF,lure,-,-,-,liberal,no,m,1,1.09457117153,1,41
2019_Oct_10,119,001,0,recog,33,TABLE,HF,lure,-,-,-,liberal,no,m,1,2.44739479729,1,42
2019_Oct_10,119,001,0,recog,34,FALCON,LF,target,left,aqua,imageability,liberal,no,z,1,0.776762690204,3,45
2019_Oct_10,119,001,0,recog,35,OOZED,LF,target,right,yellow,pleasantness,liberal,no,z,1,1.40026630163,3,48
2019_Oct_10,119,001,0,recog,36,LUXURIANT,LF,target,left,aqua,imageability,conservative,no,z,1,1.07082068853,1,49
2019_Oct_10,119,001,0,recog,37,UNGAINLY,LF,lure,-,-,-,conservative,no,m,1,1.30620910983,3,52
2019_Oct_10,119,001,0,recog,38,EFFECT,HF,target,right,yellow,pleasantness,conservative,no,z,1,1.43558499472,1,53
2019_Oct_10,119,001,0,recog,39,NUMBER,HF,lure,-,-,-,liberal,no,m,1,2.44744355571,1,54
2019_Oct_10,119,001,0,recog,40,FACILE,LF,lure,-,-,-,liberal,no,m,1,1.60035252704,1,55
2019_Oct_10,119,001,0,recog,41,PROBABLY,HF,target,left,aqua,imageability,conservative,no,z,1,1.61187491156,1,56
2019_Oct_10,119,001,0,recog,42,LIVED,HF,lure,-,-,-,conservative,no,m,1,1.36504402555,3,59
2019_Oct_10,119,001,0,recog,43,ARDENTLY,LF,lure,-,-,-,conservative,no,z,0,1.74141540194,-3,56
2019_Oct_10,119,001,0,recog,44,RAGES,LF,lure,-,-,-,conservative,no,m,1,2.43584198459,3,59
2019_Oct_10,119,001,0,recog,45,ACROSS,HF,target,left,aqua,imageability,liberal,no,z,1,1.37700743548,3,62
2019_Oct_10,119,001,0,recog,46,MINISTER,HF,target,right,yellow,pleasantness,liberal,no,z,1,2.31803907566,3,65
2019_Oct_10,119,001,0,recog,47,SENSE,HF,target,left,aqua,imageability,liberal,no,z,1,1.64764269537,3,68
2019_Oct_10,119,001,0,recog,48,THRASH,LF,lure,-,-,-,liberal,no,m,1,1.14147493854,1,69
2019_Oct_10,119,001,0,recog,49,BAGGY,LF,lure,-,-,-,conservative,no,m,1,1.37657777481,3,72
2019_Oct_10,119,001,0,recog,50,ADHERE,LF,lure,-,-,-,liberal,no,m,1,1.38865079953,1,73
2019_Oct_10,119,001,0,recog,51,MUSIC,HF,lure,-,-,-,conservative,no,m,1,1.11794771778,3,76
2019_Oct_10,119,001,0,recog,52,BOASTS,LF,lure,-,-,-,liberal,no,m,1,1.17654287405,1,77
2019_Oct_10,119,001,0,recog,53,OUGHT,HF,target,right,yellow,pleasantness,liberal,no,z,1,0.941514825126,3,80
2019_Oct_10,119,001,0,recog,54,AHEAD,HF,lure,-,-,-,liberal,no,m,1,1.36516243886,1,81
2019_Oct_10,119,001,0,recog,55,MAYBE,HF,lure,-,-,-,liberal,no,z,0,1.31797858589,-1,80
2019_Oct_10,119,001,0,recog,56,ALMOST,HF,target,left,aqua,imageability,conservative,no,m,0,2.04734589223,-1,79
2019_Oct_10,119,001,0,recog,57,WAITING,HF,target,right,yellow,pleasantness,liberal,no,z,1,2.2235441579,3,82
2019_Oct_10,119,001,0,recog,58,PLIABLE,LF,target,right,yellow,pleasantness,conservative,yes,m,0,1.56519074074,-1,81
2019_Oct_10,119,001,0,recog,59,FOCUSES,LF,lure,-,-,-,liberal,no,m,1,3.04750683168,1,82
2019_Oct_10,119,001,0,recog,60,PAWNS,LF,lure,-,-,-,conservative,no,m,1,1.16498382907,3,85
2019_Oct_10,119,001,0,recog,61,TURNED,HF,lure,-,-,-,liberal,no,m,1,1.21208152994,1,86
2019_Oct_10,119,001,0,recog,62,JUNCTURE,LF,target,left,aqua,imageability,liberal,no,z,1,1.08272287547,3,89
2019_Oct_10,119,001,0,recog,63,OXIDE,LF,target,right,yellow,pleasantness,liberal,no,z,1,1.43575803212,3,92
2019_Oct_10,119,001,0,recog,64,SIMILAR,HF,lure,-,-,-,conservative,no,m,1,2.34153696805,3,95
2019_Oct_10,119,001,0,recog,65,AVOCADO,LF,target,right,yellow,pleasantness,liberal,no,z,1,0.965070641052,3,98
2019_Oct_10,119,001,0,recog,66,JOBLESS,LF,lure,-,-,-,conservative,no,m,1,1.28256494218,3,101
2019_Oct_10,119,001,0,recog,67,STRAIGHT,HF,target,left,aqua,imageability,conservative,no,z,1,0.941585579826,1,102
2019_Oct_10,119,001,0,recog,68,BABBLED,LF,target,left,aqua,imageability,conservative,no,m,0,1.23565237666,-1,101
2019_Oct_10,119,001,0,recog,69,SABLE,LF,lure,-,-,-,liberal,no,m,1,1.18858547058,1,102
2019_Oct_10,119,001,0,recog,70,ACTION,HF,target,right,yellow,pleasantness,conservative,no,z,1,1.22391992768,1,103
2019_Oct_10,119,001,0,recog,71,ELUDE,LF,lure,-,-,-,conservative,no,m,1,0.894511708253,3,106
2019_Oct_10,119,001,0,recog,72,HARDLY,HF,lure,-,-,-,liberal,no,m,1,1.56511925283,1,107
2019_Oct_10,119,001,0,recog,73,SWAGGER,LF,target,right,yellow,pleasantness,conservative,no,z,1,0.847390911284,1,108
2019_Oct_10,119,001,0,recog,74,UNCANNILY,LF,lure,-,-,-,conservative,no,m,1,1.30599244648,3,111
2019_Oct_10,119,001,0,recog,75,AMICABLY,LF,lure,-,-,-,liberal,no,m,1,0.988759901075,1,112
2019_Oct_10,119,001,0,recog,76,ACCORDING,HF,lure,-,-,-,conservative,no,m,1,1.02376734682,3,115
2019_Oct_10,119,001,0,recog,77,DREADING,LF,lure,-,-,-,conservative,no,m,1,1.38858920994,3,118
2019_Oct_10,119,001,0,recog,78,QUALITY,HF,lure,-,-,-,conservative,yes,m,1,1.63553997567,3,121
2019_Oct_10,119,001,0,recog,79,TOYED,LF,lure,-,-,-,liberal,no,z,0,2.41213329452,-1,120
2019_Oct_10,119,001,0,recog,80,BONANZA,LF,lure,-,-,-,conservative,yes,m,1,1.2356006854,3,123
2019_Oct_10,119,001,0,recog,81,LAUNCHER,LF,lure,-,-,-,conservative,no,m,1,1.87089613577,3,126
2019_Oct_10,119,001,0,recog,82,ANTELOPES,LF,target,left,aqua,imageability,conservative,no,m,0,1.83566359476,-1,125
2019_Oct_10,119,001,0,recog,83,MAJOR,HF,target,right,yellow,pleasantness,liberal,no,z,1,1.42381515206,3,128
2019_Oct_10,119,001,0,recog,84,HUSBAND,HF,target,right,yellow,pleasantness,conservative,no,z,1,1.1650963767,1,129
2019_Oct_10,119,001,0,recog,85,PREPARED,HF,target,right,yellow,pleasantness,conservative,no,z,1,1.48240517587,1,130
2019_Oct_10,119,001,0,recog,86,BEYOND,HF,lure,-,-,-,conservative,no,m,1,0.941415841867,3,133
2019_Oct_10,119,001,0,recog,87,LOYALIST,LF,target,right,yellow,pleasantness,conservative,no,z,1,1.15326934371,1,134
2019_Oct_10,119,001,0,recog,88,HIGHER,HF,target,left,aqua,imageability,conservative,no,z,1,1.07114000119,1,135
2019_Oct_10,119,001,0,recog,89,SMUDGE,LF,target,left,aqua,imageability,liberal,no,z,1,1.00033251043,3,138
2019_Oct_10,119,001,0,recog,90,KIMONO,LF,target,right,yellow,pleasantness,conservative,no,z,1,1.05920995229,1,139
2019_Oct_10,119,001,0,recog,91,TOGETHER,HF,target,right,yellow,pleasantness,liberal,no,z,1,1.44737023478,3,142
2019_Oct_10,119,001,0,recog,92,IDYLL,LF,lure,-,-,-,liberal,no,m,1,0.92980510563,1,143
2019_Oct_10,119,001,0,recog,93,SEVEN,HF,lure,-,-,-,conservative,no,m,1,0.882682842242,3,146
2019_Oct_10,119,001,0,recog,94,UNKEMPT,LF,target,left,aqua,imageability,liberal,no,z,1,1.25916273361,3,149
2019_Oct_10,119,001,0,recog,95,MORNING,HF,target,left,aqua,imageability,liberal,no,z,1,0.953334159416,3,152
2019_Oct_10,119,001,1,source,0,PATCHY,LF,target,left,aqua,imageability,conservative,no,7,0,2.6122400498,-,-
2019_Oct_10,119,001,1,source,1,CODING,LF,target,left,aqua,imageability,liberal,no,2,1,2.02388832635,-,-
2019_Oct_10,119,001,1,source,2,SINCE,HF,target,left,aqua,imageability,conservative,no,2,1,1.74153528167,-,-
2019_Oct_10,119,001,1,source,3,FATHER,HF,target,left,aqua,imageability,liberal,no,2,1,1.75335241633,-,-
2019_Oct_10,119,001,1,source,4,ENOUGH,HF,target,right,yellow,pleasantness,conservative,no,8,1,1.44718143338,-,-
2019_Oct_10,119,001,1,source,5,FIELD,HF,target,left,aqua,imageability,liberal,no,2,1,1.7885823911,-,-
2019_Oct_10,119,001,1,source,6,OATHS,LF,target,right,yellow,pleasantness,liberal,no,8,1,1.32974072985,-,-
2019_Oct_10,119,001,1,source,7,ANSWER,HF,target,left,aqua,imageability,liberal,no,2,1,1.69417435864,-,-
2019_Oct_10,119,001,1,source,8,REQUIRED,HF,target,right,yellow,pleasantness,conservative,no,3,0,1.7180315236,-,-
2019_Oct_10,119,001,1,source,9,CLOSE,HF,target,right,yellow,pleasantness,liberal,no,7,1,1.45914997577,-,-
2019_Oct_10,119,001,1,source,10,ATTACK,HF,target,left,aqua,imageability,liberal,no,2,1,2.5059767558,-,-
2019_Oct_10,119,001,1,source,11,SPACE,HF,target,right,yellow,pleasantness,conservative,no,7,1,2.98864808665,-,-
2019_Oct_10,119,001,1,source,12,DEXTERITY,LF,target,right,yellow,pleasantness,liberal,no,9,1,1.17680499638,-,-
2019_Oct_10,119,001,1,source,13,TROUBLE,HF,target,right,yellow,pleasantness,liberal,no,2,0,1.63547032079,-,-
2019_Oct_10,119,001,1,source,14,LASER,LF,target,right,yellow,pleasantness,liberal,no,8,1,1.31775019118,-,-
2019_Oct_10,119,001,1,source,15,QUOTAS,LF,target,right,yellow,pleasantness,conservative,yes,7,1,1.56499607366,-,-
2019_Oct_10,119,001,1,source,16,EVIDENCE,HF,target,right,yellow,pleasantness,liberal,yes,3,0,1.47102393415,-,-
2019_Oct_10,119,001,1,source,17,DEGREE,HF,target,left,aqua,imageability,liberal,no,2,1,1.37686262663,-,-
2019_Oct_10,119,001,1,source,18,TEDIUM,LF,target,left,aqua,imageability,liberal,no,1,1,1.89427634806,-,-
2019_Oct_10,119,001,1,source,19,FORCE,HF,target,right,yellow,pleasantness,conservative,no,3,0,1.44737610046,-,-
2019_Oct_10,119,001,1,source,20,ADDED,HF,target,right,yellow,pleasantness,conservative,no,3,0,2.43541305714,-,-
2019_Oct_10,119,001,1,source,21,YARDSTICK,LF,target,left,aqua,imageability,liberal,no,8,0,4.15352450056,-,-
2019_Oct_10,119,001,1,source,22,KRONOR,LF,target,left,aqua,imageability,conservative,no,2,1,2.34153916768,-,-
2019_Oct_10,119,001,1,source,23,PEPPERED,LF,target,left,aqua,imageability,conservative,no,1,1,1.1177211561,-,-
2019_Oct_10,119,001,1,source,24,PELTED,LF,target,right,yellow,pleasantness,conservative,no,8,1,1.25922908905,-,-
2019_Oct_10,119,001,1,source,25,SYSTEM,HF,target,left,aqua,imageability,conservative,no,7,0,1.60029863616,-,-
2019_Oct_10,119,001,1,source,26,ORDER,HF,target,right,yellow,pleasantness,liberal,yes,7,1,1.05920005396,-,-
2019_Oct_10,119,001,1,source,27,TWAIN,LF,target,right,yellow,pleasantness,liberal,no,9,1,1.23555999229,-,-
2019_Oct_10,119,001,1,source,28,SOYBEAN,LF,target,right,yellow,pleasantness,conservative,no,9,1,0.81198606609,-,-
2019_Oct_10,119,001,1,source,29,HITCHING,LF,target,left,aqua,imageability,liberal,no,2,1,2.14146027435,-,-
2019_Oct_10,119,001,1,source,30,FLAGGED,LF,target,left,aqua,imageability,conservative,no,1,1,1.28274897772,-,-
2019_Oct_10,119,001,1,source,31,BREAK,HF,target,left,aqua,imageability,conservative,no,3,1,1.45917820433,-,-
2019_Oct_10,119,001,1,source,32,DILATED,LF,target,right,yellow,pleasantness,liberal,no,7,1,1.54145785476,-,-
2019_Oct_10,119,001,1,source,33,TOUSLED,LF,target,left,aqua,imageability,conservative,no,8,0,1.24716266322,-,-
2019_Oct_10,119,001,1,source,34,LONGER,HF,target,right,yellow,pleasantness,conservative,no,8,1,1.72976433919,-,-
2019_Oct_10,119,001,1,source,35,MOVED,HF,target,left,aqua,imageability,conservative,yes,3,1,0.788283241694,-,-
2019_Oct_10,119,001,1,source,36,ERRANT,LF,target,right,yellow,pleasantness,conservative,no,8,1,1.76485793703,-,-
2019_Oct_10,119,001,1,source,37,ANYONE,HF,target,left,aqua,imageability,liberal,no,1,1,1.29455218141,-,-
2019_Oct_10,119,001,1,source,38,DIMMED,LF,target,left,aqua,imageability,conservative,no,3,1,1.70614913331,-,-
2019_Oct_10,119,001,1,source,39,SNAGS,LF,target,left,aqua,imageability,liberal,no,2,1,1.11803093703,-,-
2019_Oct_10,119,001,1,source,40,LAWFUL,LF,target,right,yellow,pleasantness,liberal,no,7,1,2.41185687461,-,-
2019_Oct_10,119,001,1,source,41,FURTHER,HF,target,left,aqua,imageability,conservative,no,8,0,2.20037217705,-,-
2019_Oct_10,119,001,1,source,42,LANGUAGE,HF,target,left,aqua,imageability,conservative,no,3,1,2.68246683878,-,-
2019_Oct_10,119,001,1,source,43,AMULETS,LF,target,right,yellow,pleasantness,conservative,no,9,1,2.45916463995,-,-
2019_Oct_10,119,001,1,source,44,IMPORTANT,HF,target,right,yellow,pleasantness,liberal,no,2,0,1.81205278814,-,-
2019_Oct_10,119,001,1,source,45,TOILED,LF,target,left,aqua,imageability,liberal,no,3,1,2.00047438643,-,-
2019_Oct_10,119,001,1,source,46,PASSED,HF,target,right,yellow,pleasantness,liberal,no,3,0,1.05884554726,-,-
2019_Oct_10,119,001,1,source,47,RENAMED,LF,target,right,yellow,pleasantness,conservative,no,3,0,2.03573992185,-,-
2019_Oct_10,119,001,1,recog,0,USUAL,HF,lure,-,-,-,conservative,no,m,1,1.54144722323,3,155
2019_Oct_10,119,001,1,recog,1,CHOICE,HF,lure,-,-,-,liberal,no,m,1,1.28269875288,1,156
2019_Oct_10,119,001,1,recog,2,SOJOURN,LF,lure,-,-,-,liberal,no,m,1,1.15332506762,1,157
2019_Oct_10,119,001,1,recog,3,VALUE,HF,lure,-,-,-,conservative,no,m,1,1.22393862451,3,160
2019_Oct_10,119,001,1,recog,4,NORTH,HF,lure,-,-,-,conservative,no,m,1,0.765093663825,3,163
2019_Oct_10,119,001,1,recog,5,MOCCASINS,LF,lure,-,-,-,conservative,no,m,1,0.800348567712,3,166
2019_Oct_10,119,001,1,recog,6,ENOUGH,HF,target,right,yellow,pleasantness,conservative,no,z,1,0.859190448922,1,167
2019_Oct_10,119,001,1,recog,7,WEEKS,HF,lure,-,-,-,liberal,no,m,1,0.823818231543,1,168
2019_Oct_10,119,001,1,recog,8,BECAME,HF,lure,-,-,-,conservative,no,m,1,0.788741497521,3,171
2019_Oct_10,119,001,1,recog,9,ATTACK,HF,target,left,aqua,imageability,liberal,yes,z,1,1.37688792236,3,174
2019_Oct_10,119,001,1,recog,10,LONGER,HF,target,right,yellow,pleasantness,conservative,no,z,1,1.38874208409,1,175
2019_Oct_10,119,001,1,recog,11,RENAMED,LF,target,right,yellow,pleasantness,conservative,no,z,1,0.847396776958,1,176
2019_Oct_10,119,001,1,recog,12,FITFUL,LF,lure,-,-,-,liberal,no,m,1,1.07091673895,1,177
2019_Oct_10,119,001,1,recog,13,NEEDED,HF,lure,-,-,-,conservative,no,m,1,1.11797118047,3,180
2019_Oct_10,119,001,1,recog,14,POUNDS,HF,lure,-,-,-,conservative,no,m,1,1.25911947426,3,183
2019_Oct_10,119,001,1,recog,15,LASER,LF,target,right,yellow,pleasantness,liberal,no,z,1,1.05890273758,3,186
2019_Oct_10,119,001,1,recog,16,SNAGS,LF,target,left,aqua,imageability,liberal,no,z,1,0.753341051583,3,189
2019_Oct_10,119,001,1,recog,17,MAMMAL,LF,lure,-,-,-,conservative,no,z,0,1.61210550589,-3,186
2019_Oct_10,119,001,1,recog,18,DIMMED,LF,target,left,aqua,imageability,conservative,no,m,0,1.16496366581,-1,185
2019_Oct_10,119,001,1,recog,19,SOYBEAN,LF,target,right,yellow,pleasantness,conservative,no,z,1,1.14156878933,1,186
2019_Oct_10,119,001,1,recog,20,DEXTERITY,LF,target,right,yellow,pleasantness,liberal,no,z,1,0.71808248165,3,189
2019_Oct_10,119,001,1,recog,21,CLOSE,HF,target,right,yellow,pleasantness,liberal,no,z,1,1.60014539541,3,192
2019_Oct_10,119,001,1,recog,22,TWAIN,LF,target,right,yellow,pleasantness,liberal,no,z,1,0.847420972866,3,195
2019_Oct_10,119,001,1,recog,23,HITCHING,LF,target,left,aqua,imageability,liberal,no,z,1,0.764770685118,3,198
2019_Oct_10,119,001,1,recog,24,BREAK,HF,target,left,aqua,imageability,conservative,no,z,1,0.917964874874,1,199
2019_Oct_10,119,001,1,recog,25,TROUBLE,HF,target,right,yellow,pleasantness,liberal,no,m,0,0.847479629612,-3,196
2019_Oct_10,119,001,1,recog,26,ERUDITE,LF,lure,-,-,-,conservative,no,m,1,1.07092920351,3,199
2019_Oct_10,119,001,1,recog,27,PASSED,HF,target,right,yellow,pleasantness,liberal,no,m,0,0.953153423318,-3,196
2019_Oct_10,119,001,1,recog,28,RUFFLES,LF,lure,-,-,-,conservative,no,m,1,1.48244476917,3,199
2019_Oct_10,119,001,1,recog,29,GUILDHALL,LF,lure,-,-,-,liberal,no,m,1,1.02371712198,1,200
2019_Oct_10,119,001,1,recog,30,FATHER,HF,target,left,aqua,imageability,liberal,no,z,1,0.953359455137,3,203
2019_Oct_10,119,001,1,recog,31,OTHERS,HF,lure,-,-,-,liberal,no,m,1,1.50627737162,1,204
2019_Oct_10,119,001,1,recog,32,BACHELORS,LF,lure,-,-,-,conservative,no,m,1,1.12976448583,3,207
2019_Oct_10,119,001,1,recog,33,MEMBERS,HF,lure,-,-,-,conservative,no,m,1,0.964923632583,3,210
2019_Oct_10,119,001,1,recog,34,FORCE,HF,target,right,yellow,pleasantness,conservative,yes,m,0,0.906145540584,-1,209
2019_Oct_10,119,001,1,recog,35,ORDER,HF,target,right,yellow,pleasantness,liberal,no,m,0,3.09445349143,-3,206
2019_Oct_10,119,001,1,recog,36,ANYONE,HF,target,left,aqua,imageability,liberal,no,z,1,1.05920701945,3,209
2019_Oct_10,119,001,1,recog,37,SAPLINGS,LF,lure,-,-,-,liberal,no,m,1,1.47096967666,1,210
2019_Oct_10,119,001,1,recog,38,HERSELF,HF,lure,-,-,-,liberal,no,m,1,0.835618868995,1,211
2019_Oct_10,119,001,1,recog,39,HAMLETS,LF,lure,-,-,-,liberal,no,z,0,1.18858070472,-1,210
2019_Oct_10,119,001,1,recog,40,SYSTEM,HF,target,left,aqua,imageability,conservative,no,z,1,1.70629540857,1,211
2019_Oct_10,119,001,1,recog,41,MODERN,HF,lure,-,-,-,conservative,no,m,1,0.917959742409,3,214
2019_Oct_10,119,001,1,recog,42,ROUND,HF,lure,-,-,-,liberal,no,m,1,1.28266905791,1,215
2019_Oct_10,119,001,1,recog,43,TOUSLED,LF,target,left,aqua,imageability,conservative,no,z,1,1.11798511145,1,216
2019_Oct_10,119,001,1,recog,44,ZEALOTS,LF,lure,-,-,-,liberal,no,m,1,1.28279846935,1,217
2019_Oct_10,119,001,1,recog,45,CODING,LF,target,left,aqua,imageability,liberal,no,z,1,0.812180733165,3,220
2019_Oct_10,119,001,1,recog,46,YARDSTICK,LF,target,left,aqua,imageability,liberal,no,z,1,0.988497412138,3,223
2019_Oct_10,119,001,1,recog,47,RETURN,HF,lure,-,-,-,conservative,no,z,0,1.43570267482,-3,220
2019_Oct_10,119,001,1,recog,48,OATHS,LF,target,right,yellow,pleasantness,liberal,no,z,1,1.01179843782,3,223
2019_Oct_10,119,001,1,recog,49,MOVED,HF,target,left,aqua,imageability,conservative,no,m,0,1.37686116022,-1,222
2019_Oct_10,119,001,1,recog,50,FICKLE,LF,lure,-,-,-,conservative,no,z,0,1.71816130165,-3,219
2019_Oct_10,119,001,1,recog,51,PATCHY,LF,target,left,aqua,imageability,conservative,no,z,1,1.28256310916,1,220
2019_Oct_10,119,001,1,recog,52,EVIDENCE,HF,target,right,yellow,pleasantness,liberal,no,m,0,1.1179572495,-3,217
2019_Oct_10,119,001,1,recog,53,AMBIENCE,LF,lure,-,-,-,conservative,no,m,1,1.52970780875,3,220
2019_Oct_10,119,001,1,recog,54,TOILED,LF,target,left,aqua,imageability,liberal,no,z,1,0.800457449297,3,223
2019_Oct_10,119,001,1,recog,55,LEDGES,LF,lure,-,-,-,conservative,no,m,1,1.14143424542,3,226
2019_Oct_10,119,001,1,recog,56,GIVEN,HF,lure,-,-,-,liberal,no,m,1,1.23563771247,1,227
2019_Oct_10,119,001,1,recog,57,DEGREE,HF,target,left,aqua,imageability,liberal,no,z,1,0.835674226299,3,230
2019_Oct_10,119,001,1,recog,58,TEDIUM,LF,target,left,aqua,imageability,liberal,no,z,1,0.917962675246,3,233
2019_Oct_10,119,001,1,recog,59,VINEYARDS,LF,lure,-,-,-,liberal,yes,z,0,1.00038310187,-1,232
2019_Oct_10,119,001,1,recog,60,EXCEPT,HF,lure,-,-,-,liberal,no,m,1,3.17702935843,1,233
2019_Oct_10,119,001,1,recog,61,VAINLY,LF,lure,-,-,-,conservative,no,m,1,1.21198474631,3,236
2019_Oct_10,119,001,1,recog,62,DEDICATE,LF,lure,-,-,-,conservative,no,m,1,1.25909711138,3,239
2019_Oct_10,119,001,1,recog,63,FRONT,HF,lure,-,-,-,conservative,no,m,1,0.682391318215,3,242
2019_Oct_10,119,001,1,recog,64,SHORT,HF,lure,-,-,-,liberal,no,m,1,0.894232355501,1,243
2019_Oct_10,119,001,1,recog,65,SHRED,LF,lure,-,-,-,conservative,no,m,1,0.788549030074,3,246
2019_Oct_10,119,001,1,recog,66,FIELD,HF,target,left,aqua,imageability,liberal,no,z,1,0.941654501502,3,249
2019_Oct_10,119,001,1,recog,67,PEPPERED,LF,target,left,aqua,imageability,conservative,no,z,1,0.953283201368,1,250
2019_Oct_10,119,001,1,recog,68,ADDED,HF,target,right,yellow,pleasantness,conservative,no,m,0,1.03569226325,-1,249
2019_Oct_10,119,001,1,recog,69,BUOYANCY,LF,lure,-,-,-,conservative,no,m,1,1.0944663226,3,252
2019_Oct_10,119,001,1,recog,70,BARBARIAN,LF,lure,-,-,-,liberal,no,m,1,0.835635366205,1,253
2019_Oct_10,119,001,1,recog,71,ERRANT,LF,target,right,yellow,pleasantness,conservative,no,z,1,0.717999995601,1,254
2019_Oct_10,119,001,1,recog,72,FURTHER,HF,target,left,aqua,imageability,conservative,no,z,1,0.906203097516,1,255
2019_Oct_10,119,001,1,recog,73,MOUTH,HF,lure,-,-,-,conservative,no,z,0,0.929759280047,-3,252
2019_Oct_10,119,001,1,recog,74,VILLAGE,HF,lure,-,-,-,liberal,no,m,1,1.1062006046,1,253
2019_Oct_10,119,001,1,recog,75,SPACE,HF,target,right,yellow,pleasantness,conservative,no,z,1,0.894499976904,1,254
2019_Oct_10,119,001,1,recog,76,SPUDS,LF,lure,-,-,-,liberal,no,m,1,0.753307323955,1,255
2019_Oct_10,119,001,1,recog,77,LANGUAGE,HF,target,left,aqua,imageability,conservative,no,z,1,0.85920291348,1,256
2019_Oct_10,119,001,1,recog,78,SIFTED,LF,lure,-,-,-,liberal,no,m,1,1.04739281763,1,257
2019_Oct_10,119,001,1,recog,79,ANSWER,HF,target,left,aqua,imageability,liberal,no,z,1,1.50616079134,3,260
2019_Oct_10,119,001,1,recog,80,GOUGED,LF,lure,-,-,-,liberal,no,m,1,0.859099897571,1,261
2019_Oct_10,119,001,1,recog,81,AMULETS,LF,target,right,yellow,pleasantness,conservative,yes,m,0,1.00007442075,-1,260
2019_Oct_10,119,001,1,recog,82,LAWFUL,LF,target,right,yellow,pleasantness,liberal,no,m,0,2.28276987419,-3,257
2019_Oct_10,119,001,1,recog,83,QUOTAS,LF,target,right,yellow,pleasantness,conservative,no,z,1,0.894470648531,1,258
2019_Oct_10,119,001,1,recog,84,ANGERS,LF,lure,-,-,-,liberal,no,m,1,0.894378264156,1,259
2019_Oct_10,119,001,1,recog,85,DILATED,LF,target,right,yellow,pleasantness,liberal,no,z,1,0.776844076438,3,262
2019_Oct_10,119,001,1,recog,86,FLAGGED,LF,target,left,aqua,imageability,conservative,no,z,1,0.859216111248,1,263
2019_Oct_10,119,001,1,recog,87,IMPORTANT,HF,target,right,yellow,pleasantness,liberal,no,z,1,1.65916947914,3,266
2019_Oct_10,119,001,1,recog,88,HOWEVER,HF,lure,-,-,-,liberal,no,m,1,0.941514458521,1,267
2019_Oct_10,119,001,1,recog,89,TRUTH,HF,lure,-,-,-,liberal,no,m,1,0.823898884569,1,268
2019_Oct_10,119,001,1,recog,90,USING,HF,lure,-,-,-,conservative,no,m,1,0.70616013145,3,271
2019_Oct_10,119,001,1,recog,91,KRONOR,LF,target,left,aqua,imageability,conservative,no,z,1,0.823853792195,1,272
2019_Oct_10,119,001,1,recog,92,SINCE,HF,target,left,aqua,imageability,conservative,no,z,1,1.00034130894,1,273
2019_Oct_10,119,001,1,recog,93,REQUIRED,HF,target,right,yellow,pleasantness,conservative,no,m,0,1.16515979931,-1,272
2019_Oct_10,119,001,1,recog,94,BUSINESS,HF,lure,-,-,-,liberal,no,m,1,1.31798995063,1,273
2019_Oct_10,119,001,1,recog,95,PELTED,LF,target,right,yellow,pleasantness,conservative,no,z,1,0.917940678966,1,274
2019_Oct_10,119,001,2,source,0,INORGANIC,LF,target,right,yellow,pleasantness,liberal,no,2,0,2.9298421327,-,-
2019_Oct_10,119,001,2,source,1,SUMMER,HF,target,left,aqua,imageability,conservative,no,7,0,2.78837196002,-,-
2019_Oct_10,119,001,2,source,2,SUDDENLY,HF,target,right,yellow,pleasantness,conservative,no,3,0,1.22360024841,-,-
2019_Oct_10,119,001,2,source,3,LOCAL,HF,target,right,yellow,pleasantness,conservative,no,3,0,3.08272910775,-,-
2019_Oct_10,119,001,2,source,4,NESTING,LF,target,right,yellow,pleasantness,liberal,no,8,1,1.38859837506,-,-
2019_Oct_10,119,001,2,source,5,DOUBT,HF,target,right,yellow,pleasantness,liberal,no,8,1,0.988414192879,-,-
2019_Oct_10,119,001,2,source,6,WHITE,HF,target,left,aqua,imageability,conservative,no,3,1,2.87077478962,-,-
2019_Oct_10,119,001,2,source,7,NECESSARY,HF,target,left,aqua,imageability,conservative,no,3,1,1.65923473477,-,-
2019_Oct_10,119,001,2,source,8,GREATER,HF,target,left,aqua,imageability,conservative,no,7,0,2.2001243523,-,-
2019_Oct_10,119,001,2,source,9,QUESTION,HF,target,right,yellow,pleasantness,conservative,no,3,0,2.22391076256,-,-
2019_Oct_10,119,001,2,source,10,HOMESTEAD,LF,target,left,aqua,imageability,liberal,yes,3,1,0.941294495724,-,-
2019_Oct_10,119,001,2,source,11,UNMADE,LF,target,left,aqua,imageability,liberal,no,3,1,2.29446822894,-,-
2019_Oct_10,119,001,2,source,12,LOVELIEST,LF,target,left,aqua,imageability,conservative,no,2,1,1.45918773605,-,-
2019_Oct_10,119,001,2,source,13,DAILIES,LF,target,right,yellow,pleasantness,conservative,no,8,1,1.6236198251,-,-
2019_Oct_10,119,001,2,source,14,TIMES,HF,target,left,aqua,imageability,liberal,yes,7,0,0.859241040365,-,-
2019_Oct_10,119,001,2,source,15,RIVER,HF,target,right,yellow,pleasantness,conservative,no,7,1,2.60037965579,-,-
2019_Oct_10,119,001,2,source,16,NIGHT,HF,target,left,aqua,imageability,liberal,no,2,1,1.16505018451,-,-
2019_Oct_10,119,001,2,source,17,GIMMICKS,LF,target,left,aqua,imageability,conservative,no,2,1,1.6827593893,-,-
2019_Oct_10,119,001,2,source,18,REBATE,LF,target,right,yellow,pleasantness,conservative,no,9,1,2.14132316421,-,-
2019_Oct_10,119,001,2,source,19,AFRAID,HF,target,right,yellow,pleasantness,liberal,no,8,1,3.35340249452,-,-
2019_Oct_10,119,001,2,source,20,PAINTWORK,LF,target,left,aqua,imageability,conservative,no,3,1,2.31799068384,-,-
2019_Oct_10,119,001,2,source,21,CHAIR,HF,target,left,aqua,imageability,conservative,no,7,0,1.56523180046,-,-
2019_Oct_10,119,001,2,source,22,WEIRDLY,LF,target,right,yellow,pleasantness,liberal,no,9,1,1.54148168406,-,-
2019_Oct_10,119,001,2,source,23,JAILS,LF,target,left,aqua,imageability,liberal,no,2,1,1.58832679433,-,-
2019_Oct_10,119,001,2,source,24,PULSAR,LF,target,left,aqua,imageability,liberal,no,1,1,1.18854184462,-,-
2019_Oct_10,119,001,2,source,25,MUGGING,LF,target,right,yellow,pleasantness,conservative,no,9,1,1.17655350558,-,-
2019_Oct_10,119,001,2,source,26,UNDER,HF,target,left,aqua,imageability,liberal,no,2,1,1.17677860085,-,-
2019_Oct_10,119,001,2,source,27,SIGNPOST,LF,target,right,yellow,pleasantness,conservative,no,3,0,2.82411554792,-,-
2019_Oct_10,119,001,2,source,28,EASILY,HF,target,right,yellow,pleasantness,conservative,no,3,0,2.32975429422,-,-
2019_Oct_10,119,001,2,source,29,SAMENESS,LF,target,right,yellow,pleasantness,liberal,no,8,1,1.36506565523,-,-
2019_Oct_10,119,001,2,source,30,NOTHING,HF,target,right,yellow,pleasantness,liberal,no,7,1,2.29443633433,-,-
2019_Oct_10,119,001,2,source,31,QUICKLY,HF,target,left,aqua,imageability,liberal,no,7,0,1.40011049465,-,-
2019_Oct_10,119,001,2,source,32,HISTORY,HF,target,left,aqua,imageability,liberal,no,7,0,1.11806906392,-,-
2019_Oct_10,119,001,2,source,33,SONAR,LF,target,left,aqua,imageability,liberal,no,2,1,1.6001135008,-,-
2019_Oct_10,119,001,2,source,34,CAFETERIA,LF,target,right,yellow,pleasantness,conservative,no,9,1,1.09448501943,-,-
2019_Oct_10,119,001,2,source,35,WHETHER,HF,target,right,yellow,pleasantness,conservative,no,8,1,1.15331700232,-,-
2019_Oct_10,119,001,2,source,36,UPSTART,LF,target,left,aqua,imageability,conservative,no,3,1,1.90600769723,-,-
2019_Oct_10,119,001,2,source,37,GLIDED,LF,target,right,yellow,pleasantness,liberal,no,9,1,1.04720694906,-,-
2019_Oct_10,119,001,2,source,38,GOBBLE,LF,target,right,yellow,pleasantness,liberal,no,2,0,0.918075589482,-,-
2019_Oct_10,119,001,2,source,39,BIKINI,LF,target,left,aqua,imageability,conservative,yes,3,1,0.65913208546,-,-
2019_Oct_10,119,001,2,source,40,BODICE,LF,target,left,aqua,imageability,liberal,no,1,1,1.60022751485,-,-
2019_Oct_10,119,001,2,source,41,SIBLINGS,LF,target,right,yellow,pleasantness,conservative,no,8,1,1.22368933334,-,-
2019_Oct_10,119,001,2,source,42,COUNCIL,HF,target,right,yellow,pleasantness,liberal,no,3,0,1.87097055651,-,-
2019_Oct_10,119,001,2,source,43,POINT,HF,target,right,yellow,pleasantness,liberal,yes,7,1,0.635721811584,-,-
2019_Oct_10,119,001,2,source,44,RATHER,HF,target,left,aqua,imageability,liberal,no,7,0,1.24711830406,-,-
2019_Oct_10,119,001,2,source,45,FEVERS,LF,target,left,aqua,imageability,conservative,no,2,1,2.5650851586,-,-
2019_Oct_10,119,001,2,source,46,MAKES,HF,target,left,aqua,imageability,conservative,no,7,0,2.49447233491,-,-
2019_Oct_10,119,001,2,source,47,FLOOR,HF,target,right,yellow,pleasantness,liberal,no,2,0,1.90630244738,-,-
2019_Oct_10,119,001,2,recog,0,PYJAMA,LF,lure,-,-,-,conservative,no,m,1,1.57681577456,3,277
2019_Oct_10,119,001,2,recog,1,WEIRDLY,LF,target,right,yellow,pleasantness,liberal,no,z,1,0.847486228496,3,280
2019_Oct_10,119,001,2,recog,2,RALLIED,LF,lure,-,-,-,liberal,no,z,0,1.71771294415,-1,279
2019_Oct_10,119,001,2,recog,3,AFRAID,HF,target,right,yellow,pleasantness,liberal,no,z,1,0.753272863117,3,282
2019_Oct_10,119,001,2,recog,4,ALKALINE,LF,lure,-,-,-,liberal,no,m,1,0.906221794354,1,283
2019_Oct_10,119,001,2,recog,5,QUESTION,HF,target,right,yellow,pleasantness,conservative,no,z,1,1.29446016364,1,284
2019_Oct_10,119,001,2,recog,6,JAILS,LF,target,left,aqua,imageability,liberal,no,z,1,0.906362203939,3,287
2019_Oct_10,119,001,2,recog,7,PARENTS,HF,lure,-,-,-,conservative,no,m,1,0.964822816301,3,290
2019_Oct_10,119,001,2,recog,8,GREATER,HF,target,left,aqua,imageability,conservative,no,z,1,1.05920995229,1,291
2019_Oct_10,119,001,2,recog,9,UNMADE,LF,target,left,aqua,imageability,liberal,no,z,1,0.870779922089,3,294
2019_Oct_10,119,001,2,recog,10,REBATE,LF,target,right,yellow,pleasantness,conservative,no,z,1,0.823893385499,1,295
2019_Oct_10,119,001,2,recog,11,PERHAPS,HF,lure,-,-,-,liberal,no,m,1,0.800318139525,1,296
2019_Oct_10,119,001,2,recog,12,NECESSARY,HF,target,left,aqua,imageability,conservative,no,m,0,1.16503552033,-1,295
2019_Oct_10,119,001,2,recog,13,MAKES,HF,target,left,aqua,imageability,conservative,no,z,1,0.941444803636,1,296
2019_Oct_10,119,001,2,recog,14,HIMSELF,HF,lure,-,-,-,conservative,no,m,1,0.694455911024,3,299
2019_Oct_10,119,001,2,recog,15,GOBBLE,LF,target,right,yellow,pleasantness,liberal,no,z,1,0.988585030652,3,302
2019_Oct_10,119,001,2,recog,16,RIPEN,LF,lure,-,-,-,liberal,no,m,1,0.97681115534,1,303
2019_Oct_10,119,001,2,recog,17,HUNDRED,HF,lure,-,-,-,conservative,no,m,1,0.741500454223,3,306
2019_Oct_10,119,001,2,recog,18,CHAIR,HF,target,left,aqua,imageability,conservative,no,z,1,0.9414184081,1,307
2019_Oct_10,119,001,2,recog,19,SIGNPOST,LF,target,right,yellow,pleasantness,conservative,no,z,1,0.776850308718,1,308
2019_Oct_10,119,001,2,recog,20,NOBLEMAN,LF,lure,-,-,-,liberal,no,m,1,0.753258932139,1,309
2019_Oct_10,119,001,2,recog,21,SUMMER,HF,target,left,aqua,imageability,conservative,no,z,1,0.80032327199,1,310
2019_Oct_10,119,001,2,recog,22,QUICKLY,HF,target,left,aqua,imageability,liberal,no,z,1,1.8238229974,3,313
2019_Oct_10,119,001,2,recog,23,SIBLINGS,LF,target,right,yellow,pleasantness,conservative,no,z,1,0.682763788551,1,314
2019_Oct_10,119,001,2,recog,24,MERELY,HF,lure,-,-,-,liberal,yes,z,0,1.03569006362,-1,313
2019_Oct_10,119,001,2,recog,25,HOMESTEAD,LF,target,left,aqua,imageability,liberal,no,m,0,2.52984345248,-3,310
2019_Oct_10,119,001,2,recog,26,FIGURE,HF,lure,-,-,-,liberal,no,z,0,1.35327234987,-1,309
2019_Oct_10,119,001,2,recog,27,GROUND,HF,lure,-,-,-,conservative,no,z,0,1.04742434563,-3,306
2019_Oct_10,119,001,2,recog,28,BROUGHT,HF,lure,-,-,-,liberal,no,m,1,0.953282834763,1,307
2019_Oct_10,119,001,2,recog,29,RIVER,HF,target,right,yellow,pleasantness,conservative,no,z,1,0.776802283507,1,308
2019_Oct_10,119,001,2,recog,30,WHITE,HF,target,left,aqua,imageability,conservative,no,z,1,0.82386515694,1,309
2019_Oct_10,119,001,2,recog,31,CANNOT,HF,lure,-,-,-,liberal,no,m,1,0.670940788215,1,310
2019_Oct_10,119,001,2,recog,32,SONAR,LF,target,left,aqua,imageability,liberal,no,z,1,0.671003477612,3,313
2019_Oct_10,119,001,2,recog,33,UPSTART,LF,target,left,aqua,imageability,conservative,no,z,1,1.01210785216,1,314
2019_Oct_10,119,001,2,recog,34,DAILIES,LF,target,right,yellow,pleasantness,conservative,no,z,1,0.706163064287,1,315
2019_Oct_10,119,001,2,recog,35,WHETHER,HF,target,right,yellow,pleasantness,conservative,no,z,1,0.588468303727,1,316
2019_Oct_10,119,001,2,recog,36,PAINTWORK,LF,target,left,aqua,imageability,conservative,yes,m,0,0.882547198517,-1,315
2019_Oct_10,119,001,2,recog,37,GOVERNS,LF,lure,-,-,-,liberal,no,m,1,2.52985775006,1,316
2019_Oct_10,119,001,2,recog,38,DEFEATING,LF,lure,-,-,-,liberal,no,m,1,0.753424637446,1,317
2019_Oct_10,119,001,2,recog,39,PHYSICAL,HF,lure,-,-,-,conservative,no,m,1,0.706293575546,3,320
2019_Oct_10,119,001,2,recog,40,SAVOURED,LF,lure,-,-,-,liberal,no,m,1,0.870894669348,1,321
2019_Oct_10,119,001,2,recog,41,SUDDENLY,HF,target,right,yellow,pleasantness,conservative,no,z,1,1.02381647184,1,322
2019_Oct_10,119,001,2,recog,42,FLOOR,HF,target,right,yellow,pleasantness,liberal,no,z,1,0.670676466254,3,325
2019_Oct_10,119,001,2,recog,43,BLUECOATS,LF,lure,-,-,-,conservative,no,m,1,0.718094946208,3,328
2019_Oct_10,119,001,2,recog,44,DAUGHTER,HF,lure,-,-,-,conservative,no,m,1,0.635671586746,3,331
2019_Oct_10,119,001,2,recog,45,ROADWAY,LF,lure,-,-,-,conservative,no,m,1,0.659064996807,3,334
2019_Oct_10,119,001,2,recog,46,UNDER,HF,target,left,aqua,imageability,liberal,no,z,1,0.988311543574,3,337
2019_Oct_10,119,001,2,recog,47,NIGHT,HF,target,left,aqua,imageability,liberal,no,z,1,0.612109905145,3,340
2019_Oct_10,119,001,2,recog,48,TALKING,HF,lure,-,-,-,liberal,no,m,1,0.635548040975,1,341
2019_Oct_10,119,001,2,recog,49,INORGANIC,LF,target,right,yellow,pleasantness,liberal,no,z,1,0.811786633154,3,344
2019_Oct_10,119,001,2,recog,50,MONEY,HF,lure,-,-,-,liberal,no,m,1,0.988572199489,1,345
2019_Oct_10,119,001,2,recog,51,FLUFF,LF,lure,-,-,-,conservative,no,m,1,0.670964250913,3,348
2019_Oct_10,119,001,2,recog,52,BIKINI,LF,target,left,aqua,imageability,conservative,no,z,1,0.588664437221,1,349
2019_Oct_10,119,001,2,recog,53,RECENT,HF,lure,-,-,-,liberal,no,z,0,1.09443772743,-1,348
2019_Oct_10,119,001,2,recog,54,TIMES,HF,target,left,aqua,imageability,liberal,no,z,1,0.588632909221,3,351
2019_Oct_10,119,001,2,recog,55,BLEACH,LF,lure,-,-,-,conservative,no,m,1,0.835374343686,3,354
2019_Oct_10,119,001,2,recog,56,SLOWLY,HF,lure,-,-,-,liberal,no,m,1,1.1415896858,1,355
2019_Oct_10,119,001,2,recog,57,CYANIDE,LF,lure,-,-,-,conservative,no,m,1,0.741499354409,3,358
2019_Oct_10,119,001,2,recog,58,INACTION,LF,lure,-,-,-,conservative,no,m,1,0.859138024455,3,361
2019_Oct_10,119,001,2,recog,59,BOWER,LF,lure,-,-,-,liberal,no,m,1,0.694494404513,1,362
2019_Oct_10,119,001,2,recog,60,NOTHING,HF,target,right,yellow,pleasantness,liberal,yes,z,1,1.24738372583,3,365
2019_Oct_10,119,001,2,recog,61,EIDERDOWN,LF,lure,-,-,-,conservative,no,m,1,1.67094152142,3,368
2019_Oct_10,119,001,2,recog,62,BEHIND,HF,lure,-,-,-,conservative,no,m,1,0.729731711377,3,371
2019_Oct_10,119,001,2,recog,63,DOUBT,HF,target,right,yellow,pleasantness,liberal,no,z,1,0.670758952303,3,374
2019_Oct_10,119,001,2,recog,64,HISTORY,HF,target,left,aqua,imageability,liberal,no,z,1,0.659037501457,3,377
2019_Oct_10,119,001,2,recog,65,SLACKEN,LF,lure,-,-,-,liberal,no,m,1,0.623899177853,1,378
2019_Oct_10,119,001,2,recog,66,LOCAL,HF,target,right,yellow,pleasantness,conservative,no,z,1,0.765074233778,1,379
2019_Oct_10,119,001,2,recog,67,LEARN,HF,lure,-,-,-,liberal,no,m,1,0.80034050241,1,380
2019_Oct_10,119,001,2,recog,68,BETTER,HF,lure,-,-,-,conservative,no,m,1,1.9767766945,3,383
2019_Oct_10,119,001,2,recog,69,GLIDED,LF,target,right,yellow,pleasantness,liberal,no,z,1,0.765030974428,3,386
2019_Oct_10,119,001,2,recog,70,POLICE,HF,lure,-,-,-,liberal,no,m,1,0.694224583482,1,387
2019_Oct_10,119,001,2,recog,71,RATHER,HF,target,left,aqua,imageability,liberal,no,z,1,0.647389371544,3,390
2019_Oct_10,119,001,2,recog,72,OMELETTE,LF,lure,-,-,-,liberal,no,m,1,0.635605597907,1,391
2019_Oct_10,119,001,2,recog,73,COUNCIL,HF,target,right,yellow,pleasantness,liberal,no,z,1,0.635713013073,3,394
2019_Oct_10,119,001,2,recog,74,GIMMICKS,LF,target,left,aqua,imageability,conservative,no,z,1,0.753345084235,1,395
2019_Oct_10,119,001,2,recog,75,COLDEST,LF,lure,-,-,-,conservative,no,m,1,1.02398987585,3,398
2019_Oct_10,119,001,2,recog,76,MUGGING,LF,target,right,yellow,pleasantness,conservative,no,z,1,0.694203320412,1,399
2019_Oct_10,119,001,2,recog,77,LOVELIEST,LF,target,left,aqua,imageability,conservative,no,m,0,0.694266009809,-1,398
2019_Oct_10,119,001,2,recog,78,POINT,HF,target,right,yellow,pleasantness,liberal,no,m,0,1.81210301298,-3,395
2019_Oct_10,119,001,2,recog,79,NESTING,LF,target,right,yellow,pleasantness,liberal,no,z,1,0.741475525106,3,398
2019_Oct_10,119,001,2,recog,80,CAFETERIA,LF,target,right,yellow,pleasantness,conservative,no,z,1,1.15302151896,1,399
2019_Oct_10,119,001,2,recog,81,REACHED,HF,lure,-,-,-,liberal,no,m,1,0.835823801001,1,400
2019_Oct_10,119,001,2,recog,82,EXACTLY,HF,lure,-,-,-,conservative,no,m,1,0.800314840083,3,403
2019_Oct_10,119,001,2,recog,83,FEVERS,LF,target,left,aqua,imageability,conservative,no,z,1,0.670737689232,1,404
2019_Oct_10,119,001,2,recog,84,WIPERS,LF,lure,-,-,-,liberal,no,m,1,0.741516218224,1,405
2019_Oct_10,119,001,2,recog,85,GLEANED,LF,lure,-,-,-,conservative,no,m,1,0.988599328234,3,408
2019_Oct_10,119,001,2,recog,86,BIBLES,LF,lure,-,-,-,conservative,no,m,1,0.647398903266,3,411
2019_Oct_10,119,001,2,recog,87,BODICE,LF,target,left,aqua,imageability,liberal,no,z,1,0.69448157335,3,414
2019_Oct_10,119,001,2,recog,88,TACITLY,LF,lure,-,-,-,liberal,no,m,1,0.694424749627,1,415
2019_Oct_10,119,001,2,recog,89,PULSAR,LF,target,left,aqua,imageability,liberal,no,z,1,0.623665650683,3,418
2019_Oct_10,119,001,2,recog,90,EASILY,HF,target,right,yellow,pleasantness,conservative,no,z,1,0.988577331954,1,419
2019_Oct_10,119,001,2,recog,91,SMALL,HF,lure,-,-,-,conservative,no,m,1,0.670923557796,3,422
2019_Oct_10,119,001,2,recog,92,WIRING,LF,lure,-,-,-,conservative,yes,m,1,0.77682611281,3,425
2019_Oct_10,119,001,2,recog,93,THOUSAND,HF,lure,-,-,-,conservative,no,m,1,1.08269574673,3,428
2019_Oct_10,119,001,2,recog,94,SAMENESS,LF,target,right,yellow,pleasantness,liberal,no,z,1,0.976804556456,3,431
2019_Oct_10,119,001,2,recog,95,MILES,HF,lure,-,-,-,conservative,no,m,1,0.788555995563,3,434
2019_Oct_10,119,001,3,source,0,SUPPORT,HF,target,left,aqua,imageability,conservative,no,2,1,2.44758469851,-,-
2019_Oct_10,119,001,3,source,1,CREAK,LF,target,left,aqua,imageability,conservative,no,1,1,1.41211239806,-,-
2019_Oct_10,119,001,3,source,2,TRADE,HF,target,right,yellow,pleasantness,conservative,no,8,1,1.09440546622,-,-
2019_Oct_10,119,001,3,source,3,WHATEVER,HF,target,left,aqua,imageability,conservative,yes,7,0,0.870899068605,-,-
2019_Oct_10,119,001,3,source,4,MEETING,HF,target,left,aqua,imageability,conservative,no,2,1,2.02388685994,-,-
2019_Oct_10,119,001,3,source,5,RODENTS,LF,target,left,aqua,imageability,conservative,no,1,1,1.32975172799,-,-
2019_Oct_10,119,001,3,source,6,VENDETTA,LF,target,right,yellow,pleasantness,liberal,no,8,1,1.28239520422,-,-
2019_Oct_10,119,001,3,source,7,VIGILANT,LF,target,left,aqua,imageability,liberal,no,2,1,1.07071583959,-,-
2019_Oct_10,119,001,3,source,8,FIANCE,LF,target,right,yellow,pleasantness,conservative,no,9,1,1.05922571629,-,-
2019_Oct_10,119,001,3,source,9,BLACK,HF,target,right,yellow,pleasantness,conservative,no,2,0,2.38848766045,-,-
2019_Oct_10,119,001,3,source,10,EIGHT,HF,target,left,aqua,imageability,conservative,no,3,1,1.10629005614,-,-
2019_Oct_10,119,001,3,source,11,WRITE,HF,target,right,yellow,pleasantness,conservative,no,3,0,1.20025669658,-,-
2019_Oct_10,119,001,3,source,12,CAKED,LF,target,left,aqua,imageability,liberal,no,2,1,1.14150646654,-,-
2019_Oct_10,119,001,3,source,13,EAVES,LF,target,left,aqua,imageability,conservative,no,7,0,1.41217325443,-,-
2019_Oct_10,119,001,3,source,14,JUDICIOUS,LF,target,right,yellow,pleasantness,liberal,yes,7,1,0.57683557121,-,-
2019_Oct_10,119,001,3,source,15,THEORY,HF,target,left,aqua,imageability,liberal,no,7,0,1.96476819221,-,-
2019_Oct_10,119,001,3,source,16,ASPIRED,LF,target,left,aqua,imageability,liberal,no,7,0,1.02393745138,-,-
2019_Oct_10,119,001,3,source,17,ABUSING,LF,target,right,yellow,pleasantness,liberal,no,9,1,1.45919250191,-,-
2019_Oct_10,119,001,3,source,18,JEWELLED,LF,target,right,yellow,pleasantness,liberal,no,9,1,1.12970949513,-,-
2019_Oct_10,119,001,3,source,19,BUILDING,HF,target,left,aqua,imageability,liberal,no,7,0,1.56481937022,-,-
2019_Oct_10,119,001,3,source,20,KNOWLEDGE,HF,target,right,yellow,pleasantness,conservative,no,8,1,1.29422480345,-,-
2019_Oct_10,119,001,3,source,21,ATHEIST,LF,target,right,yellow,pleasantness,liberal,no,8,1,1.89433940406,-,-
2019_Oct_10,119,001,3,source,22,BAIZE,LF,target,right,yellow,pleasantness,conservative,no,8,1,2.00036733787,-,-
2019_Oct_10,119,001,3,source,23,RELAXES,LF,target,right,yellow,pleasantness,conservative,no,3,0,1.58864830662,-,-
2019_Oct_10,119,001,3,source,24,GETTING,HF,target,right,yellow,pleasantness,liberal,no,7,1,2.27093844194,-,-
2019_Oct_10,119,001,3,source,25,LIKELY,HF,target,right,yellow,pleasantness,liberal,no,3,0,1.21214055329,-,-
2019_Oct_10,119,001,3,source,26,WASHBASIN,LF,target,right,yellow,pleasantness,liberal,yes,3,0,0.552922315739,-,-
2019_Oct_10,119,001,3,source,27,UMPIRE,LF,target,left,aqua,imageability,conservative,no,2,1,1.62401685795,-,-
2019_Oct_10,119,001,3,source,28,YORKER,LF,target,right,yellow,pleasantness,conservative,no,7,1,1.28250188618,-,-
2019_Oct_10,119,001,3,source,29,HEMMED,LF,target,right,yellow,pleasantness,conservative,no,8,1,0.917979905666,-,-
2019_Oct_10,119,001,3,source,30,CARRIED,HF,target,right,yellow,pleasantness,liberal,no,2,0,1.41216665555,-,-
2019_Oct_10,119,001,3,source,31,BEECHES,LF,target,left,aqua,imageability,conservative,no,2,1,1.09444542613,-,-
2019_Oct_10,119,001,3,source,32,TELEPHONE,HF,target,right,yellow,pleasantness,conservative,no,8,1,1.07088374453,-,-
2019_Oct_10,119,001,3,source,33,PRIVATE,HF,target,right,yellow,pleasantness,conservative,no,8,1,1.047453674,-,-
2019_Oct_10,119,001,3,source,34,DALES,LF,target,left,aqua,imageability,liberal,no,3,1,1.29450232317,-,-
2019_Oct_10,119,001,3,source,35,TAKEN,HF,target,left,aqua,imageability,liberal,no,7,0,1.64732924838,-,-
2019_Oct_10,119,001,3,source,36,IMMEDIACY,LF,target,right,yellow,pleasantness,conservative,no,9,1,1.21217868018,-,-
2019_Oct_10,119,001,3,source,37,GLASS,HF,target,right,yellow,pleasantness,liberal,no,9,1,0.953221611785,-,-
2019_Oct_10,119,001,3,source,38,ANIMAL,HF,target,left,aqua,imageability,liberal,no,2,1,1.94156065071,-,-
2019_Oct_10,119,001,3,source,39,INVOLVED,HF,target,left,aqua,imageability,liberal,no,3,1,1.69460108647,-,-
2019_Oct_10,119,001,3,source,40,HEALTH,HF,target,left,aqua,imageability,conservative,no,7,0,1.32973266455,-,-
2019_Oct_10,119,001,3,source,41,OPENED,HF,target,left,aqua,imageability,liberal,no,3,1,1.28263313065,-,-
2019_Oct_10,119,001,3,source,42,WRONG,HF,target,left,aqua,imageability,conservative,yes,3,1,0.623769033198,-,-
2019_Oct_10,119,001,3,source,43,TODAY,HF,target,right,yellow,pleasantness,liberal,no,3,0,1.56511412037,-,-
2019_Oct_10,119,001,3,source,44,BRING,HF,target,right,yellow,pleasantness,liberal,no,3,0,2.09462689544,-,-
2019_Oct_10,119,001,3,source,45,PEWTER,LF,target,left,aqua,imageability,conservative,no,2,1,2.28262176591,-,-
2019_Oct_10,119,001,3,source,46,SCABS,LF,target,left,aqua,imageability,liberal,no,8,0,3.47099827183,-,-
2019_Oct_10,119,001,3,source,47,JEALOUSLY,LF,target,left,aqua,imageability,liberal,no,8,0,2.95338988332,-,-
2019_Oct_10,119,001,3,recog,0,UMBILICAL,LF,lure,-,-,-,liberal,no,m,1,1.2827940701,1,435
2019_Oct_10,119,001,3,recog,1,UNWARY,LF,lure,-,-,-,liberal,no,m,1,0.859167352828,1,436
2019_Oct_10,119,001,3,recog,2,LIKELY,HF,target,right,yellow,pleasantness,liberal,no,z,1,0.941545619918,3,439
2019_Oct_10,119,001,3,recog,3,HEALTH,HF,target,left,aqua,imageability,conservative,no,z,1,0.82351761572,1,440
2019_Oct_10,119,001,3,recog,4,JUDICIOUS,LF,target,right,yellow,pleasantness,liberal,no,m,0,0.812131241536,-3,437
2019_Oct_10,119,001,3,recog,5,BUILDING,HF,target,left,aqua,imageability,liberal,no,z,1,1.04735212451,3,440
2019_Oct_10,119,001,3,recog,6,PLACE,HF,lure,-,-,-,liberal,no,m,1,0.741555078318,1,441
2019_Oct_10,119,001,3,recog,7,WASHBASIN,LF,target,right,yellow,pleasantness,liberal,no,z,1,0.965040946075,3,444
2019_Oct_10,119,001,3,recog,8,EDUCATION,HF,lure,-,-,-,conservative,no,m,1,1.35316566791,3,447
2019_Oct_10,119,001,3,recog,9,ATHEIST,LF,target,right,yellow,pleasantness,liberal,no,z,1,0.906190266353,3,450
2019_Oct_10,119,001,3,recog,10,OPENED,HF,target,left,aqua,imageability,liberal,yes,z,1,1.00031674643,3,453
2019_Oct_10,119,001,3,recog,11,WHATEVER,HF,target,left,aqua,imageability,conservative,no,z,1,2.42382468378,1,454
2019_Oct_10,119,001,3,recog,12,HEMMED,LF,target,right,yellow,pleasantness,conservative,no,z,1,0.800083512542,1,455
2019_Oct_10,119,001,3,recog,13,MURPHY,LF,lure,-,-,-,liberal,no,m,1,0.671030606357,1,456
2019_Oct_10,119,001,3,recog,14,FEELING,HF,lure,-,-,-,conservative,no,m,1,0.90617743519,3,459
2019_Oct_10,119,001,3,recog,15,PEWTER,LF,target,left,aqua,imageability,conservative,no,z,1,0.670964250913,1,460
2019_Oct_10,119,001,3,recog,16,GLASS,HF,target,right,yellow,pleasantness,liberal,no,z,1,0.588643174151,3,463
2019_Oct_10,119,001,3,recog,17,GETTING,HF,target,right,yellow,pleasantness,liberal,no,z,1,0.8589055971,3,466
2019_Oct_10,119,001,3,recog,18,DALES,LF,target,left,aqua,imageability,liberal,no,z,1,0.623781131152,3,469
2019_Oct_10,119,001,3,recog,19,AUBURN,LF,lure,-,-,-,liberal,no,m,1,0.635700915118,1,470
2019_Oct_10,119,001,3,recog,20,SUPPORT,HF,target,left,aqua,imageability,conservative,no,m,0,1.38868636018,-1,469
2019_Oct_10,119,001,3,recog,21,VENDETTA,LF,target,right,yellow,pleasantness,liberal,no,z,1,0.859056271616,3,472
2019_Oct_10,119,001,3,recog,22,INLAID,LF,lure,-,-,-,conservative,no,m,1,1.54152091076,3,475
2019_Oct_10,119,001,3,recog,23,THEORY,HF,target,left,aqua,imageability,liberal,no,z,1,0.918040395434,3,478
2019_Oct_10,119,001,3,recog,24,BAIZE,LF,target,right,yellow,pleasantness,conservative,no,z,1,0.847333354352,1,479
2019_Oct_10,119,001,3,recog,25,CONCERNED,HF,lure,-,-,-,conservative,no,m,1,0.706249582987,3,482
2019_Oct_10,119,001,3,recog,26,CUSTODIAN,LF,lure,-,-,-,conservative,no,m,1,0.788631882727,3,485
2019_Oct_10,119,001,3,recog,27,SERIOUS,HF,lure,-,-,-,conservative,no,m,1,0.682784685017,3,488
2019_Oct_10,119,001,3,recog,28,BEGAN,HF,lure,-,-,-,liberal,no,m,1,0.717733840616,1,489
2019_Oct_10,119,001,3,recog,29,HANDS,HF,lure,-,-,-,liberal,yes,z,0,0.753216405999,-1,488
2019_Oct_10,119,001,3,recog,30,TODAY,HF,target,right,yellow,pleasantness,liberal,no,z,1,2.1883042848,3,491
2019_Oct_10,119,001,3,recog,31,PUFFS,LF,lure,-,-,-,conservative,no,m,1,0.659123286948,3,494
2019_Oct_10,119,001,3,recog,32,EAVES,LF,target,left,aqua,imageability,conservative,no,z,1,0.682677636456,1,495
2019_Oct_10,119,001,3,recog,33,UMPIRE,LF,target,left,aqua,imageability,conservative,no,z,1,0.600345928159,1,496
2019_Oct_10,119,001,3,recog,34,ABHORRENT,LF,lure,-,-,-,conservative,no,m,1,0.729858189984,3,499
2019_Oct_10,119,001,3,recog,35,YORKER,LF,target,right,yellow,pleasantness,conservative,no,z,1,0.670665101509,1,500
2019_Oct_10,119,001,3,recog,36,BEECHES,LF,target,left,aqua,imageability,conservative,no,z,1,1.11797228029,1,501
2019_Oct_10,119,001,3,recog,37,ALREADY,HF,lure,-,-,-,conservative,no,z,0,0.894498510485,-3,498
2019_Oct_10,119,001,3,recog,38,FINAL,HF,lure,-,-,-,liberal,no,m,1,0.941475965032,1,499
2019_Oct_10,119,001,3,recog,39,WRITE,HF,target,right,yellow,pleasantness,conservative,no,z,1,1.45921156535,1,500
2019_Oct_10,119,001,3,recog,40,SEWED,LF,lure,-,-,-,liberal,no,m,1,0.823846826707,1,501
2019_Oct_10,119,001,3,recog,41,BLACK,HF,target,right,yellow,pleasantness,conservative,no,z,1,0.741472225664,1,502
2019_Oct_10,119,001,3,recog,42,TRADE,HF,target,right,yellow,pleasantness,conservative,no,z,1,0.612091574912,1,503
2019_Oct_10,119,001,3,recog,43,ANIMAL,HF,target,left,aqua,imageability,liberal,no,z,1,0.506257574969,3,506
2019_Oct_10,119,001,3,recog,44,RODENTS,LF,target,left,aqua,imageability,conservative,no,z,1,0.812084682744,1,507
2019_Oct_10,119,001,3,recog,45,JAMMING,LF,lure,-,-,-,conservative,no,m,1,0.658924953826,3,510
2019_Oct_10,119,001,3,recog,46,PEOPLED,LF,lure,-,-,-,liberal,no,m,1,1.04734699205,1,511
2019_Oct_10,119,001,3,recog,47,JEWELLED,LF,target,right,yellow,pleasantness,liberal,no,z,1,0.623954535156,3,514
2019_Oct_10,119,001,3,recog,48,TOTAL,HF,lure,-,-,-,conservative,no,z,0,1.20032928431,-3,511
2019_Oct_10,119,001,3,recog,49,OFFER,HF,lure,-,-,-,liberal,no,m,1,0.976815554596,1,512
2019_Oct_10,119,001,3,recog,50,ASPIRED,LF,target,left,aqua,imageability,liberal,no,m,0,0.918019498969,-3,509
2019_Oct_10,119,001,3,recog,51,TREES,HF,lure,-,-,-,liberal,no,m,1,0.91796927413,1,510
2019_Oct_10,119,001,3,recog,52,OBNOXIOUS,LF,lure,-,-,-,liberal,no,m,1,0.929464529899,1,511
2019_Oct_10,119,001,3,recog,53,WRONG,HF,target,left,aqua,imageability,conservative,no,m,0,1.20040993733,-1,510
2019_Oct_10,119,001,3,recog,54,SCABS,LF,target,left,aqua,imageability,liberal,no,z,1,0.835344648709,3,513
2019_Oct_10,119,001,3,recog,55,TATTERS,LF,lure,-,-,-,liberal,no,m,1,0.96498082291,1,514
2019_Oct_10,119,001,3,recog,56,MEETING,HF,target,left,aqua,imageability,conservative,no,z,1,0.741435565198,1,515
2019_Oct_10,119,001,3,recog,57,TELEPHONE,HF,target,right,yellow,pleasantness,conservative,no,z,1,0.612073244679,1,516
2019_Oct_10,119,001,3,recog,58,HAPPEN,HF,lure,-,-,-,conservative,no,m,1,0.718009893927,3,519
2019_Oct_10,119,001,3,recog,59,IDOLATRY,LF,lure,-,-,-,conservative,no,m,1,1.88271510345,3,522
2019_Oct_10,119,001,3,recog,60,AROUND,HF,lure,-,-,-,liberal,no,m,1,1.82385782485,1,523
2019_Oct_10,119,001,3,recog,61,BRING,HF,target,right,yellow,pleasantness,liberal,no,z,1,1.05925944392,3,526
2019_Oct_10,119,001,3,recog,62,DESERTER,LF,lure,-,-,-,liberal,no,m,1,1.00011548047,1,527
2019_Oct_10,119,001,3,recog,63,RUNNING,HF,lure,-,-,-,conservative,no,m,1,0.788491839747,3,530
2019_Oct_10,119,001,3,recog,64,WANTED,HF,lure,-,-,-,conservative,yes,m,1,0.753468263401,3,533
2019_Oct_10,119,001,3,recog,65,FOUND,HF,lure,-,-,-,conservative,no,z,0,1.31776155593,-3,530
2019_Oct_10,119,001,3,recog,66,CARRIED,HF,target,right,yellow,pleasantness,liberal,no,z,1,2.98857916498,3,533
2019_Oct_10,119,001,3,recog,67,WHOLE,HF,lure,-,-,-,liberal,no,m,1,0.870851776603,1,534
2019_Oct_10,119,001,3,recog,68,INVOLVED,HF,target,left,aqua,imageability,liberal,no,m,0,0.823735012284,-3,531
2019_Oct_10,119,001,3,recog,69,CAKED,LF,target,left,aqua,imageability,liberal,no,z,1,0.694426949256,3,534
2019_Oct_10,119,001,3,recog,70,INHABITS,LF,lure,-,-,-,liberal,no,m,1,0.859062503895,1,535
2019_Oct_10,119,001,3,recog,71,ASKED,HF,lure,-,-,-,liberal,no,m,1,0.729487186067,1,536
2019_Oct_10,119,001,3,recog,72,CREAK,LF,target,left,aqua,imageability,conservative,no,z,1,0.659181577089,1,537
2019_Oct_10,119,001,3,recog,73,TILTS,LF,lure,-,-,-,conservative,no,m,1,0.612026319282,3,540
2019_Oct_10,119,001,3,recog,74,JEALOUSLY,LF,target,left,aqua,imageability,liberal,no,z,1,0.823777171821,3,543
2019_Oct_10,119,001,3,recog,75,RELAXES,LF,target,right,yellow,pleasantness,conservative,no,z,1,0.706253615638,1,544
2019_Oct_10,119,001,3,recog,76,EIGHT,HF,target,left,aqua,imageability,conservative,no,z,1,0.941461300845,1,545
2019_Oct_10,119,001,3,recog,77,KNOWLEDGE,HF,target,right,yellow,pleasantness,conservative,no,z,1,0.623941337389,1,546
2019_Oct_10,119,001,3,recog,78,BESOTTED,LF,lure,-,-,-,liberal,no,m,1,0.635567104417,1,547
2019_Oct_10,119,001,3,recog,79,VOICE,HF,lure,-,-,-,liberal,no,m,1,0.870983021072,1,548
2019_Oct_10,119,001,3,recog,80,TAKEN,HF,target,left,aqua,imageability,liberal,no,m,0,0.706426286434,-3,545
2019_Oct_10,119,001,3,recog,81,PITCHER,LF,lure,-,-,-,conservative,no,z,0,1.58840634754,-3,542
2019_Oct_10,119,001,3,recog,82,GIRLS,HF,lure,-,-,-,liberal,no,m,1,1.18868042118,1,543
2019_Oct_10,119,001,3,recog,83,DROLL,LF,lure,-,-,-,conservative,no,m,1,0.96501858319,3,546
2019_Oct_10,119,001,3,recog,84,DEPARTS,LF,lure,-,-,-,conservative,no,m,1,0.941521790614,3,549
2019_Oct_10,119,001,3,recog,85,MAILBOX,LF,lure,-,-,-,liberal,yes,z,0,0.776834911322,-1,548
2019_Oct_10,119,001,3,recog,86,SEDAN,LF,lure,-,-,-,conservative,no,m,1,1.1415504591,3,551
2019_Oct_10,119,001,3,recog,87,COMES,HF,lure,-,-,-,liberal,no,m,1,1.40035575316,1,552
2019_Oct_10,119,001,3,recog,88,IMMEDIACY,LF,target,right,yellow,pleasantness,conservative,no,z,1,1.01207339132,1,553
2019_Oct_10,119,001,3,recog,89,FIANCE,LF,target,right,yellow,pleasantness,conservative,no,z,1,0.671005310635,1,554
2019_Oct_10,119,001,3,recog,90,KETCHUP,LF,lure,-,-,-,conservative,no,m,1,0.58854712373,3,557
2019_Oct_10,119,001,3,recog,91,DOCTOR,HF,lure,-,-,-,conservative,no,m,1,0.55325116012,3,560
2019_Oct_10,119,001,3,recog,92,NATIONAL,HF,lure,-,-,-,conservative,no,m,1,0.682789817482,3,563
2019_Oct_10,119,001,3,recog,93,PRIVATE,HF,target,right,yellow,pleasantness,conservative,no,z,1,0.77682611281,1,564
2019_Oct_10,119,001,3,recog,94,ABUSING,LF,target,right,yellow,pleasantness,liberal,no,z,1,1.35312607461,3,567
2019_Oct_10,119,001,3,recog,95,VIGILANT,LF,target,left,aqua,imageability,liberal,no,z,1,0.964817317231,3,570
2019_Oct_10,119,001,4,source,0,IRRIGATED,LF,target,right,yellow,pleasantness,conservative,no,8,1,1.92981390414,-,-
2019_Oct_10,119,001,4,source,1,LABOUR,HF,target,left,aqua,imageability,conservative,no,2,1,1.90597690244,-,-
2019_Oct_10,119,001,4,source,2,CHIEF,HF,target,left,aqua,imageability,conservative,no,8,0,1.2707698038,-,-
2019_Oct_10,119,001,4,source,3,RIDDLES,LF,target,left,aqua,imageability,conservative,no,2,1,0.976804189851,-,-
2019_Oct_10,119,001,4,source,4,WATCH,HF,target,right,yellow,pleasantness,liberal,no,3,0,1.08276283538,-,-
2019_Oct_10,119,001,4,source,5,URCHIN,LF,target,right,yellow,pleasantness,conservative,no,8,1,2.58862007806,-,-
2019_Oct_10,119,001,4,source,6,WALKED,HF,target,right,yellow,pleasantness,conservative,no,8,1,1.89448347969,-,-
2019_Oct_10,119,001,4,source,7,SMIRK,LF,target,left,aqua,imageability,conservative,no,2,1,1.23562744754,-,-
2019_Oct_10,119,001,4,source,8,GALACTIC,LF,target,left,aqua,imageability,liberal,no,2,1,1.85892282752,-,-
2019_Oct_10,119,001,4,source,9,RANGE,HF,target,right,yellow,pleasantness,conservative,no,8,1,1.05911573489,-,-
2019_Oct_10,119,001,4,source,10,NEPHEWS,LF,target,right,yellow,pleasantness,liberal,no,7,1,1.31790929761,-,-
2019_Oct_10,119,001,4,source,11,PHANTOMS,LF,target,right,yellow,pleasantness,conservative,no,9,1,1.55324309482,-,-
2019_Oct_10,119,001,4,source,12,CASES,HF,target,right,yellow,pleasantness,liberal,no,8,1,2.62408101376,-,-
2019_Oct_10,119,001,4,source,13,KILOWATT,LF,target,right,yellow,pleasantness,conservative,no,9,1,1.80043655283,-,-
2019_Oct_10,119,001,4,source,14,WISPY,LF,target,right,yellow,pleasantness,conservative,no,7,1,1.34148344377,-,-
2019_Oct_10,119,001,4,source,15,CHURCH,HF,target,right,yellow,pleasantness,conservative,yes,3,0,0.788242181972,-,-
2019_Oct_10,119,001,4,source,16,DOLPHIN,LF,target,right,yellow,pleasantness,conservative,no,9,1,1.32977372427,-,-
2019_Oct_10,119,001,4,source,17,RAPACIOUS,LF,target,left,aqua,imageability,conservative,no,1,1,1.67092135817,-,-
2019_Oct_10,119,001,4,source,18,TIRADE,LF,target,left,aqua,imageability,liberal,no,2,1,1.00047695266,-,-
2019_Oct_10,119,001,4,source,19,SLYLY,LF,target,right,yellow,pleasantness,liberal,no,9,1,1.09454990846,-,-
2019_Oct_10,119,001,4,source,20,ALLOWED,HF,target,left,aqua,imageability,conservative,no,3,1,1.64734354596,-,-
2019_Oct_10,119,001,4,source,21,LEVEL,HF,target,left,aqua,imageability,liberal,no,2,1,1.14154312701,-,-
2019_Oct_10,119,001,4,source,22,ALONE,HF,target,right,yellow,pleasantness,conservative,yes,3,0,0.8238541588,-,-
2019_Oct_10,119,001,4,source,23,MOTHER,HF,target,left,aqua,imageability,liberal,no,7,0,1.4356381524,-,-
2019_Oct_10,119,001,4,source,24,DIPLOMAS,LF,target,right,yellow,pleasantness,liberal,no,9,1,0.976758364269,-,-
2019_Oct_10,119,001,4,source,25,RUPTURE,LF,target,right,yellow,pleasantness,liberal,no,8,1,1.84719661081,-,-
2019_Oct_10,119,001,4,source,26,TYRANTS,LF,target,left,aqua,imageability,conservative,no,2,1,0.976803090038,-,-
2019_Oct_10,119,001,4,source,27,CLEAR,HF,target,right,yellow,pleasantness,conservative,no,3,0,1.67103610543,-,-
2019_Oct_10,119,001,4,source,28,RAFTERS,LF,target,right,yellow,pleasantness,liberal,yes,7,1,0.894458183972,-,-
2019_Oct_10,119,001,4,source,29,NEARLY,HF,target,right,yellow,pleasantness,liberal,no,7,1,1.49439864738,-,-
2019_Oct_10,119,001,4,source,30,PICTURE,HF,target,right,yellow,pleasantness,conservative,no,3,0,1.23565787573,-,-
2019_Oct_10,119,001,4,source,31,VANDALS,LF,target,left,aqua,imageability,liberal,no,2,1,0.953267070763,-,-
2019_Oct_10,119,001,4,source,32,BAPTIZED,LF,target,left,aqua,imageability,liberal,no,1,1,2.1415658565,-,-
2019_Oct_10,119,001,4,source,33,BOOKS,HF,target,right,yellow,pleasantness,liberal,no,8,1,1.38830985719,-,-
2019_Oct_10,119,001,4,source,34,MOMENT,HF,target,left,aqua,imageability,liberal,no,7,0,1.29448619257,-,-
2019_Oct_10,119,001,4,source,35,WREATH,LF,target,left,aqua,imageability,conservative,no,1,1,1.0474613727,-,-
2019_Oct_10,119,001,4,source,36,TERMS,HF,target,left,aqua,imageability,liberal,no,3,1,1.02381060617,-,-
2019_Oct_10,119,001,4,source,37,SLIGHTLY,HF,target,left,aqua,imageability,conservative,no,3,1,1.15317732594,-,-
2019_Oct_10,119,001,4,source,38,ENERGY,HF,target,left,aqua,imageability,conservative,yes,7,0,0.729520180486,-,-
2019_Oct_10,119,001,4,source,39,SOMEONE,HF,target,left,aqua,imageability,conservative,no,2,1,1.25917263194,-,-
2019_Oct_10,119,001,4,source,40,ZIPPED,LF,target,left,aqua,imageability,liberal,no,3,1,1.08247505072,-,-
2019_Oct_10,119,001,4,source,41,STOOD,HF,target,right,yellow,pleasantness,liberal,no,7,1,0.765057369963,-,-
2019_Oct_10,119,001,4,source,42,JOSTLED,LF,target,left,aqua,imageability,conservative,no,2,1,1.09424122733,-,-
2019_Oct_10,119,001,4,source,43,EVENING,HF,target,left,aqua,imageability,liberal,no,2,1,1.75328276144,-,-
2019_Oct_10,119,001,4,source,44,AREAS,HF,target,right,yellow,pleasantness,liberal,no,3,0,1.77684700928,-,-
2019_Oct_10,119,001,4,source,45,MANDARIN,LF,target,right,yellow,pleasantness,liberal,no,8,1,2.24718539271,-,-
2019_Oct_10,119,001,4,source,46,UNION,HF,target,left,aqua,imageability,liberal,no,8,0,1.84743710347,-,-
2019_Oct_10,119,001,4,source,47,DORMS,LF,target,left,aqua,imageability,liberal,no,1,1,1.51775099771,-,-
2019_Oct_10,119,001,4,recog,0,LABOUR,HF,target,left,aqua,imageability,conservative,no,z,1,1.42406114379,1,571
2019_Oct_10,119,001,4,recog,1,RUPTURE,LF,target,right,yellow,pleasantness,liberal,yes,z,1,0.941525823266,3,574
2019_Oct_10,119,001,4,recog,2,RIDDLES,LF,target,left,aqua,imageability,conservative,no,z,1,0.776805949553,1,575
2019_Oct_10,119,001,4,recog,3,PHANTOMS,LF,target,right,yellow,pleasantness,conservative,no,z,1,0.788550863097,1,576
2019_Oct_10,119,001,4,recog,4,SMIRK,LF,target,left,aqua,imageability,conservative,no,z,1,0.65915958081,1,577
2019_Oct_10,119,001,4,recog,5,WATCH,HF,target,right,yellow,pleasantness,liberal,yes,z,1,0.682668471339,3,580
2019_Oct_10,119,001,4,recog,6,ALONE,HF,target,right,yellow,pleasantness,conservative,no,z,1,0.882645815171,1,581
2019_Oct_10,119,001,4,recog,7,VANDALS,LF,target,left,aqua,imageability,liberal,no,z,1,0.694380757068,3,584
2019_Oct_10,119,001,4,recog,8,SEPULCHRE,LF,lure,-,-,-,liberal,no,m,1,0.988593829164,1,585
2019_Oct_10,119,001,4,recog,9,NEARLY,HF,target,right,yellow,pleasantness,liberal,no,z,1,0.717959302483,3,588
2019_Oct_10,119,001,4,recog,10,ROPED,LF,lure,-,-,-,conservative,no,m,1,0.717985331414,3,591
2019_Oct_10,119,001,4,recog,11,BANALITY,LF,lure,-,-,-,conservative,no,m,1,0.729695050911,3,594
2019_Oct_10,119,001,4,recog,12,AMPLIFY,LF,lure,-,-,-,liberal,no,m,1,0.753007807946,1,595
2019_Oct_10,119,001,4,recog,13,CHIEF,HF,target,left,aqua,imageability,conservative,no,z,1,0.729696150724,1,596
2019_Oct_10,119,001,4,recog,14,AVAILABLE,HF,lure,-,-,-,conservative,no,m,1,1.25892993965,3,599
2019_Oct_10,119,001,4,recog,15,SEEMED,HF,lure,-,-,-,liberal,no,m,1,0.788603287564,1,600
2019_Oct_10,119,001,4,recog,16,CLEAR,HF,target,right,yellow,pleasantness,conservative,no,z,1,0.741594305016,1,601
2019_Oct_10,119,001,4,recog,17,ZIPPED,LF,target,left,aqua,imageability,liberal,no,z,1,0.647365908846,3,604
2019_Oct_10,119,001,4,recog,18,DIZZINESS,LF,lure,-,-,-,conservative,no,m,1,0.718019792253,3,607
2019_Oct_10,119,001,4,recog,19,WREATH,LF,target,left,aqua,imageability,conservative,no,z,1,0.647313117775,1,608
2019_Oct_10,119,001,4,recog,20,KITCHEN,HF,lure,-,-,-,liberal,no,m,1,0.765073133964,1,609
2019_Oct_10,119,001,4,recog,21,RANGE,HF,target,right,yellow,pleasantness,conservative,no,z,1,0.694435381162,1,610
2019_Oct_10,119,001,4,recog,22,CRACKLE,LF,lure,-,-,-,conservative,no,m,1,0.823891552475,3,613
2019_Oct_10,119,001,4,recog,23,SLYLY,LF,target,right,yellow,pleasantness,liberal,no,z,1,0.682739592644,3,616
2019_Oct_10,119,001,4,recog,24,MYSELF,HF,lure,-,-,-,liberal,no,m,1,1.25914000412,1,617
2019_Oct_10,119,001,4,recog,25,RAFTERS,LF,target,right,yellow,pleasantness,liberal,no,z,1,0.859180183992,3,620
2019_Oct_10,119,001,4,recog,26,SCHOOL,HF,lure,-,-,-,liberal,no,z,0,1.27098830018,-1,619
2019_Oct_10,119,001,4,recog,27,GALACTIC,LF,target,left,aqua,imageability,liberal,no,z,1,0.729449059183,3,622
2019_Oct_10,119,001,4,recog,28,LEVEL,HF,target,left,aqua,imageability,liberal,no,z,1,0.753251233441,3,625
2019_Oct_10,119,001,4,recog,29,DURING,HF,lure,-,-,-,conservative,no,m,1,0.694587522097,3,628
2019_Oct_10,119,001,4,recog,30,WISPY,LF,target,right,yellow,pleasantness,conservative,no,z,1,0.600346661368,1,629
2019_Oct_10,119,001,4,recog,31,STOOD,HF,target,right,yellow,pleasantness,liberal,no,z,1,0.917964141664,3,632
2019_Oct_10,119,001,4,recog,32,CAPITAL,HF,lure,-,-,-,conservative,no,m,1,0.718055719509,3,635
2019_Oct_10,119,001,4,recog,33,AFTERNOON,HF,lure,-,-,-,conservative,no,m,1,0.612203755938,3,638
2019_Oct_10,119,001,4,recog,34,YOUNG,HF,lure,-,-,-,liberal,no,m,1,1.05912013415,1,639
2019_Oct_10,119,001,4,recog,35,EITHER,HF,lure,-,-,-,conservative,no,m,1,0.976859180551,3,642
2019_Oct_10,119,001,4,recog,36,NEPHEWS,LF,target,right,yellow,pleasantness,liberal,no,z,1,0.764815410887,3,645
2019_Oct_10,119,001,4,recog,37,CAUGHT,HF,lure,-,-,-,liberal,no,m,1,1.67060864439,1,646
2019_Oct_10,119,001,4,recog,38,LATER,HF,lure,-,-,-,liberal,no,m,1,0.812024192975,1,647
2019_Oct_10,119,001,4,recog,39,EMOTIVE,LF,lure,-,-,-,liberal,yes,z,0,0.765022175916,-1,646
2019_Oct_10,119,001,4,recog,40,UNION,HF,target,left,aqua,imageability,liberal,no,z,1,0.823845360288,3,649
2019_Oct_10,119,001,4,recog,41,DIPLOMAS,LF,target,right,yellow,pleasantness,liberal,no,z,1,0.659194041647,3,652
2019_Oct_10,119,001,4,recog,42,LIGHT,HF,lure,-,-,-,conservative,no,m,1,0.906085050815,3,655
2019_Oct_10,119,001,4,recog,43,ISOLATING,LF,lure,-,-,-,conservative,yes,m,1,0.718068550672,3,658
2019_Oct_10,119,001,4,recog,44,KILOWATT,LF,target,right,yellow,pleasantness,conservative,no,z,1,0.729726945516,1,659
2019_Oct_10,119,001,4,recog,45,BLOOD,HF,lure,-,-,-,conservative,no,m,1,0.682615680268,3,662
2019_Oct_10,119,001,4,recog,46,DWINDLE,LF,lure,-,-,-,conservative,no,m,1,0.600348494391,3,665
2019_Oct_10,119,001,4,recog,47,SITTING,HF,lure,-,-,-,conservative,no,m,1,0.588627043546,3,668
2019_Oct_10,119,001,4,recog,48,ALLOWED,HF,target,left,aqua,imageability,conservative,no,z,1,0.953267437368,1,669
2019_Oct_10,119,001,4,recog,49,FOAMING,LF,lure,-,-,-,conservative,no,m,1,0.647399636475,3,672
2019_Oct_10,119,001,4,recog,50,EARLIER,HF,lure,-,-,-,conservative,no,m,1,1.17686401973,3,675
2019_Oct_10,119,001,4,recog,51,AREAS,HF,target,right,yellow,pleasantness,liberal,no,z,1,0.741490189293,3,678
2019_Oct_10,119,001,4,recog,52,GIBBERISH,LF,lure,-,-,-,conservative,no,m,1,0.800281479059,3,681
2019_Oct_10,119,001,4,recog,53,BOOKS,HF,target,right,yellow,pleasantness,liberal,no,z,1,0.812144439304,3,684
2019_Oct_10,119,001,4,recog,54,JEERED,LF,lure,-,-,-,conservative,no,m,1,0.776818414112,3,687
2019_Oct_10,119,001,4,recog,55,SLEEP,HF,lure,-,-,-,conservative,no,m,1,0.718049120625,3,690
2019_Oct_10,119,001,4,recog,56,PEDALLING,LF,lure,-,-,-,conservative,no,m,1,1.07093103653,3,693
2019_Oct_10,119,001,4,recog,57,TYRANTS,LF,target,left,aqua,imageability,conservative,no,z,1,0.647438863174,1,694
2019_Oct_10,119,001,4,recog,58,TUMBLER,LF,lure,-,-,-,liberal,no,m,1,0.717954170018,1,695
2019_Oct_10,119,001,4,recog,59,EVENING,HF,target,left,aqua,imageability,liberal,no,z,1,0.71795673625,3,698
2019_Oct_10,119,001,4,recog,60,ETHER,LF,lure,-,-,-,liberal,no,m,1,1.09444176008,1,699
2019_Oct_10,119,001,4,recog,61,ENERGY,HF,target,left,aqua,imageability,conservative,no,m,0,1.00011071461,-1,698
2019_Oct_10,119,001,4,recog,62,TIRADE,LF,target,left,aqua,imageability,liberal,no,z,1,0.612102206447,3,701
2019_Oct_10,119,001,4,recog,63,SOMEONE,HF,target,left,aqua,imageability,conservative,no,z,1,0.741502653851,1,702
2019_Oct_10,119,001,4,recog,64,URCHIN,LF,target,right,yellow,pleasantness,conservative,no,z,1,0.529745569033,1,703
2019_Oct_10,119,001,4,recog,65,ANVIL,LF,lure,-,-,-,liberal,no,m,1,0.694230082552,1,704
2019_Oct_10,119,001,4,recog,66,STAFF,HF,lure,-,-,-,liberal,no,m,1,0.694193788691,1,705
2019_Oct_10,119,001,4,recog,67,SLIGHTLY,HF,target,left,aqua,imageability,conservative,no,z,1,0.812233890841,1,706
2019_Oct_10,119,001,4,recog,68,OLDER,HF,lure,-,-,-,conservative,no,z,0,0.870862041533,-3,703
2019_Oct_10,119,001,4,recog,69,ALTHOUGH,HF,lure,-,-,-,conservative,no,z,0,1.00009495061,-3,700
2019_Oct_10,119,001,4,recog,70,NAGGED,LF,lure,-,-,-,conservative,no,m,1,0.624043253484,3,703
2019_Oct_10,119,001,4,recog,71,IRRIGATED,LF,target,right,yellow,pleasantness,conservative,no,z,1,0.906236458541,1,704
2019_Oct_10,119,001,4,recog,72,CASES,HF,target,right,yellow,pleasantness,liberal,no,z,1,1.72972327947,3,707
2019_Oct_10,119,001,4,recog,73,ERSTWHILE,LF,lure,-,-,-,liberal,no,m,1,0.612073977888,1,708
2019_Oct_10,119,001,4,recog,74,MOMENT,HF,target,left,aqua,imageability,liberal,no,m,0,1.63571227986,-3,705
2019_Oct_10,119,001,4,recog,75,JOSTLED,LF,target,left,aqua,imageability,conservative,no,z,1,1.12968273299,1,706
2019_Oct_10,119,001,4,recog,76,ITSELF,HF,lure,-,-,-,liberal,no,m,1,0.694206253249,1,707
2019_Oct_10,119,001,4,recog,77,VARIOUS,HF,lure,-,-,-,liberal,no,m,1,0.753272129907,1,708
2019_Oct_10,119,001,4,recog,78,HUMAN,HF,lure,-,-,-,liberal,no,m,1,0.859169185852,1,709
2019_Oct_10,119,001,4,recog,79,PICTURE,HF,target,right,yellow,pleasantness,conservative,no,z,1,1.1651433021,1,710
2019_Oct_10,119,001,4,recog,80,MANDARIN,LF,target,right,yellow,pleasantness,liberal,no,z,1,0.717901745551,3,713
2019_Oct_10,119,001,4,recog,81,RAPACIOUS,LF,target,left,aqua,imageability,conservative,no,z,1,0.894461483414,1,714
2019_Oct_10,119,001,4,recog,82,SUCCESS,HF,lure,-,-,-,liberal,no,z,0,0.953035743221,-1,713
2019_Oct_10,119,001,4,recog,83,MOTHER,HF,target,left,aqua,imageability,liberal,no,z,1,0.635528610928,3,716
2019_Oct_10,119,001,4,recog,84,DYNAMISM,LF,lure,-,-,-,liberal,no,m,1,0.647303219449,1,717
2019_Oct_10,119,001,4,recog,85,CHURCH,HF,target,right,yellow,pleasantness,conservative,no,z,1,0.870891736511,1,718
2019_Oct_10,119,001,4,recog,86,UNPACK,LF,lure,-,-,-,liberal,no,m,1,0.823636029027,1,719
2019_Oct_10,119,001,4,recog,87,DUMMIES,LF,lure,-,-,-,liberal,no,z,0,1.14123554569,-1,718
2019_Oct_10,119,001,4,recog,88,DOLPHIN,LF,target,right,yellow,pleasantness,conservative,no,z,1,1.18859426909,1,719
2019_Oct_10,119,001,4,recog,89,VIVACIOUS,LF,lure,-,-,-,conservative,no,m,1,1.35297283386,3,722
2019_Oct_10,119,001,4,recog,90,UNRAVEL,LF,lure,-,-,-,liberal,no,m,1,0.894208526198,1,723
2019_Oct_10,119,001,4,recog,91,WALKED,HF,target,right,yellow,pleasantness,conservative,no,m,0,0.859092198873,-1,722
2019_Oct_10,119,001,4,recog,92,TERMS,HF,target,left,aqua,imageability,liberal,no,z,1,1.23564834401,3,725
2019_Oct_10,119,001,4,recog,93,JUBILANT,LF,lure,-,-,-,liberal,no,m,1,0.682935726138,1,726
2019_Oct_10,119,001,4,recog,94,BAPTIZED,LF,target,left,aqua,imageability,liberal,no,z,1,0.894414558018,3,729
2019_Oct_10,119,001,4,recog,95,DORMS,LF,target,left,aqua,imageability,liberal,no,z,1,0.62398239711,3,732
