date,subj,session,cycle,task,trial,item,wf,type,source,colour,encoding,bias,null,response,corr,rt,points,total
2019_Oct_09,12,001,0,source,0,SHALL,HF,target,right,aqua,pleasantness,liberal,no,None,-1,-1,-,-
2019_Oct_09,12,001,0,source,1,AROUND,HF,target,right,aqua,pleasantness,liberal,no,None,-1,-1,-,-
2019_Oct_09,12,001,0,source,2,REUNITED,LF,target,right,aqua,pleasantness,liberal,yes,2,0,2.53352184076,-,-
2019_Oct_09,12,001,0,source,3,ALREADY,HF,target,left,yellow,imageability,liberal,no,7,0,2.95021673588,-,-
2019_Oct_09,12,001,0,source,4,WISPY,LF,target,left,yellow,imageability,liberal,yes,2,1,1.81686257948,-,-
2019_Oct_09,12,001,0,source,5,MEMBERS,HF,target,right,aqua,pleasantness,conservative,no,7,1,2.78352807302,-,-
2019_Oct_09,12,001,0,source,6,ACROSS,HF,target,right,aqua,pleasantness,conservative,no,7,1,2.43352565343,-,-
2019_Oct_09,12,001,0,source,7,HUNDRED,HF,target,left,yellow,imageability,liberal,no,3,1,2.85018278841,-,-
2019_Oct_09,12,001,0,source,8,TABLE,HF,target,left,yellow,imageability,liberal,no,7,0,1.53357206541,-,-
2019_Oct_09,12,001,0,source,9,JUBILANT,LF,target,right,aqua,pleasantness,conservative,no,7,1,1.68326683149,-,-
2019_Oct_09,12,001,0,source,10,NEEDED,HF,target,right,aqua,pleasantness,liberal,no,7,1,1.06659752528,-,-
2019_Oct_09,12,001,0,source,11,CIVILITY,LF,target,right,aqua,pleasantness,liberal,no,9,1,3.8001132071,-,-
2019_Oct_09,12,001,0,source,12,SIZZLING,LF,target,right,aqua,pleasantness,liberal,no,9,1,0.883608579104,-,-
2019_Oct_09,12,001,0,source,13,TITAN,LF,target,right,aqua,pleasantness,conservative,no,9,1,1.0169066452,-,-
2019_Oct_09,12,001,0,source,14,GLIDED,LF,target,left,yellow,imageability,conservative,no,9,0,0.933621703503,-,-
2019_Oct_09,12,001,0,source,15,ANVIL,LF,target,right,aqua,pleasantness,conservative,no,9,1,0.966943012247,-,-
2019_Oct_09,12,001,0,source,16,ZEALOTS,LF,target,right,aqua,pleasantness,conservative,no,7,1,2.65013615647,-,-
2019_Oct_09,12,001,0,source,17,PASSED,HF,target,right,aqua,pleasantness,conservative,no,9,1,0.883353789798,-,-
2019_Oct_09,12,001,0,source,18,INROADS,LF,target,right,aqua,pleasantness,liberal,no,7,1,3.00013014418,-,-
2019_Oct_09,12,001,0,source,19,WHATEVER,HF,target,left,yellow,imageability,conservative,no,9,0,1.30020265831,-,-
2019_Oct_09,12,001,0,source,20,FAKING,LF,target,left,yellow,imageability,conservative,no,9,0,0.966877756857,-,-
2019_Oct_09,12,001,0,source,21,PAGANISM,LF,target,right,aqua,pleasantness,conservative,no,9,1,0.850307433542,-,-
2019_Oct_09,12,001,0,source,22,INDEED,HF,target,left,yellow,imageability,liberal,no,7,0,3.50012831116,-,-
2019_Oct_09,12,001,0,source,23,OLDER,HF,target,left,yellow,imageability,liberal,no,2,1,2.83345687865,-,-
2019_Oct_09,12,001,0,source,24,HYDRAULIC,LF,target,left,yellow,imageability,conservative,no,1,1,1.13361114533,-,-
2019_Oct_09,12,001,0,source,25,RUNNING,HF,target,left,yellow,imageability,conservative,no,7,0,2.08349610521,-,-
2019_Oct_09,12,001,0,source,26,OCTAGONAL,LF,target,left,yellow,imageability,liberal,no,1,1,1.26686595223,-,-
2019_Oct_09,12,001,0,source,27,NUCLEAR,HF,target,left,yellow,imageability,liberal,no,7,0,2.0999492621,-,-
2019_Oct_09,12,001,0,source,28,RASCAL,LF,target,left,yellow,imageability,liberal,no,7,0,2.01689271427,-,-
2019_Oct_09,12,001,0,source,29,UMPIRE,LF,target,right,aqua,pleasantness,liberal,no,8,1,1.56685268119,-,-
2019_Oct_09,12,001,0,source,30,MESSED,LF,target,left,yellow,imageability,liberal,no,2,1,1.95014011579,-,-
2019_Oct_09,12,001,0,source,31,ROLLERS,LF,target,left,yellow,imageability,conservative,no,3,1,2.15023110673,-,-
2019_Oct_09,12,001,0,source,32,SITTING,HF,target,right,aqua,pleasantness,liberal,no,9,1,1.26666468701,-,-
2019_Oct_09,12,001,0,source,33,SEEMED,HF,target,right,aqua,pleasantness,conservative,no,7,1,2.68324703491,-,-
2019_Oct_09,12,001,0,source,34,OPTIC,LF,target,left,yellow,imageability,liberal,no,3,1,1.8335063701,-,-
2019_Oct_09,12,001,0,source,35,JAUNDICE,LF,target,right,aqua,pleasantness,liberal,no,9,1,1.95035934457,-,-
2019_Oct_09,12,001,0,source,36,MOTHER,HF,target,left,yellow,imageability,conservative,no,9,0,1.84996722566,-,-
2019_Oct_09,12,001,0,source,37,CANNOT,HF,target,right,aqua,pleasantness,conservative,no,3,0,2.8001132071,-,-
2019_Oct_09,12,001,0,source,38,EITHER,HF,target,right,aqua,pleasantness,conservative,no,3,0,2.89987073567,-,-
2019_Oct_09,12,001,0,source,39,ERUDITE,LF,target,left,yellow,imageability,conservative,no,2,1,1.58357492492,-,-
2019_Oct_09,12,001,0,source,40,SYRINGE,LF,target,right,aqua,pleasantness,conservative,no,9,1,0.95002206952,-,-
2019_Oct_09,12,001,0,source,41,ABATED,LF,target,left,yellow,imageability,liberal,no,3,1,2.25014480831,-,-
2019_Oct_09,12,001,0,source,42,BEYOND,HF,target,left,yellow,imageability,conservative,no,8,0,3.15003460735,-,-
2019_Oct_09,12,001,0,source,43,LOCAL,HF,target,right,aqua,pleasantness,liberal,yes,7,1,1.66689835996,-,-
2019_Oct_09,12,001,0,source,44,PREPARED,HF,target,left,yellow,imageability,conservative,no,3,1,3.68342667054,-,-
2019_Oct_09,12,001,0,source,45,GNARLED,LF,target,left,yellow,imageability,conservative,yes,2,1,1.03334660437,-,-
2019_Oct_09,12,001,0,source,46,WALKED,HF,target,right,aqua,pleasantness,liberal,no,9,1,2.45013681636,-,-
2019_Oct_09,12,001,0,source,47,SOVIET,HF,target,left,yellow,imageability,conservative,no,1,1,1.11693472701,-,-
2019_Oct_09,12,001,0,recog,0,MORNING,HF,lure,-,-,-,liberal,no,m,1,1.30013813613,1,1
2019_Oct_09,12,001,0,recog,1,MEMBERS,HF,target,right,aqua,pleasantness,conservative,no,z,1,1.38348430058,1,2
2019_Oct_09,12,001,0,recog,2,JAUNDICE,LF,target,right,aqua,pleasantness,liberal,no,z,1,1.18349632517,3,5
2019_Oct_09,12,001,0,recog,3,PUCKERED,LF,lure,-,-,-,liberal,no,m,1,0.93354508341,1,6
2019_Oct_09,12,001,0,recog,4,WHATEVER,HF,target,left,yellow,imageability,conservative,no,z,1,0.933598240891,1,7
2019_Oct_09,12,001,0,recog,5,ALREADY,HF,target,left,yellow,imageability,liberal,no,z,1,1.10018058879,3,10
2019_Oct_09,12,001,0,recog,6,PURCHASER,LF,lure,-,-,-,liberal,no,m,1,1.633553222,1,11
2019_Oct_09,12,001,0,recog,7,QUALITY,HF,lure,-,-,-,conservative,no,m,1,1.50022399463,3,14
2019_Oct_09,12,001,0,recog,8,SYRINGE,LF,target,right,aqua,pleasantness,conservative,no,z,1,0.966926881702,1,15
2019_Oct_09,12,001,0,recog,9,TOYED,LF,lure,-,-,-,conservative,no,m,1,0.833317935994,3,18
2019_Oct_09,12,001,0,recog,10,MESSED,LF,target,left,yellow,imageability,liberal,no,z,1,0.750283750968,3,21
2019_Oct_09,12,001,0,recog,11,WITHIN,HF,lure,-,-,-,liberal,no,m,1,0.883512529035,1,22
2019_Oct_09,12,001,0,recog,12,ALTHOUGH,HF,lure,-,-,-,liberal,no,m,1,1.21687922327,1,23
2019_Oct_09,12,001,0,recog,13,ACROSS,HF,target,right,aqua,pleasantness,conservative,no,z,1,2.45018704101,1,24
2019_Oct_09,12,001,0,recog,14,POTASH,LF,lure,-,-,-,liberal,no,m,1,1.98349735166,1,25
2019_Oct_09,12,001,0,recog,15,CANNOT,HF,target,right,aqua,pleasantness,conservative,no,z,1,1.50018586788,1,26
2019_Oct_09,12,001,0,recog,16,BEYOND,HF,target,left,yellow,imageability,conservative,no,z,1,1.68355644811,1,27
2019_Oct_09,12,001,0,recog,17,SARDINES,LF,lure,-,-,-,liberal,no,m,1,1.61684857523,1,28
2019_Oct_09,12,001,0,recog,18,SHALL,HF,target,right,aqua,pleasantness,liberal,no,z,1,1.66683530419,3,31
2019_Oct_09,12,001,0,recog,19,BECAME,HF,lure,-,-,-,liberal,no,m,1,1.26686705204,1,32
2019_Oct_09,12,001,0,recog,20,INDEED,HF,target,left,yellow,imageability,liberal,no,z,1,1.10027077321,3,35
2019_Oct_09,12,001,0,recog,21,OCTAGONAL,LF,target,left,yellow,imageability,liberal,no,z,1,0.733310383966,3,38
2019_Oct_09,12,001,0,recog,22,REUNITED,LF,target,right,aqua,pleasantness,liberal,no,z,1,1.16690642524,3,41
2019_Oct_09,12,001,0,recog,23,OLDER,HF,target,left,yellow,imageability,liberal,yes,z,1,1.66694491858,3,44
2019_Oct_09,12,001,0,recog,24,GNARLED,LF,target,left,yellow,imageability,conservative,yes,m,0,1.48353804463,-1,43
2019_Oct_09,12,001,0,recog,25,ENOUGH,HF,lure,-,-,-,conservative,no,z,0,2.08351003613,-3,40
2019_Oct_09,12,001,0,recog,26,MOTHER,HF,target,left,yellow,imageability,conservative,no,z,1,1.13350299735,1,41
2019_Oct_09,12,001,0,recog,27,LOCAL,HF,target,right,aqua,pleasantness,liberal,no,z,1,1.80026974672,3,44
2019_Oct_09,12,001,0,recog,28,THING,HF,lure,-,-,-,conservative,no,m,1,1.00031381244,3,47
2019_Oct_09,12,001,0,recog,29,LOGGED,LF,lure,-,-,-,conservative,no,m,1,1.9669272483,3,50
2019_Oct_09,12,001,0,recog,30,NEEDED,HF,target,right,aqua,pleasantness,liberal,no,z,1,0.983563340255,3,53
2019_Oct_09,12,001,0,recog,31,HUNDRED,HF,target,left,yellow,imageability,liberal,no,z,1,0.833567959457,3,56
2019_Oct_09,12,001,0,recog,32,SEEMED,HF,target,right,aqua,pleasantness,conservative,no,z,1,1.13352829298,1,57
2019_Oct_09,12,001,0,recog,33,OPPOSES,LF,lure,-,-,-,conservative,no,m,1,0.900287197039,3,60
2019_Oct_09,12,001,0,recog,34,SOVIET,HF,target,left,yellow,imageability,conservative,no,z,1,0.900223774665,1,61
2019_Oct_09,12,001,0,recog,35,SOLEMNITY,LF,lure,-,-,-,conservative,no,m,1,1.28354017093,3,64
2019_Oct_09,12,001,0,recog,36,CYANIDE,LF,lure,-,-,-,conservative,no,m,1,1.2832828154,3,67
2019_Oct_09,12,001,0,recog,37,CHURCH,HF,lure,-,-,-,conservative,no,m,1,0.883614811361,3,70
2019_Oct_09,12,001,0,recog,38,RELAXES,LF,lure,-,-,-,liberal,no,m,1,1.05020302492,1,71
2019_Oct_09,12,001,0,recog,39,OPTIC,LF,target,left,yellow,imageability,liberal,no,z,1,0.766978499449,3,74
2019_Oct_09,12,001,0,recog,40,ANVIL,LF,target,right,aqua,pleasantness,conservative,no,z,1,1.08360535299,1,75
2019_Oct_09,12,001,0,recog,41,TITAN,LF,target,right,aqua,pleasantness,conservative,no,z,1,0.900270333286,1,76
2019_Oct_09,12,001,0,recog,42,JUBILANT,LF,target,right,aqua,pleasantness,conservative,no,z,1,0.666806709134,1,77
2019_Oct_09,12,001,0,recog,43,TERMS,HF,lure,-,-,-,liberal,no,m,1,0.933410906595,1,78
2019_Oct_09,12,001,0,recog,44,EITHER,HF,target,right,aqua,pleasantness,conservative,no,z,1,1.36690686516,1,79
2019_Oct_09,12,001,0,recog,45,LEDGES,LF,lure,-,-,-,conservative,no,m,1,1.25018256845,3,82
2019_Oct_09,12,001,0,recog,46,SIZZLING,LF,target,right,aqua,pleasantness,liberal,no,z,1,0.71680296978,3,85
2019_Oct_09,12,001,0,recog,47,TROUBLE,HF,lure,-,-,-,liberal,no,m,1,1.18363966707,1,86
2019_Oct_09,12,001,0,recog,48,PASSED,HF,target,right,aqua,pleasantness,conservative,no,z,1,0.900228173905,1,87
2019_Oct_09,12,001,0,recog,49,PAGANISM,LF,target,right,aqua,pleasantness,conservative,no,z,1,0.816989424227,1,88
2019_Oct_09,12,001,0,recog,50,CIVILITY,LF,target,right,aqua,pleasantness,liberal,no,z,1,0.850247677201,3,91
2019_Oct_09,12,001,0,recog,51,ZEALOTS,LF,target,right,aqua,pleasantness,conservative,no,z,1,0.833614884681,1,92
2019_Oct_09,12,001,0,recog,52,PYJAMA,LF,lure,-,-,-,liberal,no,m,1,0.933521620797,1,93
2019_Oct_09,12,001,0,recog,53,POLICE,HF,lure,-,-,-,liberal,no,m,1,0.96688692194,1,94
2019_Oct_09,12,001,0,recog,54,GROUND,HF,lure,-,-,-,liberal,no,m,1,0.967000568968,1,95
2019_Oct_09,12,001,0,recog,55,PLEASE,HF,lure,-,-,-,conservative,no,m,1,0.78351744152,3,98
2019_Oct_09,12,001,0,recog,56,GLIDED,LF,target,left,yellow,imageability,conservative,no,z,1,0.900279498369,1,99
2019_Oct_09,12,001,0,recog,57,RASCAL,LF,target,left,yellow,imageability,liberal,no,z,1,0.750243424603,3,102
2019_Oct_09,12,001,0,recog,58,GLOBULAR,LF,lure,-,-,-,conservative,no,m,1,0.833588122639,3,105
2019_Oct_09,12,001,0,recog,59,HISTORY,HF,lure,-,-,-,conservative,no,m,1,0.833655211046,3,108
2019_Oct_09,12,001,0,recog,60,OPENED,HF,lure,-,-,-,liberal,no,m,1,1.68334895063,1,109
2019_Oct_09,12,001,0,recog,61,TAILED,LF,lure,-,-,-,liberal,no,m,1,0.783609458952,1,110
2019_Oct_09,12,001,0,recog,62,MUTATIONS,LF,lure,-,-,-,conservative,no,m,1,1.55008277903,3,113
2019_Oct_09,12,001,0,recog,63,SPICED,LF,lure,-,-,-,liberal,no,m,1,0.950227367378,1,114
2019_Oct_09,12,001,0,recog,64,ENTIRELY,HF,lure,-,-,-,liberal,no,m,1,1.81679475787,1,115
2019_Oct_09,12,001,0,recog,65,HYDRAULIC,LF,target,left,yellow,imageability,conservative,no,z,1,0.733558207808,1,116
2019_Oct_09,12,001,0,recog,66,LAPELS,LF,lure,-,-,-,liberal,no,m,1,0.966915516999,1,117
2019_Oct_09,12,001,0,recog,67,GARDEN,HF,lure,-,-,-,conservative,no,m,1,0.833559894184,3,120
2019_Oct_09,12,001,0,recog,68,DINER,LF,lure,-,-,-,conservative,no,m,1,0.866854074283,3,123
2019_Oct_09,12,001,0,recog,69,WISPY,LF,target,left,yellow,imageability,liberal,no,z,1,0.80030274102,3,126
2019_Oct_09,12,001,0,recog,70,LIVED,HF,lure,-,-,-,conservative,no,m,1,0.90018674773,3,129
2019_Oct_09,12,001,0,recog,71,FERRET,LF,lure,-,-,-,conservative,no,m,1,0.766871084676,3,132
2019_Oct_09,12,001,0,recog,72,FAKING,LF,target,left,yellow,imageability,conservative,no,z,1,1.01667715152,1,133
2019_Oct_09,12,001,0,recog,73,SITTING,HF,target,right,aqua,pleasantness,liberal,no,z,1,0.833614151475,3,136
2019_Oct_09,12,001,0,recog,74,ABATED,LF,target,left,yellow,imageability,liberal,no,z,1,1.33351443537,3,139
2019_Oct_09,12,001,0,recog,75,STUDENT,HF,lure,-,-,-,conservative,no,m,1,0.900280598179,3,142
2019_Oct_09,12,001,0,recog,76,VOICE,HF,lure,-,-,-,conservative,no,m,1,1.15018784754,3,145
2019_Oct_09,12,001,0,recog,77,NUCLEAR,HF,target,left,yellow,imageability,liberal,no,z,1,0.750256255719,3,148
2019_Oct_09,12,001,0,recog,78,ROLLERS,LF,target,left,yellow,imageability,conservative,yes,m,0,1.45003600045,-1,147
2019_Oct_09,12,001,0,recog,79,AROUND,HF,target,right,aqua,pleasantness,liberal,no,z,1,2.00016460489,3,150
2019_Oct_09,12,001,0,recog,80,LIZARD,LF,lure,-,-,-,conservative,no,m,1,0.850219448746,3,153
2019_Oct_09,12,001,0,recog,81,PREPARED,HF,target,left,yellow,imageability,conservative,no,m,0,2.41697058082,-1,152
2019_Oct_09,12,001,0,recog,82,ERUDITE,LF,target,left,yellow,imageability,conservative,no,z,1,1.41660837674,1,153
2019_Oct_09,12,001,0,recog,83,MAJOR,HF,lure,-,-,-,conservative,no,m,1,1.00019210014,3,156
2019_Oct_09,12,001,0,recog,84,SECOND,HF,lure,-,-,-,conservative,no,m,1,1.3002008253,3,159
2019_Oct_09,12,001,0,recog,85,TABLE,HF,target,left,yellow,imageability,liberal,no,z,1,0.683614004833,3,162
2019_Oct_09,12,001,0,recog,86,INROADS,LF,target,right,aqua,pleasantness,liberal,no,z,1,0.900018476807,3,165
2019_Oct_09,12,001,0,recog,87,RUNNING,HF,target,left,yellow,imageability,conservative,no,z,1,2.28352220736,1,166
2019_Oct_09,12,001,0,recog,88,UMPIRE,LF,target,right,aqua,pleasantness,liberal,no,z,1,2.83344258112,3,169
2019_Oct_09,12,001,0,recog,89,KITCHEN,HF,lure,-,-,-,liberal,no,m,1,2.3502366791,1,170
2019_Oct_09,12,001,0,recog,90,NIMBLE,LF,lure,-,-,-,liberal,yes,z,0,1.33358445661,-1,169
2019_Oct_09,12,001,0,recog,91,HESITATES,LF,lure,-,-,-,liberal,no,m,1,3.81677459468,1,170
2019_Oct_09,12,001,0,recog,92,RIVER,HF,lure,-,-,-,liberal,no,m,1,1.33351883461,1,171
2019_Oct_09,12,001,0,recog,93,WALKED,HF,target,right,aqua,pleasantness,liberal,no,z,1,0.883647805659,3,174
2019_Oct_09,12,001,0,recog,94,NIBBLE,LF,lure,-,-,-,conservative,no,m,1,1.20026036168,3,177
2019_Oct_09,12,001,0,recog,95,JEERED,LF,lure,-,-,-,liberal,no,m,1,1.19997111166,1,178
2019_Oct_09,12,001,1,source,0,SERIOUS,HF,target,left,yellow,imageability,conservative,no,7,0,4.1668034097,-,-
2019_Oct_09,12,001,1,source,1,BLOOD,HF,target,right,aqua,pleasantness,liberal,no,9,1,1.33358152378,-,-
2019_Oct_09,12,001,1,source,2,GLEANED,LF,target,right,aqua,pleasantness,conservative,yes,3,0,1.50024195819,-,-
2019_Oct_09,12,001,1,source,3,RECENT,HF,target,left,yellow,imageability,liberal,no,2,1,2.53344961991,-,-
2019_Oct_09,12,001,1,source,4,TELEPHONE,HF,target,right,aqua,pleasantness,conservative,no,9,1,1.70029958823,-,-
2019_Oct_09,12,001,1,source,5,VEHEMENCE,LF,target,left,yellow,imageability,liberal,no,3,1,1.68356451339,-,-
2019_Oct_09,12,001,1,source,6,OFFER,HF,target,right,aqua,pleasantness,conservative,no,2,0,1.73330158549,-,-
2019_Oct_09,12,001,1,source,7,ARPEGGIO,LF,target,right,aqua,pleasantness,liberal,no,9,1,1.13334352491,-,-
2019_Oct_09,12,001,1,source,8,FOLLOWED,HF,target,left,yellow,imageability,conservative,no,9,0,1.16684373607,-,-
2019_Oct_09,12,001,1,source,9,COVER,HF,target,right,aqua,pleasantness,liberal,no,3,0,1.33332820089,-,-
2019_Oct_09,12,001,1,source,10,VOWEL,LF,target,right,aqua,pleasantness,conservative,no,7,1,1.80019825907,-,-
2019_Oct_09,12,001,1,source,11,WHOLE,HF,target,left,yellow,imageability,liberal,no,8,0,1.16667436534,-,-
2019_Oct_09,12,001,1,source,12,HIGHER,HF,target,right,aqua,pleasantness,liberal,no,8,1,3.08317386089,-,-
2019_Oct_09,12,001,1,source,13,VEERED,LF,target,left,yellow,imageability,conservative,no,9,0,1.13362067701,-,-
2019_Oct_09,12,001,1,source,14,ALLOWED,HF,target,right,aqua,pleasantness,conservative,no,9,1,1.06683251801,-,-
2019_Oct_09,12,001,1,source,15,QUICKLY,HF,target,right,aqua,pleasantness,conservative,no,9,1,1.43356671301,-,-
2019_Oct_09,12,001,1,source,16,DIVAN,LF,target,left,yellow,imageability,liberal,no,2,1,2.25017010394,-,-
2019_Oct_09,12,001,1,source,17,GRIEVE,LF,target,left,yellow,imageability,liberal,no,7,0,2.08349720502,-,-
2019_Oct_09,12,001,1,source,18,WARDROBES,LF,target,right,aqua,pleasantness,liberal,no,8,1,1.19997881033,-,-
2019_Oct_09,12,001,1,source,19,WOMAN,HF,target,left,yellow,imageability,liberal,no,1,1,2.85017142371,-,-
2019_Oct_09,12,001,1,source,20,BELIEVE,HF,target,left,yellow,imageability,conservative,no,2,1,2.09994559607,-,-
2019_Oct_09,12,001,1,source,21,UMBILICAL,LF,target,left,yellow,imageability,liberal,no,2,1,1.70027135978,-,-
2019_Oct_09,12,001,1,source,22,CRONE,LF,target,left,yellow,imageability,conservative,no,2,1,1.23333714601,-,-
2019_Oct_09,12,001,1,source,23,FUDGE,LF,target,right,aqua,pleasantness,liberal,no,8,1,1.36685260787,-,-
2019_Oct_09,12,001,1,source,24,TIMES,HF,target,right,aqua,pleasantness,liberal,yes,3,0,1.41682833873,-,-
2019_Oct_09,12,001,1,source,25,DEEPEN,LF,target,left,yellow,imageability,conservative,no,2,1,3.3334176521,-,-
2019_Oct_09,12,001,1,source,26,SURER,LF,target,left,yellow,imageability,liberal,no,2,1,2.43354581662,-,-
2019_Oct_09,12,001,1,source,27,VANDALS,LF,target,left,yellow,imageability,conservative,no,1,1,1.31686697872,-,-
2019_Oct_09,12,001,1,source,28,FATHER,HF,target,right,aqua,pleasantness,liberal,no,9,1,1.18356781282,-,-
2019_Oct_09,12,001,1,source,29,DEMEANOUR,LF,target,right,aqua,pleasantness,conservative,no,8,1,3.28342579069,-,-
2019_Oct_09,12,001,1,source,30,TAMING,LF,target,right,aqua,pleasantness,liberal,no,9,1,0.800284777457,-,-
2019_Oct_09,12,001,1,source,31,ACIDITY,LF,target,right,aqua,pleasantness,conservative,yes,3,0,1.03364062023,-,-
2019_Oct_09,12,001,1,source,32,RESEARCH,HF,target,left,yellow,imageability,liberal,no,2,1,1.5668424163,-,-
2019_Oct_09,12,001,1,source,33,TURNED,HF,target,left,yellow,imageability,liberal,yes,3,1,0.850030281434,-,-
2019_Oct_09,12,001,1,source,34,MUSIC,HF,target,right,aqua,pleasantness,conservative,no,7,1,2.35020001877,-,-
2019_Oct_09,12,001,1,source,35,BLACK,HF,target,left,yellow,imageability,liberal,no,3,1,2.56654106837,-,-
2019_Oct_09,12,001,1,source,36,TESTIFIES,LF,target,right,aqua,pleasantness,liberal,no,7,1,2.11694572511,-,-
2019_Oct_09,12,001,1,source,37,DESERTER,LF,target,right,aqua,pleasantness,conservative,no,8,1,1.45018777422,-,-
2019_Oct_09,12,001,1,source,38,BANALITY,LF,target,left,yellow,imageability,liberal,no,2,1,1.7502214284,-,-
2019_Oct_09,12,001,1,source,39,THANK,HF,target,right,aqua,pleasantness,liberal,no,9,1,1.06683765045,-,-
2019_Oct_09,12,001,1,source,40,HEMMED,LF,target,left,yellow,imageability,conservative,no,1,1,1.16683713721,-,-
2019_Oct_09,12,001,1,source,41,FUTURE,HF,target,left,yellow,imageability,conservative,no,2,1,3.66652259156,-,-
2019_Oct_09,12,001,1,source,42,SPRATS,LF,target,right,aqua,pleasantness,conservative,no,2,0,1.28357903088,-,-
2019_Oct_09,12,001,1,source,43,AUBURN,LF,target,right,aqua,pleasantness,liberal,no,7,1,1.2833385391,-,-
2019_Oct_09,12,001,1,source,44,ANYONE,HF,target,right,aqua,pleasantness,conservative,no,9,1,1.23358020401,-,-
2019_Oct_09,12,001,1,source,45,MOMENT,HF,target,left,yellow,imageability,conservative,no,3,1,3.60007390723,-,-
2019_Oct_09,12,001,1,source,46,YOUNG,HF,target,left,yellow,imageability,conservative,no,2,1,2.03353430527,-,-
2019_Oct_09,12,001,1,source,47,FELLS,LF,target,left,yellow,imageability,conservative,no,1,1,1.31685964665,-,-
2019_Oct_09,12,001,1,recog,0,PLODDED,LF,lure,-,-,-,liberal,no,m,1,1.70013718296,1,179
2019_Oct_09,12,001,1,recog,1,GETTING,HF,lure,-,-,-,conservative,no,m,1,3.36674482649,3,182
2019_Oct_09,12,001,1,recog,2,QUICKLY,HF,target,right,aqua,pleasantness,conservative,no,z,1,0.883653671312,1,183
2019_Oct_09,12,001,1,recog,3,WHOLE,HF,target,left,yellow,imageability,liberal,no,z,1,1.2168718912,3,186
2019_Oct_09,12,001,1,recog,4,VOWEL,LF,target,right,aqua,pleasantness,conservative,no,z,1,1.10025427606,1,187
2019_Oct_09,12,001,1,recog,5,FATHER,HF,target,right,aqua,pleasantness,liberal,no,z,1,0.716933113958,3,190
2019_Oct_09,12,001,1,recog,6,RECENT,HF,target,left,yellow,imageability,liberal,no,z,1,0.833550362497,3,193
2019_Oct_09,12,001,1,recog,7,GLEANED,LF,target,right,aqua,pleasantness,conservative,no,z,1,2.15011049424,1,194
2019_Oct_09,12,001,1,recog,8,TAMING,LF,target,right,aqua,pleasantness,liberal,no,z,1,0.700235432651,3,197
2019_Oct_09,12,001,1,recog,9,WOMAN,HF,target,left,yellow,imageability,liberal,no,z,1,1.25024452441,3,200
2019_Oct_09,12,001,1,recog,10,COVER,HF,target,right,aqua,pleasantness,liberal,no,z,1,1.03360176028,3,203
2019_Oct_09,12,001,1,recog,11,CLEAR,HF,lure,-,-,-,liberal,no,m,1,0.916835304193,1,204
2019_Oct_09,12,001,1,recog,12,AUBURN,LF,target,right,aqua,pleasantness,liberal,no,z,1,0.850303034302,3,207
2019_Oct_09,12,001,1,recog,13,HIGHER,HF,target,right,aqua,pleasantness,liberal,no,z,1,1.21685722707,3,210
2019_Oct_09,12,001,1,recog,14,EXCEPT,HF,lure,-,-,-,conservative,no,m,1,1.25018476807,3,213
2019_Oct_09,12,001,1,recog,15,SUAVE,LF,lure,-,-,-,liberal,no,m,1,0.950210137022,1,214
2019_Oct_09,12,001,1,recog,16,TRIED,HF,lure,-,-,-,liberal,no,m,1,1.23363556111,1,215
2019_Oct_09,12,001,1,recog,17,LULLED,LF,lure,-,-,-,conservative,no,m,1,0.833605719598,3,218
2019_Oct_09,12,001,1,recog,18,METABOLIC,LF,lure,-,-,-,liberal,no,m,1,0.916848135309,1,219
2019_Oct_09,12,001,1,recog,19,DEEPEN,LF,target,left,yellow,imageability,conservative,no,z,1,3.33321272084,1,220
2019_Oct_09,12,001,1,recog,20,PICTURE,HF,lure,-,-,-,conservative,no,m,1,0.850272239624,3,223
2019_Oct_09,12,001,1,recog,21,HOSPITAL,HF,lure,-,-,-,conservative,no,m,1,0.783541637338,3,226
2019_Oct_09,12,001,1,recog,22,MOMENT,HF,target,left,yellow,imageability,conservative,no,z,1,0.983561507238,1,227
2019_Oct_09,12,001,1,recog,23,IDLING,LF,lure,-,-,-,conservative,no,m,1,0.933508789681,3,230
2019_Oct_09,12,001,1,recog,24,ROWAN,LF,lure,-,-,-,conservative,no,m,1,0.983348877314,3,233
2019_Oct_09,12,001,1,recog,25,DEMEANOUR,LF,target,right,aqua,pleasantness,conservative,no,z,1,0.76688134957,1,234
2019_Oct_09,12,001,1,recog,26,FELLS,LF,target,left,yellow,imageability,conservative,yes,m,0,1.18348972631,-1,233
2019_Oct_09,12,001,1,recog,27,PUPPETS,LF,lure,-,-,-,conservative,no,m,1,2.51679813062,3,236
2019_Oct_09,12,001,1,recog,28,FARAWAY,LF,lure,-,-,-,conservative,no,m,1,2.28350571021,3,239
2019_Oct_09,12,001,1,recog,29,IMPORTANT,HF,lure,-,-,-,conservative,no,m,1,2.03354017093,3,242
2019_Oct_09,12,001,1,recog,30,MUSIC,HF,target,right,aqua,pleasantness,conservative,no,z,1,1.58357749114,1,243
2019_Oct_09,12,001,1,recog,31,EXACTLY,HF,lure,-,-,-,conservative,no,z,0,1.76680326306,-3,240
2019_Oct_09,12,001,1,recog,32,HANDS,HF,lure,-,-,-,liberal,no,m,1,2.75007442047,1,241
2019_Oct_09,12,001,1,recog,33,ARRIVED,HF,lure,-,-,-,liberal,no,z,0,1.28349581192,-1,240
2019_Oct_09,12,001,1,recog,34,CUCKOO,LF,lure,-,-,-,liberal,no,m,1,0.966839996715,1,241
2019_Oct_09,12,001,1,recog,35,CLASS,HF,lure,-,-,-,liberal,no,m,1,0.950266227329,1,242
2019_Oct_09,12,001,1,recog,36,MAPPED,LF,lure,-,-,-,liberal,no,m,1,0.800226120926,1,243
2019_Oct_09,12,001,1,recog,37,BLOOD,HF,target,right,aqua,pleasantness,liberal,no,z,1,0.866885602168,3,246
2019_Oct_09,12,001,1,recog,38,VILLAGE,HF,lure,-,-,-,conservative,no,z,0,2.51677723423,-3,243
2019_Oct_09,12,001,1,recog,39,ANSWER,HF,lure,-,-,-,liberal,no,m,1,1.01694697156,1,244
2019_Oct_09,12,001,1,recog,40,THOUSAND,HF,lure,-,-,-,liberal,no,m,1,0.733633361489,1,245
2019_Oct_09,12,001,1,recog,41,VEHEMENCE,LF,target,left,yellow,imageability,liberal,no,z,1,0.750325177143,3,248
2019_Oct_09,12,001,1,recog,42,SERIOUS,HF,target,left,yellow,imageability,conservative,no,z,1,0.983555641585,1,249
2019_Oct_09,12,001,1,recog,43,FOLLOWED,HF,target,left,yellow,imageability,conservative,no,z,1,1.05016856421,1,250
2019_Oct_09,12,001,1,recog,44,TELEPHONE,HF,target,right,aqua,pleasantness,conservative,no,z,1,0.750298415101,1,251
2019_Oct_09,12,001,1,recog,45,FUTURE,HF,target,left,yellow,imageability,conservative,no,z,1,0.683567079609,1,252
2019_Oct_09,12,001,1,recog,46,WARDROBES,LF,target,right,aqua,pleasantness,liberal,no,z,1,0.700269160156,3,255
2019_Oct_09,12,001,1,recog,47,LABOUR,HF,lure,-,-,-,conservative,no,m,1,2.63345570552,3,258
2019_Oct_09,12,001,1,recog,48,CRONE,LF,target,left,yellow,imageability,conservative,no,z,1,0.933554615096,1,259
2019_Oct_09,12,001,1,recog,49,POWER,HF,lure,-,-,-,liberal,no,m,1,0.966893887403,1,260
2019_Oct_09,12,001,1,recog,50,ARPEGGIO,LF,target,right,aqua,pleasantness,liberal,no,z,1,0.750024562422,3,263
2019_Oct_09,12,001,1,recog,51,UMBILICAL,LF,target,left,yellow,imageability,liberal,no,z,1,0.916947851411,3,266
2019_Oct_09,12,001,1,recog,52,SURER,LF,target,left,yellow,imageability,liberal,no,z,1,1.15021021034,3,269
2019_Oct_09,12,001,1,recog,53,GODMOTHER,LF,lure,-,-,-,conservative,no,m,1,0.766890514652,3,272
2019_Oct_09,12,001,1,recog,54,URBANE,LF,lure,-,-,-,conservative,no,m,1,1.65021717581,3,275
2019_Oct_09,12,001,1,recog,55,DAGGERS,LF,lure,-,-,-,conservative,no,m,1,0.816722170409,3,278
2019_Oct_09,12,001,1,recog,56,BUSINESS,HF,lure,-,-,-,conservative,no,m,1,1.61683831034,3,281
2019_Oct_09,12,001,1,recog,57,SPRATS,LF,target,right,aqua,pleasantness,conservative,no,z,1,0.766915443678,1,282
2019_Oct_09,12,001,1,recog,58,VANDALS,LF,target,left,yellow,imageability,conservative,no,z,1,0.850242911358,1,283
2019_Oct_09,12,001,1,recog,59,ALLOWED,HF,target,right,aqua,pleasantness,conservative,no,z,1,1.13363864058,1,284
2019_Oct_09,12,001,1,recog,60,CATALYST,LF,lure,-,-,-,liberal,no,m,1,0.950220035311,1,285
2019_Oct_09,12,001,1,recog,61,YOUNG,HF,target,left,yellow,imageability,conservative,no,z,1,0.883572651979,1,286
2019_Oct_09,12,001,1,recog,62,BLACK,HF,target,left,yellow,imageability,liberal,no,z,1,0.883307231177,3,289
2019_Oct_09,12,001,1,recog,63,DIVAN,LF,target,left,yellow,imageability,liberal,no,z,1,0.933582110345,3,292
2019_Oct_09,12,001,1,recog,64,CYNIC,LF,lure,-,-,-,liberal,no,m,1,1.53358966237,1,293
2019_Oct_09,12,001,1,recog,65,GYPSIES,LF,lure,-,-,-,conservative,no,m,1,0.916886628657,3,296
2019_Oct_09,12,001,1,recog,66,THANK,HF,target,right,aqua,pleasantness,liberal,no,z,1,0.983601100397,3,299
2019_Oct_09,12,001,1,recog,67,FULCRUM,LF,lure,-,-,-,liberal,no,m,1,0.750280451538,1,300
2019_Oct_09,12,001,1,recog,68,VEERED,LF,target,left,yellow,imageability,conservative,no,z,1,1.20034321403,1,301
2019_Oct_09,12,001,1,recog,69,AREAS,HF,lure,-,-,-,conservative,no,m,1,1.85022164837,3,304
2019_Oct_09,12,001,1,recog,70,KIDNAP,LF,lure,-,-,-,conservative,no,m,1,0.683623169916,3,307
2019_Oct_09,12,001,1,recog,71,HAVING,HF,lure,-,-,-,conservative,no,m,1,1.10021651592,3,310
2019_Oct_09,12,001,1,recog,72,FUDGE,LF,target,right,aqua,pleasantness,liberal,no,z,1,0.766734708242,3,313
2019_Oct_09,12,001,1,recog,73,PESTERED,LF,lure,-,-,-,conservative,no,m,1,0.800346000211,3,316
2019_Oct_09,12,001,1,recog,74,TURNED,HF,target,left,yellow,imageability,liberal,no,m,0,2.43346846332,-3,313
2019_Oct_09,12,001,1,recog,75,ANYONE,HF,target,right,aqua,pleasantness,conservative,no,z,1,1.23348891978,1,314
2019_Oct_09,12,001,1,recog,76,TESTIFIES,LF,target,right,aqua,pleasantness,liberal,yes,z,1,1.30015426668,3,317
2019_Oct_09,12,001,1,recog,77,BELIEVE,HF,target,left,yellow,imageability,conservative,yes,m,0,1.6502501701,-1,316
2019_Oct_09,12,001,1,recog,78,OFFER,HF,target,right,aqua,pleasantness,conservative,no,z,1,2.91683163816,1,317
2019_Oct_09,12,001,1,recog,79,ADHERE,LF,lure,-,-,-,liberal,no,m,1,1.08354449684,1,318
2019_Oct_09,12,001,1,recog,80,SUPPORT,HF,lure,-,-,-,liberal,no,m,1,0.933548382839,1,319
2019_Oct_09,12,001,1,recog,81,RESEARCH,HF,target,left,yellow,imageability,liberal,no,z,1,0.700284924098,3,322
2019_Oct_09,12,001,1,recog,82,ENLIGHTEN,LF,lure,-,-,-,conservative,no,m,1,0.733557474602,3,325
2019_Oct_09,12,001,1,recog,83,DESERTER,LF,target,right,aqua,pleasantness,conservative,no,z,1,0.850184988034,1,326
2019_Oct_09,12,001,1,recog,84,ACIDITY,LF,target,right,aqua,pleasantness,conservative,no,z,1,0.850252443045,1,327
2019_Oct_09,12,001,1,recog,85,BANALITY,LF,target,left,yellow,imageability,liberal,no,z,1,0.700196939302,3,330
2019_Oct_09,12,001,1,recog,86,TOXICITY,LF,lure,-,-,-,liberal,no,m,1,0.81686037986,1,331
2019_Oct_09,12,001,1,recog,87,GRIEVE,LF,target,left,yellow,imageability,liberal,no,z,1,0.650196646019,3,334
2019_Oct_09,12,001,1,recog,88,HEMMED,LF,target,left,yellow,imageability,conservative,no,z,1,0.916854367565,1,335
2019_Oct_09,12,001,1,recog,89,WANTED,HF,lure,-,-,-,liberal,no,m,1,1.18333905234,1,336
2019_Oct_09,12,001,1,recog,90,TIMES,HF,target,right,aqua,pleasantness,liberal,no,z,1,0.966927981512,3,339
2019_Oct_09,12,001,1,recog,91,INTEREST,HF,lure,-,-,-,liberal,yes,z,0,0.866932160789,-1,338
2019_Oct_09,12,001,1,recog,92,LIGHT,HF,lure,-,-,-,conservative,no,m,1,2.30018396154,3,341
2019_Oct_09,12,001,1,recog,93,SWIFTNESS,LF,lure,-,-,-,liberal,no,m,1,1.90017171699,1,342
2019_Oct_09,12,001,1,recog,94,NEITHER,HF,lure,-,-,-,liberal,no,m,1,0.9668935208,1,343
2019_Oct_09,12,001,1,recog,95,JEOPARDY,LF,lure,-,-,-,liberal,no,m,1,0.766893447479,1,344
2019_Oct_09,12,001,2,source,0,JOLLITY,LF,target,left,yellow,imageability,conservative,no,3,1,2.81657369607,-,-
2019_Oct_09,12,001,2,source,1,RALLIED,LF,target,right,aqua,pleasantness,liberal,no,9,1,1.13333985887,-,-
2019_Oct_09,12,001,2,source,2,THRASH,LF,target,left,yellow,imageability,liberal,no,2,1,2.96676997548,-,-
2019_Oct_09,12,001,2,source,3,TOTAL,HF,target,right,aqua,pleasantness,liberal,no,7,1,2.60022861383,-,-
2019_Oct_09,12,001,2,source,4,NOTHING,HF,target,right,aqua,pleasantness,liberal,no,2,0,2.51688831503,-,-
2019_Oct_09,12,001,2,source,5,FEELING,HF,target,right,aqua,pleasantness,conservative,no,9,1,1.15026703386,-,-
2019_Oct_09,12,001,2,source,6,IDEAS,HF,target,left,yellow,imageability,liberal,no,1,1,1.58352140084,-,-
2019_Oct_09,12,001,2,source,7,MAUSOLEUM,LF,target,right,aqua,pleasantness,liberal,no,9,1,2.30014803442,-,-
2019_Oct_09,12,001,2,source,8,PRACTICE,HF,target,left,yellow,imageability,liberal,no,3,1,1.85012779792,-,-
2019_Oct_09,12,001,2,source,9,ALABASTER,LF,target,right,aqua,pleasantness,conservative,no,9,1,1.10021614932,-,-
2019_Oct_09,12,001,2,source,10,ANIMAL,HF,target,right,aqua,pleasantness,conservative,no,9,1,0.983555274982,-,-
2019_Oct_09,12,001,2,source,11,INSIDE,HF,target,left,yellow,imageability,liberal,no,1,1,3.516795931,-,-
2019_Oct_09,12,001,2,source,12,REOPEN,LF,target,right,aqua,pleasantness,conservative,no,9,1,0.950224801154,-,-
2019_Oct_09,12,001,2,source,13,MOUTH,HF,target,left,yellow,imageability,conservative,no,1,1,0.833603886582,-,-
2019_Oct_09,12,001,2,source,14,AVIDLY,LF,target,right,aqua,pleasantness,conservative,no,1,0,1.63358108386,-,-
2019_Oct_09,12,001,2,source,15,DUSTER,LF,target,left,yellow,imageability,conservative,no,1,1,1.11693179419,-,-
2019_Oct_09,12,001,2,source,16,AXIOM,LF,target,right,aqua,pleasantness,liberal,no,9,1,0.950242398113,-,-
2019_Oct_09,12,001,2,source,17,BENIGNLY,LF,target,left,yellow,imageability,liberal,no,1,1,1.35025940851,-,-
2019_Oct_09,12,001,2,source,18,ARGUABLE,LF,target,left,yellow,imageability,conservative,no,1,1,1.65019114697,-,-
2019_Oct_09,12,001,2,source,19,SKATES,LF,target,left,yellow,imageability,liberal,no,1,1,2.65022377467,-,-
2019_Oct_09,12,001,2,source,20,HUMAN,HF,target,right,aqua,pleasantness,conservative,no,9,1,1.36671623144,-,-
2019_Oct_09,12,001,2,source,21,ANEMONES,LF,target,left,yellow,imageability,conservative,no,1,1,0.966864192534,-,-
2019_Oct_09,12,001,2,source,22,HOTEL,HF,target,left,yellow,imageability,liberal,no,1,1,0.850261608128,-,-
2019_Oct_09,12,001,2,source,23,FURTHER,HF,target,right,aqua,pleasantness,conservative,yes,3,0,1.08359875414,-,-
2019_Oct_09,12,001,2,source,24,EPIDEMICS,LF,target,left,yellow,imageability,liberal,no,1,1,0.86685040825,-,-
2019_Oct_09,12,001,2,source,25,UPLIFT,LF,target,left,yellow,imageability,liberal,no,9,0,2.68341457263,-,-
2019_Oct_09,12,001,2,source,26,FLOOR,HF,target,right,aqua,pleasantness,liberal,no,9,1,0.83356062739,-,-
2019_Oct_09,12,001,2,source,27,TRYING,HF,target,left,yellow,imageability,conservative,no,9,0,1.96692431548,-,-
2019_Oct_09,12,001,2,source,28,ASKED,HF,target,right,aqua,pleasantness,liberal,yes,3,0,0.866742993477,-,-
2019_Oct_09,12,001,2,source,29,CHOICE,HF,target,right,aqua,pleasantness,conservative,no,3,0,2.75006892142,-,-
2019_Oct_09,12,001,2,source,30,RUSSET,LF,target,right,aqua,pleasantness,liberal,no,8,1,2.85014539488,-,-
2019_Oct_09,12,001,2,source,31,EASILY,HF,target,left,yellow,imageability,conservative,no,7,0,1.90022157505,-,-
2019_Oct_09,12,001,2,source,32,HYACINTHS,LF,target,left,yellow,imageability,conservative,no,3,1,2.31680575597,-,-
2019_Oct_09,12,001,2,source,33,FREEDOM,HF,target,left,yellow,imageability,conservative,no,1,1,3.51679153176,-,-
2019_Oct_09,12,001,2,source,34,CLOSE,HF,target,left,yellow,imageability,conservative,no,1,1,2.25017193696,-,-
2019_Oct_09,12,001,2,source,35,SIGNPOST,LF,target,right,aqua,pleasantness,liberal,no,7,1,3.21670801952,-,-
2019_Oct_09,12,001,2,source,36,IRISES,LF,target,right,aqua,pleasantness,liberal,no,9,1,2.13348943303,-,-
2019_Oct_09,12,001,2,source,37,YEARN,LF,target,right,aqua,pleasantness,conservative,no,7,1,2.36684270958,-,-
2019_Oct_09,12,001,2,source,38,BUILDING,HF,target,right,aqua,pleasantness,liberal,yes,3,0,1.08357822435,-,-
2019_Oct_09,12,001,2,source,39,LONGER,HF,target,left,yellow,imageability,liberal,no,2,1,3.03320729511,-,-
2019_Oct_09,12,001,2,source,40,HORDE,LF,target,right,aqua,pleasantness,conservative,no,9,1,1.26686448582,-,-
2019_Oct_09,12,001,2,source,41,LIKELY,HF,target,right,aqua,pleasantness,liberal,no,9,1,1.16691925635,-,-
2019_Oct_09,12,001,2,source,42,USELESSLY,LF,target,left,yellow,imageability,conservative,no,9,0,3.26672810938,-,-
2019_Oct_09,12,001,2,source,43,BRING,HF,target,left,yellow,imageability,liberal,no,1,1,1.76656790373,-,-
2019_Oct_09,12,001,2,source,44,DIETING,LF,target,right,aqua,pleasantness,conservative,no,9,1,2.16686829849,-,-
2019_Oct_09,12,001,2,source,45,EDUCATION,HF,target,left,yellow,imageability,conservative,no,1,1,1.31690987131,-,-
2019_Oct_09,12,001,2,source,46,SUMMER,HF,target,right,aqua,pleasantness,conservative,yes,3,0,0.950037466859,-,-
2019_Oct_09,12,001,2,source,47,ADJOURNED,LF,target,left,yellow,imageability,liberal,no,1,1,1.26693743988,-,-
2019_Oct_09,12,001,2,recog,0,STEADFAST,LF,lure,-,-,-,conservative,no,m,1,1.10016189202,3,347
2019_Oct_09,12,001,2,recog,1,RUSSET,LF,target,right,aqua,pleasantness,liberal,no,z,1,0.833610485442,3,350
2019_Oct_09,12,001,2,recog,2,TWENTY,HF,lure,-,-,-,liberal,no,m,1,1.03359516142,1,351
2019_Oct_09,12,001,2,recog,3,HUMAN,HF,target,right,aqua,pleasantness,conservative,no,z,1,0.766850188287,1,352
2019_Oct_09,12,001,2,recog,4,ANIMAL,HF,target,right,aqua,pleasantness,conservative,no,z,1,0.916884429038,1,353
2019_Oct_09,12,001,2,recog,5,TOTAL,HF,target,right,aqua,pleasantness,liberal,no,z,1,0.750191733535,3,356
2019_Oct_09,12,001,2,recog,6,REOPEN,LF,target,right,aqua,pleasantness,conservative,no,z,1,0.783599927266,1,357
2019_Oct_09,12,001,2,recog,7,EPIDEMICS,LF,target,left,yellow,imageability,liberal,no,z,1,0.666918889749,3,360
2019_Oct_09,12,001,2,recog,8,EIGHT,HF,lure,-,-,-,conservative,no,m,1,0.866943158889,3,363
2019_Oct_09,12,001,2,recog,9,HOTEL,HF,target,left,yellow,imageability,liberal,no,z,1,0.616909797987,3,366
2019_Oct_09,12,001,2,recog,10,FRACTIONS,LF,lure,-,-,-,conservative,no,m,1,0.816943598813,3,369
2019_Oct_09,12,001,2,recog,11,TULIPS,LF,lure,-,-,-,conservative,no,m,1,0.866935093616,3,372
2019_Oct_09,12,001,2,recog,12,LOVELIEST,LF,lure,-,-,-,liberal,no,m,1,1.25027715211,1,373
2019_Oct_09,12,001,2,recog,13,SOCIAL,HF,lure,-,-,-,liberal,no,m,1,0.783568032777,1,374
2019_Oct_09,12,001,2,recog,14,ARGUABLE,LF,target,left,yellow,imageability,conservative,no,z,1,1.20020867061,1,375
2019_Oct_09,12,001,2,recog,15,STOOD,HF,lure,-,-,-,liberal,no,m,1,0.800242618076,1,376
2019_Oct_09,12,001,2,recog,16,ALABASTER,LF,target,right,aqua,pleasantness,conservative,no,z,1,0.70024863037,1,377
2019_Oct_09,12,001,2,recog,17,RUPTURE,LF,lure,-,-,-,liberal,no,m,1,1.18354508341,1,378
2019_Oct_09,12,001,2,recog,18,HARDLY,HF,lure,-,-,-,conservative,no,m,1,0.70008512529,3,381
2019_Oct_09,12,001,2,recog,19,USELESSLY,LF,target,left,yellow,imageability,conservative,no,z,1,0.800224654513,1,382
2019_Oct_09,12,001,2,recog,20,GIVEN,HF,lure,-,-,-,conservative,no,m,1,0.783572065414,3,385
2019_Oct_09,12,001,2,recog,21,FIELD,HF,lure,-,-,-,conservative,no,m,1,0.816743800005,3,388
2019_Oct_09,12,001,2,recog,22,LONGER,HF,target,left,yellow,imageability,liberal,no,m,0,1.26682415945,-3,385
2019_Oct_09,12,001,2,recog,23,LIFEBOAT,LF,lure,-,-,-,liberal,no,m,1,1.10026307454,1,386
2019_Oct_09,12,001,2,recog,24,AXIOM,LF,target,right,aqua,pleasantness,liberal,no,z,1,0.700226267568,3,389
2019_Oct_09,12,001,2,recog,25,ANEMONES,LF,target,left,yellow,imageability,conservative,no,z,1,0.700230666808,1,390
2019_Oct_09,12,001,2,recog,26,DEVELOPED,HF,lure,-,-,-,liberal,no,m,1,0.883567152929,1,391
2019_Oct_09,12,001,2,recog,27,SYNDICATE,LF,lure,-,-,-,conservative,no,m,1,0.833515535182,3,394
2019_Oct_09,12,001,2,recog,28,AVIDLY,LF,target,right,aqua,pleasantness,conservative,no,z,1,0.716944478661,1,395
2019_Oct_09,12,001,2,recog,29,ASKED,HF,target,right,aqua,pleasantness,liberal,no,z,1,1.7002079374,3,398
2019_Oct_09,12,001,2,recog,30,ALMOST,HF,lure,-,-,-,liberal,no,m,1,0.833617817508,1,399
2019_Oct_09,12,001,2,recog,31,LIKELY,HF,target,right,aqua,pleasantness,liberal,no,z,1,0.91689469393,3,402
2019_Oct_09,12,001,2,recog,32,DIETING,LF,target,right,aqua,pleasantness,conservative,no,z,1,0.766958702869,1,403
2019_Oct_09,12,001,2,recog,33,BIJOU,LF,lure,-,-,-,conservative,yes,m,1,1.16690422562,3,406
2019_Oct_09,12,001,2,recog,34,EASILY,HF,target,left,yellow,imageability,conservative,no,z,1,2.18348386066,1,407
2019_Oct_09,12,001,2,recog,35,WRITE,HF,lure,-,-,-,liberal,no,m,1,0.666953350461,1,408
2019_Oct_09,12,001,2,recog,36,FREEDOM,HF,target,left,yellow,imageability,conservative,no,z,1,1.55018359494,1,409
2019_Oct_09,12,001,2,recog,37,HYACINTHS,LF,target,left,yellow,imageability,conservative,no,z,1,0.883516195068,1,410
2019_Oct_09,12,001,2,recog,38,BRING,HF,target,left,yellow,imageability,liberal,no,z,1,1.38351766148,3,413
2019_Oct_09,12,001,2,recog,39,ROPED,LF,lure,-,-,-,conservative,no,m,1,1.20020097194,3,416
2019_Oct_09,12,001,2,recog,40,FURTHER,HF,target,right,aqua,pleasantness,conservative,no,z,1,1.78347601534,1,417
2019_Oct_09,12,001,2,recog,41,FRIEND,HF,lure,-,-,-,conservative,no,m,1,0.933445733911,3,420
2019_Oct_09,12,001,2,recog,42,BUILDING,HF,target,right,aqua,pleasantness,liberal,no,z,1,0.666852901152,3,423
2019_Oct_09,12,001,2,recog,43,PRIVATE,HF,lure,-,-,-,liberal,no,z,0,1.60027590566,-1,422
2019_Oct_09,12,001,2,recog,44,FORCE,HF,lure,-,-,-,conservative,no,m,1,1.25022582764,3,425
2019_Oct_09,12,001,2,recog,45,HIVES,LF,lure,-,-,-,conservative,no,m,1,0.733575438164,3,428
2019_Oct_09,12,001,2,recog,46,DUSTER,LF,target,left,yellow,imageability,conservative,no,z,1,0.850279205087,1,429
2019_Oct_09,12,001,2,recog,47,INFECT,LF,lure,-,-,-,liberal,no,m,1,0.817001155534,1,430
2019_Oct_09,12,001,2,recog,48,FLOOR,HF,target,right,aqua,pleasantness,liberal,no,z,1,0.733602200206,3,433
2019_Oct_09,12,001,2,recog,49,YEARN,LF,target,right,aqua,pleasantness,conservative,no,z,1,0.766807662303,1,434
2019_Oct_09,12,001,2,recog,50,MYRIADS,LF,lure,-,-,-,liberal,yes,z,0,1.03335137022,-1,433
2019_Oct_09,12,001,2,recog,51,IRISES,LF,target,right,aqua,pleasantness,liberal,no,z,1,0.76693560686,3,436
2019_Oct_09,12,001,2,recog,52,GREATER,HF,lure,-,-,-,liberal,no,m,1,2.16660287769,1,437
2019_Oct_09,12,001,2,recog,53,CLOSE,HF,target,left,yellow,imageability,conservative,no,z,1,0.750275319092,1,438
2019_Oct_09,12,001,2,recog,54,CHOICE,HF,target,right,aqua,pleasantness,conservative,no,z,1,1.16677444804,1,439
2019_Oct_09,12,001,2,recog,55,JOLLITY,LF,target,left,yellow,imageability,conservative,no,m,0,1.51687988316,-1,438
2019_Oct_09,12,001,2,recog,56,SIGNPOST,LF,target,right,aqua,pleasantness,liberal,no,z,1,0.733578737594,3,441
2019_Oct_09,12,001,2,recog,57,RAGES,LF,lure,-,-,-,liberal,no,m,1,0.850286537153,1,442
2019_Oct_09,12,001,2,recog,58,LOOKED,HF,lure,-,-,-,liberal,no,m,1,1.3833204289,1,443
2019_Oct_09,12,001,2,recog,59,NOTHING,HF,target,right,aqua,pleasantness,liberal,no,z,1,0.883555421623,3,446
2019_Oct_09,12,001,2,recog,60,MAUSOLEUM,LF,target,right,aqua,pleasantness,liberal,no,z,1,0.683577344501,3,449
2019_Oct_09,12,001,2,recog,61,DRUDGERY,LF,lure,-,-,-,liberal,no,m,1,1.11687423747,1,450
2019_Oct_09,12,001,2,recog,62,IDOLATRY,LF,lure,-,-,-,liberal,no,m,1,1.50028668379,1,451
2019_Oct_09,12,001,2,recog,63,LESSENED,LF,lure,-,-,-,conservative,no,m,1,0.933550949063,3,454
2019_Oct_09,12,001,2,recog,64,SUMMER,HF,target,right,aqua,pleasantness,conservative,no,z,1,0.666962515544,1,455
2019_Oct_09,12,001,2,recog,65,EFFECT,HF,lure,-,-,-,conservative,no,m,1,2.13340804709,3,458
2019_Oct_09,12,001,2,recog,66,SKATES,LF,target,left,yellow,imageability,liberal,no,z,1,0.650272166303,3,461
2019_Oct_09,12,001,2,recog,67,HAPPEN,HF,lure,-,-,-,liberal,no,m,1,2.2835486028,1,462
2019_Oct_09,12,001,2,recog,68,HORDE,LF,target,right,aqua,pleasantness,conservative,no,z,1,0.766909944628,1,463
2019_Oct_09,12,001,2,recog,69,INSIDE,HF,target,left,yellow,imageability,liberal,yes,z,1,0.883607845898,3,466
2019_Oct_09,12,001,2,recog,70,ELATION,LF,lure,-,-,-,liberal,no,m,1,2.61686470578,1,467
2019_Oct_09,12,001,2,recog,71,BENIGNLY,LF,target,left,yellow,imageability,liberal,no,z,1,0.78342029164,3,470
2019_Oct_09,12,001,2,recog,72,NEPHEWS,LF,lure,-,-,-,conservative,no,m,1,0.783613491588,3,473
2019_Oct_09,12,001,2,recog,73,AGNOSTIC,LF,lure,-,-,-,conservative,no,m,1,1.01698619812,3,476
2019_Oct_09,12,001,2,recog,74,CENTRAL,HF,lure,-,-,-,conservative,no,m,1,1.41683457099,3,479
2019_Oct_09,12,001,2,recog,75,ADJOURNED,LF,target,left,yellow,imageability,liberal,no,z,1,0.850279938293,3,482
2019_Oct_09,12,001,2,recog,76,CHIEF,HF,lure,-,-,-,conservative,no,m,1,0.766851288098,3,485
2019_Oct_09,12,001,2,recog,77,AHEAD,HF,lure,-,-,-,liberal,no,m,1,1.11688413575,1,486
2019_Oct_09,12,001,2,recog,78,EDUCATION,HF,target,left,yellow,imageability,conservative,no,z,1,0.850268206987,1,487
2019_Oct_09,12,001,2,recog,79,THRASH,LF,target,left,yellow,imageability,liberal,no,z,1,0.966842562938,3,490
2019_Oct_09,12,001,2,recog,80,BLUECOATS,LF,lure,-,-,-,conservative,no,m,1,0.866825845827,3,493
2019_Oct_09,12,001,2,recog,81,IDEAS,HF,target,left,yellow,imageability,liberal,no,z,1,1.30035296567,3,496
2019_Oct_09,12,001,2,recog,82,FEELING,HF,target,right,aqua,pleasantness,conservative,yes,m,0,0.850226414209,-1,495
2019_Oct_09,12,001,2,recog,83,AUGMENT,LF,lure,-,-,-,liberal,no,m,1,1.40017684944,1,496
2019_Oct_09,12,001,2,recog,84,UPLIFT,LF,target,left,yellow,imageability,liberal,no,z,1,1.00027055325,3,499
2019_Oct_09,12,001,2,recog,85,AFRAID,HF,lure,-,-,-,conservative,no,m,1,0.966652295816,3,502
2019_Oct_09,12,001,2,recog,86,TRYING,HF,target,left,yellow,imageability,conservative,no,z,1,1.44993811736,1,503
2019_Oct_09,12,001,2,recog,87,UNION,HF,lure,-,-,-,liberal,no,m,1,0.683314856526,1,504
2019_Oct_09,12,001,2,recog,88,SHORT,HF,lure,-,-,-,conservative,no,m,1,0.750113647029,3,507
2019_Oct_09,12,001,2,recog,89,PHOBIC,LF,lure,-,-,-,liberal,no,m,1,0.733670388423,1,508
2019_Oct_09,12,001,2,recog,90,PRACTICE,HF,target,left,yellow,imageability,liberal,no,m,0,0.800230886769,-3,505
2019_Oct_09,12,001,2,recog,91,RENAMED,LF,lure,-,-,-,conservative,no,m,1,2.25011951268,3,508
2019_Oct_09,12,001,2,recog,92,MOUTH,HF,target,left,yellow,imageability,conservative,no,z,1,0.850221648366,1,509
2019_Oct_09,12,001,2,recog,93,RALLIED,LF,target,right,aqua,pleasantness,liberal,no,z,1,1.03350094437,3,512
2019_Oct_09,12,001,2,recog,94,LITANY,LF,lure,-,-,-,liberal,no,m,1,0.733576904578,1,513
2019_Oct_09,12,001,2,recog,95,CASES,HF,lure,-,-,-,conservative,no,m,1,2.56680575597,3,516
2019_Oct_09,12,001,3,source,0,TRUTH,HF,target,right,aqua,pleasantness,conservative,yes,3,0,1.28328684803,-,-
2019_Oct_09,12,001,3,source,1,RETURN,HF,target,left,yellow,imageability,conservative,no,1,1,2.1001926867,-,-
2019_Oct_09,12,001,3,source,2,ERSTWHILE,LF,target,right,aqua,pleasantness,liberal,no,9,1,2.03326925107,-,-
2019_Oct_09,12,001,3,source,3,KINDEST,LF,target,left,yellow,imageability,liberal,no,9,0,2.6001703239,-,-
2019_Oct_09,12,001,3,source,4,GNOMES,LF,target,left,yellow,imageability,conservative,no,1,1,0.68354068417,-,-
2019_Oct_09,12,001,3,source,5,UNDER,HF,target,left,yellow,imageability,conservative,no,1,1,0.716589240046,-,-
2019_Oct_09,12,001,3,source,6,DULLED,LF,target,right,aqua,pleasantness,conservative,no,9,1,1.66679937707,-,-
2019_Oct_09,12,001,3,source,7,EMBATTLED,LF,target,left,yellow,imageability,conservative,no,1,1,1.38368959844,-,-
2019_Oct_09,12,001,3,source,8,OUGHT,HF,target,right,aqua,pleasantness,conservative,no,9,1,1.4001940798,-,-
2019_Oct_09,12,001,3,source,9,GLASS,HF,target,left,yellow,imageability,liberal,no,1,1,1.0333938962,-,-
2019_Oct_09,12,001,3,source,10,CHEEKBONE,LF,target,right,aqua,pleasantness,conservative,no,9,1,0.983560407428,-,-
2019_Oct_09,12,001,3,source,11,DORMS,LF,target,right,aqua,pleasantness,conservative,no,9,1,0.833587022829,-,-
2019_Oct_09,12,001,3,source,12,FANATICS,LF,target,right,aqua,pleasantness,conservative,no,9,1,1.28352367378,-,-
2019_Oct_09,12,001,3,source,13,UNKEMPT,LF,target,left,yellow,imageability,liberal,no,1,1,2.16692658842,-,-
2019_Oct_09,12,001,3,source,14,NAGGED,LF,target,right,aqua,pleasantness,conservative,no,9,1,1.95017970895,-,-
2019_Oct_09,12,001,3,source,15,ORDER,HF,target,right,aqua,pleasantness,conservative,no,7,1,3.4835021175,-,-
2019_Oct_09,12,001,3,source,16,TEXTURES,LF,target,left,yellow,imageability,conservative,no,1,1,0.850234112879,-,-
2019_Oct_09,12,001,3,source,17,SHEARING,LF,target,right,aqua,pleasantness,liberal,no,9,1,1.10026380775,-,-
2019_Oct_09,12,001,3,source,18,EXPECT,HF,target,right,aqua,pleasantness,liberal,no,9,1,1.63358218367,-,-
2019_Oct_09,12,001,3,source,19,LANGUAGE,HF,target,left,yellow,imageability,conservative,no,1,1,1.21671315197,-,-
2019_Oct_09,12,001,3,source,20,THEORY,HF,target,left,yellow,imageability,liberal,no,1,1,3.11679505115,-,-
2019_Oct_09,12,001,3,source,21,AFIELD,LF,target,right,aqua,pleasantness,liberal,yes,3,0,0.800329503062,-,-
2019_Oct_09,12,001,3,source,22,LARGE,HF,target,left,yellow,imageability,conservative,no,1,1,1.53356913259,-,-
2019_Oct_09,12,001,3,source,23,BAIZE,LF,target,left,yellow,imageability,conservative,no,7,0,1.45019583949,-,-
2019_Oct_09,12,001,3,source,24,NOSTRIL,LF,target,left,yellow,imageability,liberal,no,1,1,1.00031527885,-,-
2019_Oct_09,12,001,3,source,25,OUTSIDE,HF,target,right,aqua,pleasantness,liberal,no,9,1,1.05017039722,-,-
2019_Oct_09,12,001,3,source,26,SLEEP,HF,target,left,yellow,imageability,liberal,no,1,1,0.88355505502,-,-
2019_Oct_09,12,001,3,source,27,ROSEBUD,LF,target,left,yellow,imageability,liberal,no,1,1,1.13338531768,-,-
2019_Oct_09,12,001,3,source,28,PUBLIC,HF,target,left,yellow,imageability,liberal,yes,3,1,0.816961195772,-,-
2019_Oct_09,12,001,3,source,29,WHETHER,HF,target,right,aqua,pleasantness,conservative,no,7,1,3.33337842554,-,-
2019_Oct_09,12,001,3,source,30,QUESTION,HF,target,right,aqua,pleasantness,conservative,no,8,1,1.68350768987,-,-
2019_Oct_09,12,001,3,source,31,BUGGED,LF,target,left,yellow,imageability,conservative,no,1,1,1.21667465862,-,-
2019_Oct_09,12,001,3,source,32,TREES,HF,target,right,aqua,pleasantness,liberal,no,9,1,1.01690224596,-,-
2019_Oct_09,12,001,3,source,33,JOVIAL,LF,target,left,yellow,imageability,liberal,no,1,1,1.88353892447,-,-
2019_Oct_09,12,001,3,source,34,FIDDLED,LF,target,right,aqua,pleasantness,liberal,no,9,1,1.21692908132,-,-
2019_Oct_09,12,001,3,source,35,SENSE,HF,target,left,yellow,imageability,liberal,no,1,1,3.11685444089,-,-
2019_Oct_09,12,001,3,source,36,SAYING,HF,target,right,aqua,pleasantness,liberal,no,3,0,1.60015565977,-,-
2019_Oct_09,12,001,3,source,37,DEBACLE,LF,target,right,aqua,pleasantness,conservative,no,9,1,2.21684329615,-,-
2019_Oct_09,12,001,3,source,38,POSITION,HF,target,left,yellow,imageability,conservative,no,7,0,1.75015983905,-,-
2019_Oct_09,12,001,3,source,39,MAKES,HF,target,right,aqua,pleasantness,liberal,no,7,1,1.55023821884,-,-
2019_Oct_09,12,001,3,source,40,TYRANTS,LF,target,left,yellow,imageability,conservative,no,1,1,1.40019334659,-,-
2019_Oct_09,12,001,3,source,41,ACCORDING,HF,target,left,yellow,imageability,liberal,no,2,1,2.11663777833,-,-
2019_Oct_09,12,001,3,source,42,ISOLATING,LF,target,right,aqua,pleasantness,liberal,no,8,1,2.75013491002,-,-
2019_Oct_09,12,001,3,source,43,BASIC,HF,target,right,aqua,pleasantness,conservative,yes,3,0,0.850198552357,-,-
2019_Oct_09,12,001,3,source,44,REQUIRED,HF,target,right,aqua,pleasantness,liberal,no,9,1,3.28347784836,-,-
2019_Oct_09,12,001,3,source,45,ABSENCES,LF,target,right,aqua,pleasantness,liberal,no,9,1,1.0166082301,-,-
2019_Oct_09,12,001,3,source,46,SIMILAR,HF,target,left,yellow,imageability,conservative,no,1,1,1.55027524577,-,-
2019_Oct_09,12,001,3,source,47,NEOLITHIC,LF,target,left,yellow,imageability,liberal,no,2,1,2.11682987846,-,-
2019_Oct_09,12,001,3,recog,0,DEPARTS,LF,lure,-,-,-,liberal,no,m,1,1.03360762594,1,517
2019_Oct_09,12,001,3,recog,1,MYOPIC,LF,lure,-,-,-,conservative,no,m,1,1.06689520718,3,520
2019_Oct_09,12,001,3,recog,2,OUGHT,HF,target,right,aqua,pleasantness,conservative,no,z,1,0.70032818329,1,521
2019_Oct_09,12,001,3,recog,3,FINAL,HF,lure,-,-,-,conservative,no,m,1,1.4001940798,3,524
2019_Oct_09,12,001,3,recog,4,REQUIRED,HF,target,right,aqua,pleasantness,liberal,no,z,1,0.650230740128,3,527
2019_Oct_09,12,001,3,recog,5,MOCCASINS,LF,lure,-,-,-,liberal,yes,z,0,0.93355388189,-1,526
2019_Oct_09,12,001,3,recog,6,BUGGED,LF,target,left,yellow,imageability,conservative,no,m,0,0.700237998874,-1,525
2019_Oct_09,12,001,3,recog,7,NECESSARY,HF,lure,-,-,-,conservative,no,m,1,3.15013212384,3,528
2019_Oct_09,12,001,3,recog,8,POSITION,HF,target,left,yellow,imageability,conservative,no,m,0,5.11671806445,-1,527
2019_Oct_09,12,001,3,recog,9,MAKES,HF,target,right,aqua,pleasantness,liberal,no,z,1,1.71685356104,3,530
2019_Oct_09,12,001,3,recog,10,LARGE,HF,target,left,yellow,imageability,conservative,no,z,1,1.16682247308,1,531
2019_Oct_09,12,001,3,recog,11,ORDER,HF,target,right,aqua,pleasantness,conservative,no,z,1,1.11681851376,1,532
2019_Oct_09,12,001,3,recog,12,ALONE,HF,lure,-,-,-,conservative,no,m,1,0.866893667441,3,535
2019_Oct_09,12,001,3,recog,13,SHEARING,LF,target,right,aqua,pleasantness,liberal,no,z,1,0.799978663687,3,538
2019_Oct_09,12,001,3,recog,14,TYRANTS,LF,target,left,yellow,imageability,conservative,no,z,1,0.683394776049,1,539
2019_Oct_09,12,001,3,recog,15,JOVIAL,LF,target,left,yellow,imageability,liberal,no,z,1,0.816892274348,3,542
2019_Oct_09,12,001,3,recog,16,AVENGE,LF,lure,-,-,-,conservative,no,m,1,0.966992137092,3,545
2019_Oct_09,12,001,3,recog,17,SENSE,HF,target,left,yellow,imageability,liberal,no,z,1,0.666895427137,3,548
2019_Oct_09,12,001,3,recog,18,UNFAILING,LF,lure,-,-,-,liberal,no,m,1,0.966887655146,1,549
2019_Oct_09,12,001,3,recog,19,UNDER,HF,target,left,yellow,imageability,conservative,no,z,1,2.31660485735,1,550
2019_Oct_09,12,001,3,recog,20,TRUTH,HF,target,right,aqua,pleasantness,conservative,no,z,1,0.800267913704,1,551
2019_Oct_09,12,001,3,recog,21,DEBACLE,LF,target,right,aqua,pleasantness,conservative,no,z,1,0.566867345323,1,552
2019_Oct_09,12,001,3,recog,22,COUNCIL,HF,lure,-,-,-,liberal,no,m,1,0.76687585052,1,553
2019_Oct_09,12,001,3,recog,23,SQUADRONS,LF,lure,-,-,-,conservative,yes,m,1,0.983552342155,3,556
2019_Oct_09,12,001,3,recog,24,FLAGGED,LF,lure,-,-,-,liberal,no,m,1,1.68353921776,1,557
2019_Oct_09,12,001,3,recog,25,FRONT,HF,lure,-,-,-,conservative,no,m,1,0.90027619894,3,560
2019_Oct_09,12,001,3,recog,26,AFIELD,LF,target,right,aqua,pleasantness,liberal,no,z,1,1.0001433419,3,563
2019_Oct_09,12,001,3,recog,27,NUMBER,HF,lure,-,-,-,conservative,no,m,1,0.96687262441,3,566
2019_Oct_09,12,001,3,recog,28,NOSTRIL,LF,target,left,yellow,imageability,liberal,no,z,1,0.683564879988,3,569
2019_Oct_09,12,001,3,recog,29,TEXTURES,LF,target,left,yellow,imageability,conservative,no,z,1,0.650233672955,1,570
2019_Oct_09,12,001,3,recog,30,ERSTWHILE,LF,target,right,aqua,pleasantness,liberal,no,z,1,1.00024489102,3,573
2019_Oct_09,12,001,3,recog,31,BASIC,HF,target,right,aqua,pleasantness,conservative,yes,m,0,0.81670677307,-1,572
2019_Oct_09,12,001,3,recog,32,FIDDLED,LF,target,right,aqua,pleasantness,liberal,no,z,1,1.5168410232,3,575
2019_Oct_09,12,001,3,recog,33,TRADE,HF,lure,-,-,-,conservative,no,m,1,2.25010044931,3,578
2019_Oct_09,12,001,3,recog,34,NORTH,HF,lure,-,-,-,conservative,no,m,1,0.71689792004,3,581
2019_Oct_09,12,001,3,recog,35,THEORY,HF,target,left,yellow,imageability,liberal,no,z,1,0.783613491588,3,584
2019_Oct_09,12,001,3,recog,36,GURGLE,LF,lure,-,-,-,conservative,no,m,1,0.833564660027,3,587
2019_Oct_09,12,001,3,recog,37,SAYING,HF,target,right,aqua,pleasantness,liberal,no,z,1,2.65016621794,3,590
2019_Oct_09,12,001,3,recog,38,NAGGED,LF,target,right,aqua,pleasantness,conservative,no,z,1,0.750257722133,1,591
2019_Oct_09,12,001,3,recog,39,QUESTION,HF,target,right,aqua,pleasantness,conservative,no,z,1,1.10017765597,1,592
2019_Oct_09,12,001,3,recog,40,NEOLITHIC,LF,target,left,yellow,imageability,liberal,no,z,1,0.650195546209,3,595
2019_Oct_09,12,001,3,recog,41,MONEY,HF,lure,-,-,-,liberal,no,m,1,0.750208230685,1,596
2019_Oct_09,12,001,3,recog,42,GNOMES,LF,target,left,yellow,imageability,conservative,no,z,1,0.783565466554,1,597
2019_Oct_09,12,001,3,recog,43,SUCCESS,HF,lure,-,-,-,liberal,no,z,0,2.08348290749,-1,596
2019_Oct_09,12,001,3,recog,44,DYNAMISM,LF,lure,-,-,-,conservative,no,m,1,1.98346802339,3,599
2019_Oct_09,12,001,3,recog,45,CALLED,HF,lure,-,-,-,conservative,no,m,1,0.800286977077,3,602
2019_Oct_09,12,001,3,recog,46,INEDIBLE,LF,lure,-,-,-,liberal,no,m,1,1.13354552333,1,603
2019_Oct_09,12,001,3,recog,47,HINDERED,LF,lure,-,-,-,conservative,no,m,1,0.73352081427,3,606
2019_Oct_09,12,001,3,recog,48,BAIZE,LF,target,left,yellow,imageability,conservative,no,z,1,0.833585189813,1,607
2019_Oct_09,12,001,3,recog,49,EARLIER,HF,lure,-,-,-,liberal,no,z,0,0.833509302925,-1,606
2019_Oct_09,12,001,3,recog,50,PEPPERED,LF,lure,-,-,-,liberal,no,m,1,1.33357602473,1,607
2019_Oct_09,12,001,3,recog,51,SIMILAR,HF,target,left,yellow,imageability,conservative,no,z,1,0.866666739988,1,608
2019_Oct_09,12,001,3,recog,52,RETURN,HF,target,left,yellow,imageability,conservative,no,m,0,2.43355644811,-1,607
2019_Oct_09,12,001,3,recog,53,UNLESS,HF,lure,-,-,-,liberal,no,m,1,2.60021578271,1,608
2019_Oct_09,12,001,3,recog,54,HOIST,LF,lure,-,-,-,liberal,yes,z,0,0.916795711034,-1,607
2019_Oct_09,12,001,3,recog,55,POUNDS,HF,lure,-,-,-,liberal,no,m,1,1.26691581028,1,608
2019_Oct_09,12,001,3,recog,56,OFTEN,HF,lure,-,-,-,liberal,no,m,1,1.73350908296,1,609
2019_Oct_09,12,001,3,recog,57,NIGHT,HF,lure,-,-,-,conservative,no,m,1,0.650294162502,3,612
2019_Oct_09,12,001,3,recog,58,SPACE,HF,lure,-,-,-,liberal,no,m,1,1.06666791312,1,613
2019_Oct_09,12,001,3,recog,59,OUTSIDE,HF,target,right,aqua,pleasantness,liberal,no,z,1,0.950222601535,3,616
2019_Oct_09,12,001,3,recog,60,BEHIND,HF,lure,-,-,-,conservative,no,m,1,1.13354295711,3,619
2019_Oct_09,12,001,3,recog,61,TREES,HF,target,right,aqua,pleasantness,liberal,no,z,1,0.600286537153,3,622
2019_Oct_09,12,001,3,recog,62,PARENTS,HF,lure,-,-,-,liberal,no,m,1,1.0002426914,1,623
2019_Oct_09,12,001,3,recog,63,UNKEMPT,LF,target,left,yellow,imageability,liberal,no,z,1,0.866724296709,3,626
2019_Oct_09,12,001,3,recog,64,WRONG,HF,lure,-,-,-,liberal,no,m,1,1.06690400565,1,627
2019_Oct_09,12,001,3,recog,65,DORMS,LF,target,right,aqua,pleasantness,conservative,no,z,1,0.666700027569,1,628
2019_Oct_09,12,001,3,recog,66,PECKED,LF,lure,-,-,-,liberal,no,z,0,1.1168892682,-1,627
2019_Oct_09,12,001,3,recog,67,SLEEP,HF,target,left,yellow,imageability,liberal,no,z,1,0.93360044051,3,630
2019_Oct_09,12,001,3,recog,68,HIKING,LF,lure,-,-,-,liberal,no,m,1,0.783595894629,1,631
2019_Oct_09,12,001,3,recog,69,REDDENED,LF,lure,-,-,-,conservative,no,m,1,1.11693985946,3,634
2019_Oct_09,12,001,3,recog,70,LAXATIVE,LF,lure,-,-,-,liberal,no,m,1,0.683619870486,1,635
2019_Oct_09,12,001,3,recog,71,INUNDATED,LF,lure,-,-,-,conservative,no,m,1,1.13364303982,3,638
2019_Oct_09,12,001,3,recog,72,ULCER,LF,lure,-,-,-,conservative,no,m,1,0.866845275803,3,641
2019_Oct_09,12,001,3,recog,73,CERTAIN,HF,lure,-,-,-,liberal,no,m,1,0.933623903123,1,642
2019_Oct_09,12,001,3,recog,74,CHEEKBONE,LF,target,right,aqua,pleasantness,conservative,no,z,1,0.750232426503,1,643
2019_Oct_09,12,001,3,recog,75,DULLED,LF,target,right,aqua,pleasantness,conservative,no,z,1,0.966842929542,1,644
2019_Oct_09,12,001,3,recog,76,SINCE,HF,lure,-,-,-,conservative,no,m,1,0.800219155463,3,647
2019_Oct_09,12,001,3,recog,77,ABSENCES,LF,target,right,aqua,pleasantness,liberal,no,z,1,0.583671708196,3,650
2019_Oct_09,12,001,3,recog,78,ISOLATING,LF,target,right,aqua,pleasantness,liberal,no,z,1,1.30018872739,3,653
2019_Oct_09,12,001,3,recog,79,TOGETHER,HF,lure,-,-,-,conservative,no,m,1,0.833609019028,3,656
2019_Oct_09,12,001,3,recog,80,LANGUAGE,HF,target,left,yellow,imageability,conservative,no,z,1,0.700244964337,1,657
2019_Oct_09,12,001,3,recog,81,FEVERS,LF,lure,-,-,-,conservative,no,m,1,0.833545596654,3,660
2019_Oct_09,12,001,3,recog,82,PADDLE,LF,lure,-,-,-,liberal,no,m,1,1.20030545388,1,661
2019_Oct_09,12,001,3,recog,83,URCHIN,LF,lure,-,-,-,conservative,no,m,1,0.86668800298,3,664
2019_Oct_09,12,001,3,recog,84,ROSEBUD,LF,target,left,yellow,imageability,liberal,no,z,1,1.1502168092,3,667
2019_Oct_09,12,001,3,recog,85,PUBLIC,HF,target,left,yellow,imageability,liberal,no,z,1,1.01671564487,3,670
2019_Oct_09,12,001,3,recog,86,EXPECT,HF,target,right,aqua,pleasantness,liberal,no,z,1,0.93369429096,3,673
2019_Oct_09,12,001,3,recog,87,KINDEST,LF,target,left,yellow,imageability,liberal,no,z,1,0.650191880177,3,676
2019_Oct_09,12,001,3,recog,88,HACKNEY,LF,lure,-,-,-,liberal,no,m,1,0.816703107037,1,677
2019_Oct_09,12,001,3,recog,89,RIPEN,LF,lure,-,-,-,conservative,no,m,1,0.833544863448,3,680
2019_Oct_09,12,001,3,recog,90,EMBATTLED,LF,target,left,yellow,imageability,conservative,no,z,1,2.23355087574,1,681
2019_Oct_09,12,001,3,recog,91,WHETHER,HF,target,right,aqua,pleasantness,conservative,no,z,1,0.816996023087,1,682
2019_Oct_09,12,001,3,recog,92,ACCORDING,HF,target,left,yellow,imageability,liberal,no,z,1,0.750192833345,3,685
2019_Oct_09,12,001,3,recog,93,FANATICS,LF,target,right,aqua,pleasantness,conservative,no,z,1,0.733541710659,1,686
2019_Oct_09,12,001,3,recog,94,AMONG,HF,lure,-,-,-,liberal,no,m,1,0.966940446024,1,687
2019_Oct_09,12,001,3,recog,95,GLASS,HF,target,left,yellow,imageability,liberal,no,z,1,0.700181908566,3,690
2019_Oct_09,12,001,4,source,0,VALUE,HF,target,right,aqua,pleasantness,conservative,no,9,1,2.63355615483,-,-
2019_Oct_09,12,001,4,source,1,LEARN,HF,target,left,yellow,imageability,conservative,no,1,1,1.98349038619,-,-
2019_Oct_09,12,001,4,source,2,FALCON,LF,target,right,aqua,pleasantness,liberal,no,9,1,1.11683134488,-,-
2019_Oct_09,12,001,4,source,3,KRAALS,LF,target,left,yellow,imageability,conservative,no,3,1,3.13326617161,-,-
2019_Oct_09,12,001,4,source,4,WOODCOCK,LF,target,left,yellow,imageability,liberal,no,1,1,2.40023074013,-,-
2019_Oct_09,12,001,4,source,5,SPOKE,HF,target,right,aqua,pleasantness,conservative,no,9,1,3.56673683454,-,-
2019_Oct_09,12,001,4,source,6,SNIGGERED,LF,target,right,aqua,pleasantness,liberal,no,9,1,1.31698429178,-,-
2019_Oct_09,12,001,4,source,7,FAUCET,LF,target,right,aqua,pleasantness,conservative,no,7,1,3.93343290279,-,-
2019_Oct_09,12,001,4,source,8,MERELY,HF,target,left,yellow,imageability,liberal,no,3,1,1.50014480831,-,-
2019_Oct_09,12,001,4,source,9,USING,HF,target,right,aqua,pleasantness,liberal,no,9,1,2.30023785223,-,-
2019_Oct_09,12,001,4,source,10,REVERE,LF,target,right,aqua,pleasantness,conservative,no,9,1,2.03328134898,-,-
2019_Oct_09,12,001,4,source,11,SORRY,HF,target,right,aqua,pleasantness,liberal,no,9,1,0.966887655146,-,-
2019_Oct_09,12,001,4,source,12,JUMBO,LF,target,right,aqua,pleasantness,liberal,yes,3,0,1.05018102872,-,-
2019_Oct_09,12,001,4,source,13,DUCHY,LF,target,left,yellow,imageability,liberal,no,1,1,1.73355380857,-,-
2019_Oct_09,12,001,4,source,14,SONAR,LF,target,left,yellow,imageability,conservative,no,1,1,1.06697695971,-,-
2019_Oct_09,12,001,4,source,15,USUAL,HF,target,right,aqua,pleasantness,liberal,no,3,0,3.48340056838,-,-
2019_Oct_09,12,001,4,source,16,DUPLICITY,LF,target,right,aqua,pleasantness,conservative,no,9,1,2.09995439455,-,-
2019_Oct_09,12,001,4,source,17,MEETING,HF,target,right,aqua,pleasantness,liberal,no,9,1,2.75009605007,-,-
2019_Oct_09,12,001,4,source,18,DROLL,LF,target,left,yellow,imageability,liberal,no,2,1,3.38337285317,-,-
2019_Oct_09,12,001,4,source,19,RATHER,HF,target,left,yellow,imageability,liberal,no,3,1,3.58347704183,-,-
2019_Oct_09,12,001,4,source,20,MIDDLE,HF,target,left,yellow,imageability,liberal,no,1,1,1.58350013784,-,-
2019_Oct_09,12,001,4,source,21,BREAK,HF,target,left,yellow,imageability,liberal,yes,3,1,0.816900339621,-,-
2019_Oct_09,12,001,4,source,22,UNCANNILY,LF,target,right,aqua,pleasantness,conservative,no,9,1,1.91655631907,-,-
2019_Oct_09,12,001,4,source,23,CIRCUSES,LF,target,right,aqua,pleasantness,liberal,no,9,1,1.51693230743,-,-
2019_Oct_09,12,001,4,source,24,ENMESHED,LF,target,left,yellow,imageability,conservative,no,1,1,1.66689835996,-,-
2019_Oct_09,12,001,4,source,25,LEVEL,HF,target,left,yellow,imageability,liberal,no,1,1,1.43351612175,-,-
2019_Oct_09,12,001,4,source,26,CAPITAL,HF,target,right,aqua,pleasantness,conservative,no,1,0,0.75023096009,-,-
2019_Oct_09,12,001,4,source,27,VAINLY,LF,target,right,aqua,pleasantness,liberal,yes,3,0,0.750232793107,-,-
2019_Oct_09,12,001,4,source,28,NESTING,LF,target,left,yellow,imageability,conservative,no,1,1,1.83350417048,-,-
2019_Oct_09,12,001,4,source,29,VARIOUS,HF,target,right,aqua,pleasantness,liberal,no,9,1,4.51666505361,-,-
2019_Oct_09,12,001,4,source,30,STRAIGHT,HF,target,left,yellow,imageability,conservative,no,1,1,1.48348232092,-,-
2019_Oct_09,12,001,4,source,31,CADDIE,LF,target,left,yellow,imageability,conservative,no,1,1,0.96688912156,-,-
2019_Oct_09,12,001,4,source,32,ENGULF,LF,target,right,aqua,pleasantness,liberal,no,9,1,1.0166749519,-,-
2019_Oct_09,12,001,4,source,33,GOVERNS,LF,target,left,yellow,imageability,liberal,no,1,1,1.78355886769,-,-
2019_Oct_09,12,001,4,source,34,ACTION,HF,target,right,aqua,pleasantness,conservative,no,9,1,1.3002011919,-,-
2019_Oct_09,12,001,4,source,35,TAUNTED,LF,target,right,aqua,pleasantness,conservative,no,9,1,0.933561580559,-,-
2019_Oct_09,12,001,4,source,36,NURTURING,LF,target,right,aqua,pleasantness,conservative,no,9,1,1.06690767169,-,-
2019_Oct_09,12,001,4,source,37,BORAX,LF,target,left,yellow,imageability,conservative,no,1,1,2.51687145128,-,-
2019_Oct_09,12,001,4,source,38,SAVOURED,LF,target,left,yellow,imageability,liberal,no,1,1,1.4835354784,-,-
2019_Oct_09,12,001,4,source,39,SLIGHTLY,HF,target,right,aqua,pleasantness,liberal,no,7,1,3.50009861629,-,-
2019_Oct_09,12,001,4,source,40,PLACE,HF,target,right,aqua,pleasantness,conservative,no,1,0,1.56696229558,-,-
2019_Oct_09,12,001,4,source,41,INVOLVED,HF,target,left,yellow,imageability,conservative,no,3,1,7.66654972021,-,-
2019_Oct_09,12,001,4,source,42,AFTERNOON,HF,target,left,yellow,imageability,conservative,no,1,1,1.63329366685,-,-
2019_Oct_09,12,001,4,source,43,SEVEN,HF,target,right,aqua,pleasantness,conservative,no,9,1,1.05021438962,-,-
2019_Oct_09,12,001,4,source,44,ARDENTLY,LF,target,left,yellow,imageability,liberal,no,3,1,1.61686433918,-,-
2019_Oct_09,12,001,4,source,45,WESTERN,HF,target,left,yellow,imageability,conservative,no,1,1,1.15013798949,-,-
2019_Oct_09,12,001,4,source,46,NEARLY,HF,target,left,yellow,imageability,liberal,yes,3,1,0.683543616996,-,-
2019_Oct_09,12,001,4,source,47,MILES,HF,target,left,yellow,imageability,conservative,no,1,1,1.20010968771,-,-
2019_Oct_09,12,001,4,recog,0,STRAIGHT,HF,target,left,yellow,imageability,conservative,no,z,1,2.06692966789,1,691
2019_Oct_09,12,001,4,recog,1,SPEAK,HF,lure,-,-,-,conservative,no,z,0,1.53349507872,-3,688
2019_Oct_09,12,001,4,recog,2,FIXTURE,LF,lure,-,-,-,conservative,no,m,1,0.950195106286,3,691
2019_Oct_09,12,001,4,recog,3,BORAX,LF,target,left,yellow,imageability,conservative,no,z,1,0.816897773398,1,692
2019_Oct_09,12,001,4,recog,4,CHAIR,HF,lure,-,-,-,conservative,no,m,1,0.833508569719,3,695
2019_Oct_09,12,001,4,recog,5,VARIOUS,HF,target,right,aqua,pleasantness,liberal,no,z,1,0.750029328266,3,698
2019_Oct_09,12,001,4,recog,6,SNIGGERED,LF,target,right,aqua,pleasantness,liberal,no,z,1,0.716972340513,3,701
2019_Oct_09,12,001,4,recog,7,LATER,HF,lure,-,-,-,liberal,no,m,1,0.816954963515,1,702
2019_Oct_09,12,001,4,recog,8,SYSTEM,HF,lure,-,-,-,liberal,no,m,1,0.816847548744,1,703
2019_Oct_09,12,001,4,recog,9,RATHER,HF,target,left,yellow,imageability,liberal,no,z,1,3.13339594918,3,706
2019_Oct_09,12,001,4,recog,10,MODERN,HF,lure,-,-,-,liberal,no,m,1,0.716916616808,1,707
2019_Oct_09,12,001,4,recog,11,ENZYME,LF,lure,-,-,-,liberal,no,m,1,0.766985464912,1,708
2019_Oct_09,12,001,4,recog,12,DETACH,LF,lure,-,-,-,conservative,no,m,1,1.05026644729,3,711
2019_Oct_09,12,001,4,recog,13,ENMESHED,LF,target,left,yellow,imageability,conservative,no,z,1,0.933625736139,1,712
2019_Oct_09,12,001,4,recog,14,CIRCUSES,LF,target,right,aqua,pleasantness,liberal,no,z,1,0.733572505338,3,715
2019_Oct_09,12,001,4,recog,15,REFECTORY,LF,lure,-,-,-,conservative,no,m,1,0.833628815607,3,718
2019_Oct_09,12,001,4,recog,16,DALES,LF,lure,-,-,-,liberal,yes,z,0,1.53347051629,-1,717
2019_Oct_09,12,001,4,recog,17,LUCERNE,LF,lure,-,-,-,conservative,no,m,1,2.06683105159,3,720
2019_Oct_09,12,001,4,recog,18,ELUDE,LF,lure,-,-,-,conservative,no,m,1,0.88355945426,3,723
2019_Oct_09,12,001,4,recog,19,ECONOMIC,HF,lure,-,-,-,conservative,no,m,1,0.700281991272,3,726
2019_Oct_09,12,001,4,recog,20,DUPLICITY,LF,target,right,aqua,pleasantness,conservative,no,z,1,0.650219375425,1,727
2019_Oct_09,12,001,4,recog,21,WEBBED,LF,lure,-,-,-,liberal,no,m,1,1.11663154607,1,728
2019_Oct_09,12,001,4,recog,22,MENFOLK,LF,lure,-,-,-,liberal,no,m,1,0.73352521351,1,729
2019_Oct_09,12,001,4,recog,23,CADDIE,LF,target,left,yellow,imageability,conservative,no,z,1,0.733571038924,1,730
2019_Oct_09,12,001,4,recog,24,SOMEONE,HF,lure,-,-,-,liberal,no,z,0,1.18360190692,-1,729
2019_Oct_09,12,001,4,recog,25,MELODIC,LF,lure,-,-,-,liberal,no,m,1,0.833361195185,1,730
2019_Oct_09,12,001,4,recog,26,PERHAPS,HF,lure,-,-,-,conservative,no,m,1,0.933599340701,3,733
2019_Oct_09,12,001,4,recog,27,SEVEN,HF,target,right,aqua,pleasantness,conservative,no,z,1,0.683568179418,1,734
2019_Oct_09,12,001,4,recog,28,NURTURING,LF,target,right,aqua,pleasantness,conservative,no,z,1,0.716898653246,1,735
2019_Oct_09,12,001,4,recog,29,ACACIA,LF,lure,-,-,-,conservative,no,m,1,0.883611145327,3,738
2019_Oct_09,12,001,4,recog,30,BAFFLING,LF,lure,-,-,-,conservative,no,m,1,2.93322870475,3,741
2019_Oct_09,12,001,4,recog,31,ARBITER,LF,lure,-,-,-,conservative,no,m,1,0.833561360597,3,744
2019_Oct_09,12,001,4,recog,32,APPEARED,HF,lure,-,-,-,conservative,no,m,1,2.15013139063,3,747
2019_Oct_09,12,001,4,recog,33,PLACE,HF,target,right,aqua,pleasantness,conservative,no,z,1,0.866907231764,1,748
2019_Oct_09,12,001,4,recog,34,SORRY,HF,target,right,aqua,pleasantness,liberal,no,z,1,0.96688362251,3,751
2019_Oct_09,12,001,4,recog,35,MIDDLE,HF,target,left,yellow,imageability,liberal,no,z,1,1.5834733758,3,754
2019_Oct_09,12,001,4,recog,36,DIFFERENT,HF,lure,-,-,-,liberal,no,m,1,1.88347220267,1,755
2019_Oct_09,12,001,4,recog,37,SLACKEN,LF,lure,-,-,-,conservative,no,m,1,0.800185794561,3,758
2019_Oct_09,12,001,4,recog,38,DEGREE,HF,lure,-,-,-,liberal,no,m,1,0.966931280941,1,759
2019_Oct_09,12,001,4,recog,39,ARDENTLY,LF,target,left,yellow,imageability,liberal,no,z,1,0.833663642922,3,762
2019_Oct_09,12,001,4,recog,40,CLICKS,LF,lure,-,-,-,liberal,no,m,1,0.716816534103,1,763
2019_Oct_09,12,001,4,recog,41,CORNER,HF,lure,-,-,-,conservative,no,m,1,0.75023535933,3,766
2019_Oct_09,12,001,4,recog,42,TAUNTED,LF,target,right,aqua,pleasantness,conservative,no,z,1,0.60020991706,1,767
2019_Oct_09,12,001,4,recog,43,CINDER,LF,lure,-,-,-,liberal,no,m,1,0.717000568969,1,768
2019_Oct_09,12,001,4,recog,44,AMULETS,LF,lure,-,-,-,liberal,no,m,1,0.700234699444,1,769
2019_Oct_09,12,001,4,recog,45,UNNAMED,LF,lure,-,-,-,conservative,no,m,1,3.05019239342,3,772
2019_Oct_09,12,001,4,recog,46,SLOWLY,HF,lure,-,-,-,conservative,no,m,1,0.666860966425,3,775
2019_Oct_09,12,001,4,recog,47,COMES,HF,lure,-,-,-,conservative,no,m,1,1.03355520166,3,778
2019_Oct_09,12,001,4,recog,48,NESTING,LF,target,left,yellow,imageability,conservative,no,z,1,0.683564513385,1,779
2019_Oct_09,12,001,4,recog,49,FALCON,LF,target,right,aqua,pleasantness,liberal,no,z,1,0.583614884681,3,782
2019_Oct_09,12,001,4,recog,50,LEVEL,HF,target,left,yellow,imageability,liberal,no,z,1,0.950268793553,3,785
2019_Oct_09,12,001,4,recog,51,DROLL,LF,target,left,yellow,imageability,liberal,no,z,1,0.633566786326,3,788
2019_Oct_09,12,001,4,recog,52,FAUCET,LF,target,right,aqua,pleasantness,conservative,no,z,1,0.766945138547,1,789
2019_Oct_09,12,001,4,recog,53,MEETING,HF,target,right,aqua,pleasantness,liberal,no,z,1,0.850330529551,3,792
2019_Oct_09,12,001,4,recog,54,SONAR,LF,target,left,yellow,imageability,conservative,no,z,1,0.750274952488,1,793
2019_Oct_09,12,001,4,recog,55,TAGGED,LF,lure,-,-,-,liberal,no,m,1,0.916927321625,1,794
2019_Oct_09,12,001,4,recog,56,VAINLY,LF,target,right,aqua,pleasantness,liberal,no,z,1,0.783568765984,3,797
2019_Oct_09,12,001,4,recog,57,DUCHY,LF,target,left,yellow,imageability,liberal,no,z,1,0.783360901903,3,800
2019_Oct_09,12,001,4,recog,58,ENGULF,LF,target,right,aqua,pleasantness,liberal,no,z,1,0.683366547594,3,803
2019_Oct_09,12,001,4,recog,59,SAVOURED,LF,target,left,yellow,imageability,liberal,no,z,1,0.68336948042,3,806
2019_Oct_09,12,001,4,recog,60,ELECTING,LF,lure,-,-,-,liberal,no,m,1,0.950338814786,1,807
2019_Oct_09,12,001,4,recog,61,BREAK,HF,target,left,yellow,imageability,liberal,no,m,0,0.866890001408,-3,804
2019_Oct_09,12,001,4,recog,62,REVERE,LF,target,right,aqua,pleasantness,conservative,no,z,1,0.66691559032,1,805
2019_Oct_09,12,001,4,recog,63,AFTERNOON,HF,target,left,yellow,imageability,conservative,no,z,1,0.800279278408,1,806
2019_Oct_09,12,001,4,recog,64,ACTION,HF,target,right,aqua,pleasantness,conservative,no,z,1,1.58354303043,1,807
2019_Oct_09,12,001,4,recog,65,USUAL,HF,target,right,aqua,pleasantness,liberal,no,z,1,1.65023660578,3,810
2019_Oct_09,12,001,4,recog,66,CAPITAL,HF,target,right,aqua,pleasantness,conservative,no,z,1,0.70024313132,1,811
2019_Oct_09,12,001,4,recog,67,HERSELF,HF,lure,-,-,-,liberal,no,m,1,0.800381927336,1,812
2019_Oct_09,12,001,4,recog,68,UNCANNILY,LF,target,right,aqua,pleasantness,conservative,no,z,1,0.900293429295,1,813
2019_Oct_09,12,001,4,recog,69,MEANS,HF,lure,-,-,-,conservative,no,m,1,1.05026388107,3,816
2019_Oct_09,12,001,4,recog,70,TARIFF,LF,lure,-,-,-,conservative,no,m,1,0.833517368198,3,819
2019_Oct_09,12,001,4,recog,71,VALUE,HF,target,right,aqua,pleasantness,conservative,no,z,1,1.23354537669,1,820
2019_Oct_09,12,001,4,recog,72,MILES,HF,target,left,yellow,imageability,conservative,yes,m,0,1.20019510629,-1,819
2019_Oct_09,12,001,4,recog,73,MAYBE,HF,lure,-,-,-,liberal,yes,z,0,1.43352528683,-1,818
2019_Oct_09,12,001,4,recog,74,SPOKE,HF,target,right,aqua,pleasantness,conservative,no,m,0,4.8666678398,-1,817
2019_Oct_09,12,001,4,recog,75,WOODCOCK,LF,target,left,yellow,imageability,liberal,no,z,1,2.9001064616,3,820
2019_Oct_09,12,001,4,recog,76,ABOVE,HF,lure,-,-,-,liberal,no,m,1,0.883518394688,1,821
2019_Oct_09,12,001,4,recog,77,JELLIES,LF,lure,-,-,-,liberal,no,m,1,0.800226120926,1,822
2019_Oct_09,12,001,4,recog,78,WESTERN,HF,target,left,yellow,imageability,conservative,no,z,1,0.600321364468,1,823
2019_Oct_09,12,001,4,recog,79,SLIGHTLY,HF,target,right,aqua,pleasantness,liberal,no,z,1,1.13354479013,3,826
2019_Oct_09,12,001,4,recog,80,LEARN,HF,target,left,yellow,imageability,conservative,no,z,1,0.833561360597,1,827
2019_Oct_09,12,001,4,recog,81,HOWEVER,HF,lure,-,-,-,liberal,no,m,1,0.700280891462,1,828
2019_Oct_09,12,001,4,recog,82,TODAY,HF,lure,-,-,-,conservative,no,m,1,0.833510402736,3,831
2019_Oct_09,12,001,4,recog,83,BEGAN,HF,lure,-,-,-,liberal,no,m,1,0.850273339433,1,832
2019_Oct_09,12,001,4,recog,84,USING,HF,target,right,aqua,pleasantness,liberal,no,z,1,0.966849161798,3,835
2019_Oct_09,12,001,4,recog,85,FOUND,HF,lure,-,-,-,conservative,no,m,1,2.16682760552,3,838
2019_Oct_09,12,001,4,recog,86,NEARLY,HF,target,left,yellow,imageability,liberal,no,m,0,1.16691632353,-3,835
2019_Oct_09,12,001,4,recog,87,KRAALS,LF,target,left,yellow,imageability,conservative,yes,m,0,0.916690495882,-1,834
2019_Oct_09,12,001,4,recog,88,UNEARTHED,LF,lure,-,-,-,conservative,no,m,1,1.46690268588,3,837
2019_Oct_09,12,001,4,recog,89,MERELY,HF,target,left,yellow,imageability,liberal,no,m,0,1.60024364456,-3,834
2019_Oct_09,12,001,4,recog,90,GENERAL,HF,lure,-,-,-,conservative,no,m,1,2.3335613606,3,837
2019_Oct_09,12,001,4,recog,91,JUMBO,LF,target,right,aqua,pleasantness,liberal,no,z,1,0.783524406982,3,840
2019_Oct_09,12,001,4,recog,92,ASCEND,LF,lure,-,-,-,liberal,no,m,1,0.933632334999,1,841
2019_Oct_09,12,001,4,recog,93,GOVERNS,LF,target,left,yellow,imageability,liberal,no,z,1,0.650325690387,3,844
2019_Oct_09,12,001,4,recog,94,INVOLVED,HF,target,left,yellow,imageability,conservative,no,z,1,2.78343532238,1,845
2019_Oct_09,12,001,4,recog,95,STAFF,HF,lure,-,-,-,liberal,no,m,1,1.85016005901,1,846
