date,subj,session,cycle,task,trial,item,wf,type,source,colour,encoding,bias,null,response,corr,rt,points,total
2019_Oct_10,120,001,0,source,0,TURNED,HF,target,right,aqua,pleasantness,conservative,no,8,1,6.82399273536,-,-
2019_Oct_10,120,001,0,source,1,BLACK,HF,target,right,aqua,pleasantness,liberal,no,9,1,2.07094496751,-,-
2019_Oct_10,120,001,0,source,2,JUROR,LF,target,left,yellow,imageability,conservative,no,8,0,1.78862528384,-,-
2019_Oct_10,120,001,0,source,3,YELLOWED,LF,target,left,yellow,imageability,liberal,no,1,1,3.20038060896,-,-
2019_Oct_10,120,001,0,source,4,RABBIS,LF,target,right,aqua,pleasantness,liberal,no,9,1,1.17664808959,-,-
2019_Oct_10,120,001,0,source,5,MERELY,HF,target,right,aqua,pleasantness,conservative,no,3,0,5.55314337835,-,-
2019_Oct_10,120,001,0,source,6,POACHED,LF,target,right,aqua,pleasantness,liberal,no,9,1,1.97680309004,-,-
2019_Oct_10,120,001,0,source,7,OBVIOUSLY,HF,target,right,aqua,pleasantness,conservative,no,9,1,1.43557106375,-,-
2019_Oct_10,120,001,0,source,8,ORCHARDS,LF,target,left,yellow,imageability,conservative,no,1,1,1.52974740206,-,-
2019_Oct_10,120,001,0,source,9,TERMS,HF,target,left,yellow,imageability,liberal,no,8,0,5.52987021462,-,-
2019_Oct_10,120,001,0,source,10,FOLLOWED,HF,target,left,yellow,imageability,liberal,no,8,0,2.47116837639,-,-
2019_Oct_10,120,001,0,source,11,SURER,LF,target,right,aqua,pleasantness,conservative,no,3,0,3.10618777344,-,-
2019_Oct_10,120,001,0,source,12,DOODLE,LF,target,right,aqua,pleasantness,liberal,no,7,1,3.22388839968,-,-
2019_Oct_10,120,001,0,source,13,SEVEN,HF,target,right,aqua,pleasantness,conservative,no,9,1,1.55307189044,-,-
2019_Oct_10,120,001,0,source,14,VISCOUS,LF,target,left,yellow,imageability,liberal,no,2,1,1.67093382273,-,-
2019_Oct_10,120,001,0,source,15,VALUE,HF,target,left,yellow,imageability,conservative,no,1,1,2.25910004421,-,-
2019_Oct_10,120,001,0,source,16,SIPHON,LF,target,left,yellow,imageability,conservative,no,1,1,1.71804362156,-,-
2019_Oct_10,120,001,0,source,17,OCCUPANCY,LF,target,left,yellow,imageability,conservative,no,1,1,1.29450158996,-,-
2019_Oct_10,120,001,0,source,18,WOODCOCK,LF,target,left,yellow,imageability,liberal,yes,7,0,1.81212464265,-,-
2019_Oct_10,120,001,0,source,19,MUSIC,HF,target,right,aqua,pleasantness,conservative,no,9,1,2.42387747486,-,-
2019_Oct_10,120,001,0,source,20,ROYALS,LF,target,right,aqua,pleasantness,conservative,no,7,1,1.95327256983,-,-
2019_Oct_10,120,001,0,source,21,HYDRAULIC,LF,target,right,aqua,pleasantness,conservative,no,7,1,1.5297433694,-,-
2019_Oct_10,120,001,0,source,22,EDICT,LF,target,right,aqua,pleasantness,conservative,yes,7,1,0.96502408226,-,-
2019_Oct_10,120,001,0,source,23,FATHER,HF,target,right,aqua,pleasantness,liberal,no,9,1,1.08270821128,-,-
2019_Oct_10,120,001,0,source,24,PIECE,HF,target,left,yellow,imageability,conservative,no,8,0,2.87096652386,-,-
2019_Oct_10,120,001,0,source,25,QUICKLY,HF,target,right,aqua,pleasantness,conservative,no,3,0,3.36508911793,-,-
2019_Oct_10,120,001,0,source,26,GAZELLE,LF,target,right,aqua,pleasantness,liberal,yes,3,0,0.776815481275,-,-
2019_Oct_10,120,001,0,source,27,VOYAGES,LF,target,right,aqua,pleasantness,liberal,no,8,1,1.69456955847,-,-
2019_Oct_10,120,001,0,source,28,ELLIPSE,LF,target,left,yellow,imageability,conservative,no,3,1,2.23544597824,-,-
2019_Oct_10,120,001,0,source,29,CHIEF,HF,target,right,aqua,pleasantness,liberal,no,8,1,1.69445481121,-,-
2019_Oct_10,120,001,0,source,30,DOCTOR,HF,target,left,yellow,imageability,liberal,no,3,1,4.23583494578,-,-
2019_Oct_10,120,001,0,source,31,QUESTION,HF,target,right,aqua,pleasantness,liberal,no,9,1,1.57678534637,-,-
2019_Oct_10,120,001,0,source,32,TOGETHER,HF,target,left,yellow,imageability,conservative,no,9,0,2.72954547621,-,-
2019_Oct_10,120,001,0,source,33,ATTACK,HF,target,right,aqua,pleasantness,liberal,no,9,1,1.10617860832,-,-
2019_Oct_10,120,001,0,source,34,RAKING,LF,target,left,yellow,imageability,liberal,no,2,1,4.09450188325,-,-
2019_Oct_10,120,001,0,source,35,IMMEDIACY,LF,target,right,aqua,pleasantness,liberal,no,8,1,3.67089459603,-,-
2019_Oct_10,120,001,0,source,36,JUDICIOUS,LF,target,left,yellow,imageability,conservative,no,7,0,1.52973640392,-,-
2019_Oct_10,120,001,0,source,37,GLASS,HF,target,left,yellow,imageability,conservative,no,2,1,2.09452681237,-,-
2019_Oct_10,120,001,0,source,38,UNION,HF,target,left,yellow,imageability,conservative,no,3,1,1.08270637826,-,-
2019_Oct_10,120,001,0,source,39,REUNITED,LF,target,right,aqua,pleasantness,conservative,no,9,1,1.31798261854,-,-
2019_Oct_10,120,001,0,source,40,BUOYANCY,LF,target,left,yellow,imageability,liberal,yes,8,0,0.588489566798,-,-
2019_Oct_10,120,001,0,source,41,LABOUR,HF,target,left,yellow,imageability,conservative,no,8,0,2.23569820224,-,-
2019_Oct_10,120,001,0,source,42,SERIOUS,HF,target,left,yellow,imageability,liberal,no,8,0,1.45911111567,-,-
2019_Oct_10,120,001,0,source,43,TADPOLES,LF,target,right,aqua,pleasantness,conservative,no,9,1,3.15330343794,-,-
2019_Oct_10,120,001,0,source,44,VOICE,HF,target,right,aqua,pleasantness,liberal,no,9,1,1.05919162206,-,-
2019_Oct_10,120,001,0,source,45,MUMBLES,LF,target,left,yellow,imageability,liberal,no,7,0,1.43566784738,-,-
2019_Oct_10,120,001,0,source,46,SITTING,HF,target,left,yellow,imageability,liberal,no,2,1,1.10618777344,-,-
2019_Oct_10,120,001,0,source,47,PARENTS,HF,target,left,yellow,imageability,liberal,no,1,1,2.44717263487,-,-
2019_Oct_10,120,001,0,recog,0,WOODCOCK,LF,target,left,yellow,imageability,liberal,no,z,1,5.34153256879,3,3
2019_Oct_10,120,001,0,recog,1,NOTHING,HF,lure,-,-,-,liberal,no,m,1,1.56479737394,1,4
2019_Oct_10,120,001,0,recog,2,HUMAN,HF,lure,-,-,-,liberal,no,m,1,1.49445363807,1,5
2019_Oct_10,120,001,0,recog,3,RAKING,LF,target,left,yellow,imageability,liberal,no,z,1,1.71798936407,3,8
2019_Oct_10,120,001,0,recog,4,RIVER,HF,lure,-,-,-,conservative,no,z,0,1.87071173362,-3,5
2019_Oct_10,120,001,0,recog,5,ANSWER,HF,lure,-,-,-,conservative,no,z,0,2.76478754893,-3,2
2019_Oct_10,120,001,0,recog,6,TAKEN,HF,lure,-,-,-,conservative,no,m,1,4.11815448281,3,5
2019_Oct_10,120,001,0,recog,7,CHURCH,HF,lure,-,-,-,conservative,no,m,1,2.03561234343,3,8
2019_Oct_10,120,001,0,recog,8,RABBIS,LF,target,right,aqua,pleasantness,liberal,no,z,1,1.17680133033,3,11
2019_Oct_10,120,001,0,recog,9,VISCOUS,LF,target,left,yellow,imageability,liberal,no,z,1,1.4944716017,3,14
2019_Oct_10,120,001,0,recog,10,OBVIOUSLY,HF,target,right,aqua,pleasantness,conservative,no,z,1,1.29448692578,1,15
2019_Oct_10,120,001,0,recog,11,UNION,HF,target,left,yellow,imageability,conservative,no,z,1,1.84737404747,1,16
2019_Oct_10,120,001,0,recog,12,ORCHARDS,LF,target,left,yellow,imageability,conservative,no,z,1,1.611988559,1,17
2019_Oct_10,120,001,0,recog,13,POACHED,LF,target,right,aqua,pleasantness,liberal,no,m,0,2.37657630839,-3,14
2019_Oct_10,120,001,0,recog,14,FUTURE,HF,lure,-,-,-,liberal,no,m,1,1.81215323782,1,15
2019_Oct_10,120,001,0,recog,15,STOOD,HF,lure,-,-,-,liberal,no,m,1,4.41210946522,1,16
2019_Oct_10,120,001,0,recog,16,SHORT,HF,lure,-,-,-,liberal,no,m,1,2.34176426294,1,17
2019_Oct_10,120,001,0,recog,17,SEGMENTED,LF,lure,-,-,-,liberal,no,m,1,3.45915364181,1,18
2019_Oct_10,120,001,0,recog,18,REUNITED,LF,target,right,aqua,pleasantness,conservative,no,z,1,1.38860350753,1,19
2019_Oct_10,120,001,0,recog,19,LABOUR,HF,target,left,yellow,imageability,conservative,no,z,1,2.65914088397,1,20
2019_Oct_10,120,001,0,recog,20,DYNAMISM,LF,lure,-,-,-,conservative,no,m,1,1.27093697553,3,23
2019_Oct_10,120,001,0,recog,21,PLACE,HF,lure,-,-,-,liberal,no,m,1,3.57681284172,1,24
2019_Oct_10,120,001,0,recog,22,FOLLOWED,HF,target,left,yellow,imageability,liberal,no,z,1,1.24741415402,3,27
2019_Oct_10,120,001,0,recog,23,ELLIPSE,LF,target,left,yellow,imageability,conservative,no,z,1,2.28274531168,1,28
2019_Oct_10,120,001,0,recog,24,DITTO,LF,lure,-,-,-,conservative,no,m,1,1.29441507126,3,31
2019_Oct_10,120,001,0,recog,25,MUMBLES,LF,target,left,yellow,imageability,liberal,no,z,1,1.08277126729,3,34
2019_Oct_10,120,001,0,recog,26,INSIDE,HF,lure,-,-,-,liberal,no,m,1,1.00032737796,1,35
2019_Oct_10,120,001,0,recog,27,VALUE,HF,target,left,yellow,imageability,conservative,yes,m,0,1.25911067575,-1,34
2019_Oct_10,120,001,0,recog,28,QUESTION,HF,target,right,aqua,pleasantness,liberal,no,z,1,3.94152985592,3,37
2019_Oct_10,120,001,0,recog,29,POOLED,LF,lure,-,-,-,liberal,no,m,1,1.10620207102,1,38
2019_Oct_10,120,001,0,recog,30,SITTING,HF,target,left,yellow,imageability,liberal,no,z,1,2.87102078135,3,41
2019_Oct_10,120,001,0,recog,31,ATTACK,HF,target,right,aqua,pleasantness,liberal,no,m,0,5.12999471356,-3,38
2019_Oct_10,120,001,0,recog,32,BLACK,HF,target,right,aqua,pleasantness,liberal,no,z,1,0.929866695213,3,41
2019_Oct_10,120,001,0,recog,33,QUICKLY,HF,target,right,aqua,pleasantness,conservative,no,z,1,1.15328987357,1,42
2019_Oct_10,120,001,0,recog,34,SNUBBED,LF,lure,-,-,-,liberal,no,m,1,0.859150489014,1,43
2019_Oct_10,120,001,0,recog,35,GANGWAY,LF,lure,-,-,-,conservative,no,m,1,1.40039131382,3,46
2019_Oct_10,120,001,0,recog,36,ROYALS,LF,target,right,aqua,pleasantness,conservative,no,z,1,1.41195952391,1,47
2019_Oct_10,120,001,0,recog,37,TOGETHER,HF,target,left,yellow,imageability,conservative,no,z,1,1.16507144758,1,48
2019_Oct_10,120,001,0,recog,38,MERELY,HF,target,right,aqua,pleasantness,conservative,no,m,0,5.11808922718,-1,47
2019_Oct_10,120,001,0,recog,39,INVOLVED,HF,lure,-,-,-,liberal,no,m,1,1.40033192386,1,48
2019_Oct_10,120,001,0,recog,40,FATHER,HF,target,right,aqua,pleasantness,liberal,no,z,1,0.812064519487,3,51
2019_Oct_10,120,001,0,recog,41,BUOYANCY,LF,target,left,yellow,imageability,liberal,no,z,1,0.776542360802,3,54
2019_Oct_10,120,001,0,recog,42,APART,HF,lure,-,-,-,liberal,no,m,1,0.765040139544,1,55
2019_Oct_10,120,001,0,recog,43,GAZELLE,LF,target,right,aqua,pleasantness,liberal,no,z,1,0.941561383918,3,58
2019_Oct_10,120,001,0,recog,44,DWINDLE,LF,lure,-,-,-,liberal,no,m,1,0.76495325424,1,59
2019_Oct_10,120,001,0,recog,45,FURTHER,HF,lure,-,-,-,liberal,no,m,1,1.67112775659,1,60
2019_Oct_10,120,001,0,recog,46,BIRCHES,LF,lure,-,-,-,conservative,no,m,1,0.835829300071,3,63
2019_Oct_10,120,001,0,recog,47,UPSTART,LF,lure,-,-,-,liberal,no,m,1,1.44740726185,1,64
2019_Oct_10,120,001,0,recog,48,TOILED,LF,lure,-,-,-,conservative,no,m,1,0.753356082374,3,67
2019_Oct_10,120,001,0,recog,49,SURER,LF,target,right,aqua,pleasantness,conservative,no,z,1,1.10635677819,1,68
2019_Oct_10,120,001,0,recog,50,EDICT,LF,target,right,aqua,pleasantness,conservative,no,m,0,0.800271214129,-1,67
2019_Oct_10,120,001,0,recog,51,VOYAGES,LF,target,right,aqua,pleasantness,liberal,no,z,1,0.753424637446,3,70
2019_Oct_10,120,001,0,recog,52,TERMS,HF,target,left,yellow,imageability,liberal,no,m,0,1.11797741275,-3,67
2019_Oct_10,120,001,0,recog,53,REIGNING,LF,lure,-,-,-,liberal,no,m,1,1.89446441625,1,68
2019_Oct_10,120,001,0,recog,54,SIFTED,LF,lure,-,-,-,liberal,no,m,1,1.30628902965,1,69
2019_Oct_10,120,001,0,recog,55,CHIEF,HF,target,right,aqua,pleasantness,liberal,no,z,1,0.823757741774,3,72
2019_Oct_10,120,001,0,recog,56,JUROR,LF,target,left,yellow,imageability,conservative,no,z,1,0.800443151715,1,73
2019_Oct_10,120,001,0,recog,57,FAMILY,HF,lure,-,-,-,conservative,no,m,1,0.917926747989,3,76
2019_Oct_10,120,001,0,recog,58,JUDICIOUS,LF,target,left,yellow,imageability,conservative,no,m,0,1.64745499378,-1,75
2019_Oct_10,120,001,0,recog,59,HISTORY,HF,lure,-,-,-,conservative,no,m,1,0.965005385423,3,78
2019_Oct_10,120,001,0,recog,60,OCCUPANCY,LF,target,left,yellow,imageability,conservative,yes,m,0,1.07085331634,-1,77
2019_Oct_10,120,001,0,recog,61,GLASS,HF,target,left,yellow,imageability,conservative,no,z,1,1.80034343525,1,78
2019_Oct_10,120,001,0,recog,62,FUELLED,LF,lure,-,-,-,liberal,no,m,1,0.835769176907,1,79
2019_Oct_10,120,001,0,recog,63,GODMOTHER,LF,lure,-,-,-,conservative,no,m,1,2.90628704998,3,82
2019_Oct_10,120,001,0,recog,64,IMMEDIACY,LF,target,right,aqua,pleasantness,liberal,no,z,1,3.38855841515,3,85
2019_Oct_10,120,001,0,recog,65,TURNED,HF,target,right,aqua,pleasantness,conservative,no,z,1,6.42400102063,1,86
2019_Oct_10,120,001,0,recog,66,PIECE,HF,target,left,yellow,imageability,conservative,no,m,0,0.870936828884,-1,85
2019_Oct_10,120,001,0,recog,67,ALONE,HF,lure,-,-,-,conservative,yes,m,1,0.812193197723,3,88
2019_Oct_10,120,001,0,recog,68,ACACIA,LF,lure,-,-,-,conservative,no,m,1,1.34157509493,3,91
2019_Oct_10,120,001,0,recog,69,SIPHON,LF,target,left,yellow,imageability,conservative,no,z,1,0.87095222628,1,92
2019_Oct_10,120,001,0,recog,70,HYDRAULIC,LF,target,right,aqua,pleasantness,conservative,no,z,1,1.2237883166,1,93
2019_Oct_10,120,001,0,recog,71,TASSELS,LF,lure,-,-,-,conservative,no,m,1,0.823820064566,3,96
2019_Oct_10,120,001,0,recog,72,GREATER,HF,lure,-,-,-,conservative,no,m,1,0.812039590371,3,99
2019_Oct_10,120,001,0,recog,73,GOVERNS,LF,lure,-,-,-,liberal,no,m,1,1.29444989871,1,100
2019_Oct_10,120,001,0,recog,74,TITAN,LF,lure,-,-,-,liberal,no,m,1,0.565106788272,1,101
2019_Oct_10,120,001,0,recog,75,PARENTS,HF,target,left,yellow,imageability,liberal,no,z,1,0.800097076914,3,104
2019_Oct_10,120,001,0,recog,76,DOODLE,LF,target,right,aqua,pleasantness,liberal,no,z,1,0.635576636138,3,107
2019_Oct_10,120,001,0,recog,77,PAGANISM,LF,lure,-,-,-,conservative,no,m,1,0.835532350295,3,110
2019_Oct_10,120,001,0,recog,78,GETTING,HF,lure,-,-,-,liberal,no,m,1,0.788551229702,1,111
2019_Oct_10,120,001,0,recog,79,FULCRUM,LF,lure,-,-,-,conservative,yes,m,1,0.741497521386,3,114
2019_Oct_10,120,001,0,recog,80,NIMBLE,LF,lure,-,-,-,liberal,no,m,1,0.741434098779,1,115
2019_Oct_10,120,001,0,recog,81,SUBJECT,HF,lure,-,-,-,conservative,no,m,1,0.682694866875,3,118
2019_Oct_10,120,001,0,recog,82,DOCTOR,HF,target,left,yellow,imageability,liberal,no,z,1,0.741494221944,3,121
2019_Oct_10,120,001,0,recog,83,SORRY,HF,lure,-,-,-,conservative,no,m,1,0.600292770483,3,124
2019_Oct_10,120,001,0,recog,84,HIGHER,HF,lure,-,-,-,conservative,no,m,1,0.682671404176,3,127
2019_Oct_10,120,001,0,recog,85,RAPACIOUS,LF,lure,-,-,-,liberal,no,m,1,0.812083216325,1,128
2019_Oct_10,120,001,0,recog,86,TADPOLES,LF,target,right,aqua,pleasantness,conservative,no,z,1,1.07091087327,1,129
2019_Oct_10,120,001,0,recog,87,FRIEND,HF,lure,-,-,-,liberal,no,m,1,0.800082779333,1,130
2019_Oct_10,120,001,0,recog,88,WREATH,LF,lure,-,-,-,conservative,no,m,1,0.764819810143,3,133
2019_Oct_10,120,001,0,recog,89,SEVEN,HF,target,right,aqua,pleasantness,conservative,no,z,1,0.765008978148,1,134
2019_Oct_10,120,001,0,recog,90,MUSIC,HF,target,right,aqua,pleasantness,conservative,no,z,1,0.576542654086,1,135
2019_Oct_10,120,001,0,recog,91,TAUNTED,LF,lure,-,-,-,conservative,no,m,1,0.94125086977,3,138
2019_Oct_10,120,001,0,recog,92,YELLOWED,LF,target,left,yellow,imageability,liberal,no,z,1,0.647159510422,3,141
2019_Oct_10,120,001,0,recog,93,CONCERNED,HF,lure,-,-,-,conservative,no,m,1,2.00046852076,3,144
2019_Oct_10,120,001,0,recog,94,VOICE,HF,target,right,aqua,pleasantness,liberal,no,z,1,1.04741628033,3,147
2019_Oct_10,120,001,0,recog,95,SERIOUS,HF,target,left,yellow,imageability,liberal,no,z,1,0.588548223544,3,150
2019_Oct_10,120,001,1,source,0,AVENGE,LF,target,right,aqua,pleasantness,conservative,no,7,1,3.15341671879,-,-
2019_Oct_10,120,001,1,source,1,JOWLS,LF,target,right,aqua,pleasantness,conservative,no,8,1,1.78867734171,-,-
2019_Oct_10,120,001,1,source,2,SENSE,HF,target,right,aqua,pleasantness,liberal,no,9,1,1.9416310388,-,-
2019_Oct_10,120,001,1,source,3,DEFEATING,LF,target,left,yellow,imageability,conservative,no,3,1,2.29446749573,-,-
2019_Oct_10,120,001,1,source,4,RATHER,HF,target,left,yellow,imageability,liberal,yes,7,0,1.14154496003,-,-
2019_Oct_10,120,001,1,source,5,TEACUP,LF,target,left,yellow,imageability,liberal,no,1,1,3.44721882706,-,-
2019_Oct_10,120,001,1,source,6,WALKED,HF,target,right,aqua,pleasantness,conservative,no,9,1,1.42382871644,-,-
2019_Oct_10,120,001,1,source,7,PUBLIC,HF,target,right,aqua,pleasantness,conservative,no,9,1,0.97678365999,-,-
2019_Oct_10,120,001,1,source,8,BOWER,LF,target,right,aqua,pleasantness,liberal,no,7,1,3.40049103028,-,-
2019_Oct_10,120,001,1,source,9,NINETIES,LF,target,left,yellow,imageability,conservative,no,1,1,2.11790189219,-,-
2019_Oct_10,120,001,1,source,10,MOTHER,HF,target,right,aqua,pleasantness,liberal,no,9,1,1.82367782196,-,-
2019_Oct_10,120,001,1,source,11,FLECKED,LF,target,left,yellow,imageability,liberal,no,3,1,2.55328195491,-,-
2019_Oct_10,120,001,1,source,12,BOXCAR,LF,target,left,yellow,imageability,conservative,no,1,1,1.25882252448,-,-
2019_Oct_10,120,001,1,source,13,TRADE,HF,target,left,yellow,imageability,conservative,no,2,1,1.8592282092,-,-
2019_Oct_10,120,001,1,source,14,SOVIET,HF,target,left,yellow,imageability,liberal,no,7,0,1.27095677218,-,-
2019_Oct_10,120,001,1,source,15,IDOLATRY,LF,target,right,aqua,pleasantness,conservative,no,7,1,1.60037708955,-,-
2019_Oct_10,120,001,1,source,16,SAYING,HF,target,right,aqua,pleasantness,conservative,no,9,1,1.84717644756,-,-
2019_Oct_10,120,001,1,source,17,EMACIATED,LF,target,right,aqua,pleasantness,liberal,no,3,0,2.63568001865,-,-
2019_Oct_10,120,001,1,source,18,CENTRAL,HF,target,right,aqua,pleasantness,liberal,no,2,0,2.43567591268,-,-
2019_Oct_10,120,001,1,source,19,PUCKERED,LF,target,left,yellow,imageability,liberal,no,2,1,2.08245928672,-,-
2019_Oct_10,120,001,1,source,20,FIGURE,HF,target,right,aqua,pleasantness,conservative,no,9,1,1.49426630309,-,-
2019_Oct_10,120,001,1,source,21,ATHEIST,LF,target,right,aqua,pleasantness,conservative,no,9,1,1.34150360702,-,-
2019_Oct_10,120,001,1,source,22,GNARLED,LF,target,right,aqua,pleasantness,conservative,no,9,1,0.823869189591,-,-
2019_Oct_10,120,001,1,source,23,KICKER,LF,target,right,aqua,pleasantness,liberal,no,9,1,0.965028114912,-,-
2019_Oct_10,120,001,1,source,24,TOWARDS,HF,target,left,yellow,imageability,conservative,no,8,0,2.00007772019,-,-
2019_Oct_10,120,001,1,source,25,DAUGHTER,HF,target,right,aqua,pleasantness,liberal,yes,7,1,1.08270784468,-,-
2019_Oct_10,120,001,1,source,26,POSITION,HF,target,right,aqua,pleasantness,conservative,yes,7,1,0.60025171076,-,-
2019_Oct_10,120,001,1,source,27,AVIDLY,LF,target,right,aqua,pleasantness,liberal,no,8,1,2.36511991272,-,-
2019_Oct_10,120,001,1,source,28,SCOFFED,LF,target,left,yellow,imageability,conservative,no,8,0,2.72945895751,-,-
2019_Oct_10,120,001,1,source,29,HALLMARK,LF,target,left,yellow,imageability,liberal,no,2,1,1.54151321207,-,-
2019_Oct_10,120,001,1,source,30,STRAIGHT,HF,target,left,yellow,imageability,conservative,no,1,1,1.21208849543,-,-
2019_Oct_10,120,001,1,source,31,FREEDOM,HF,target,left,yellow,imageability,liberal,no,3,1,1.62372834008,-,-
2019_Oct_10,120,001,1,source,32,WANTED,HF,target,left,yellow,imageability,liberal,no,8,0,2.89448934537,-,-
2019_Oct_10,120,001,1,source,33,UMBILICAL,LF,target,left,yellow,imageability,conservative,no,3,1,2.56516801125,-,-
2019_Oct_10,120,001,1,source,34,ALDER,LF,target,right,aqua,pleasantness,liberal,yes,7,1,0.847139053881,-,-
2019_Oct_10,120,001,1,source,35,ARRIVED,HF,target,right,aqua,pleasantness,liberal,no,8,1,1.64710012047,-,-
2019_Oct_10,120,001,1,source,36,LIVED,HF,target,left,yellow,imageability,liberal,no,1,1,1.09420420026,-,-
2019_Oct_10,120,001,1,source,37,DAPPER,LF,target,left,yellow,imageability,conservative,no,1,1,2.42366667718,-,-
2019_Oct_10,120,001,1,source,38,TULIPS,LF,target,left,yellow,imageability,liberal,no,3,1,3.74134428064,-,-
2019_Oct_10,120,001,1,source,39,REPORT,HF,target,left,yellow,imageability,conservative,no,2,1,1.40039424665,-,-
2019_Oct_10,120,001,1,source,40,OFTEN,HF,target,left,yellow,imageability,liberal,no,8,0,2.16503478712,-,-
2019_Oct_10,120,001,1,source,41,RUINOUS,LF,target,left,yellow,imageability,liberal,no,9,0,1.14145147584,-,-
2019_Oct_10,120,001,1,source,42,SCHOOL,HF,target,right,aqua,pleasantness,conservative,no,9,1,0.91798577134,-,-
2019_Oct_10,120,001,1,source,43,VEGAN,LF,target,right,aqua,pleasantness,liberal,no,9,1,0.847141253509,-,-
2019_Oct_10,120,001,1,source,44,SOUND,HF,target,left,yellow,imageability,conservative,no,9,0,0.812069651953,-,-
2019_Oct_10,120,001,1,source,45,EDUCATION,HF,target,right,aqua,pleasantness,liberal,no,9,1,0.623615059239,-,-
2019_Oct_10,120,001,1,source,46,DUELLING,LF,target,right,aqua,pleasantness,conservative,no,9,1,0.776895767696,-,-
2019_Oct_10,120,001,1,source,47,BUILDING,HF,target,left,yellow,imageability,conservative,no,1,1,1.23537375712,-,-
2019_Oct_10,120,001,1,recog,0,NATIONAL,HF,lure,-,-,-,conservative,no,m,1,1.16506008284,3,153
2019_Oct_10,120,001,1,recog,1,EVIDENCE,HF,lure,-,-,-,conservative,no,m,1,0.670721192022,3,156
2019_Oct_10,120,001,1,recog,2,AVENGE,LF,target,right,aqua,pleasantness,conservative,no,z,1,0.965066241796,1,157
2019_Oct_10,120,001,1,recog,3,SAYING,HF,target,right,aqua,pleasantness,conservative,no,z,1,0.870973489351,1,158
2019_Oct_10,120,001,1,recog,4,WANTED,HF,target,left,yellow,imageability,liberal,no,z,1,2.14144341054,3,161
2019_Oct_10,120,001,1,recog,5,OFTEN,HF,target,left,yellow,imageability,liberal,no,z,1,1.42391780137,3,164
2019_Oct_10,120,001,1,recog,6,WEAKENS,LF,lure,-,-,-,liberal,no,m,1,0.741462693943,1,165
2019_Oct_10,120,001,1,recog,7,LEARN,HF,lure,-,-,-,conservative,no,m,1,2.29454228308,3,168
2019_Oct_10,120,001,1,recog,8,CRUCIALLY,LF,lure,-,-,-,conservative,no,m,1,1.05915129554,3,171
2019_Oct_10,120,001,1,recog,9,POWER,HF,lure,-,-,-,conservative,no,m,1,0.788627850076,3,174
2019_Oct_10,120,001,1,recog,10,CASES,HF,lure,-,-,-,conservative,no,m,1,0.635606697721,3,177
2019_Oct_10,120,001,1,recog,11,SOVIET,HF,target,left,yellow,imageability,liberal,yes,z,1,0.988659084794,3,180
2019_Oct_10,120,001,1,recog,12,FLICKS,LF,lure,-,-,-,liberal,no,z,0,2.282707918,-1,179
2019_Oct_10,120,001,1,recog,13,PUCKERED,LF,target,left,yellow,imageability,liberal,no,z,1,0.741264727426,3,182
2019_Oct_10,120,001,1,recog,14,FIGURE,HF,target,right,aqua,pleasantness,conservative,no,z,1,1.00036697127,1,183
2019_Oct_10,120,001,1,recog,15,JUBILANT,LF,lure,-,-,-,conservative,no,m,1,1.09438420315,3,186
2019_Oct_10,120,001,1,recog,16,INJECT,LF,lure,-,-,-,liberal,no,m,1,0.847427938354,1,187
2019_Oct_10,120,001,1,recog,17,QUALITY,HF,lure,-,-,-,liberal,no,m,1,1.15327997525,1,188
2019_Oct_10,120,001,1,recog,18,EMACIATED,LF,target,right,aqua,pleasantness,liberal,no,m,0,1.63570128172,-3,185
2019_Oct_10,120,001,1,recog,19,WRITE,HF,lure,-,-,-,conservative,no,m,1,1.60035509328,3,188
2019_Oct_10,120,001,1,recog,20,TULIPS,LF,target,left,yellow,imageability,liberal,no,z,1,0.600371223881,3,191
2019_Oct_10,120,001,1,recog,21,ESPECIAL,LF,lure,-,-,-,liberal,no,m,1,0.988582464419,1,192
2019_Oct_10,120,001,1,recog,22,SEEMED,HF,lure,-,-,-,liberal,no,m,1,0.776568023128,1,193
2019_Oct_10,120,001,1,recog,23,OPENED,HF,lure,-,-,-,liberal,no,m,1,0.835566811134,1,194
2019_Oct_10,120,001,1,recog,24,REPORT,HF,target,left,yellow,imageability,conservative,no,m,0,0.788606953611,-1,193
2019_Oct_10,120,001,1,recog,25,ADENOIDS,LF,lure,-,-,-,liberal,no,m,1,1.80038779441,1,194
2019_Oct_10,120,001,1,recog,26,GROUND,HF,lure,-,-,-,conservative,no,m,1,0.823781204472,3,197
2019_Oct_10,120,001,1,recog,27,BOXCAR,LF,target,left,yellow,imageability,conservative,no,z,1,0.565094323713,1,198
2019_Oct_10,120,001,1,recog,28,SOLEMNITY,LF,lure,-,-,-,liberal,no,m,1,0.906228759842,1,199
2019_Oct_10,120,001,1,recog,29,SCHOOL,HF,target,right,aqua,pleasantness,conservative,no,z,1,0.482703225462,1,200
2019_Oct_10,120,001,1,recog,30,RATHER,HF,target,left,yellow,imageability,liberal,no,m,0,1.63562979381,-3,197
2019_Oct_10,120,001,1,recog,31,SENSE,HF,target,right,aqua,pleasantness,liberal,no,z,1,2.2354745734,3,200
2019_Oct_10,120,001,1,recog,32,TRADE,HF,target,left,yellow,imageability,conservative,no,z,1,0.611966562722,1,201
2019_Oct_10,120,001,1,recog,33,TOWARDS,HF,target,left,yellow,imageability,conservative,no,z,1,0.518063711491,1,202
2019_Oct_10,120,001,1,recog,34,PLYWOOD,LF,lure,-,-,-,conservative,yes,m,1,0.682676903247,3,205
2019_Oct_10,120,001,1,recog,35,BUILDING,HF,target,left,yellow,imageability,conservative,no,z,1,0.9061389417,1,206
2019_Oct_10,120,001,1,recog,36,NINETIES,LF,target,left,yellow,imageability,conservative,no,z,1,0.623910542597,1,207
2019_Oct_10,120,001,1,recog,37,DEFEATING,LF,target,left,yellow,imageability,conservative,no,z,1,1.69451346796,1,208
2019_Oct_10,120,001,1,recog,38,JOURNEYED,LF,lure,-,-,-,conservative,no,m,1,0.9414341721,3,211
2019_Oct_10,120,001,1,recog,39,GNARLED,LF,target,right,aqua,pleasantness,conservative,no,z,1,0.835640132066,1,212
2019_Oct_10,120,001,1,recog,40,DUELLING,LF,target,right,aqua,pleasantness,conservative,no,z,1,0.553209367189,1,213
2019_Oct_10,120,001,1,recog,41,HOWEVER,HF,lure,-,-,-,liberal,no,m,1,1.36503119439,1,214
2019_Oct_10,120,001,1,recog,42,MOTHER,HF,target,right,aqua,pleasantness,liberal,no,z,1,0.529725405776,3,217
2019_Oct_10,120,001,1,recog,43,AVIDLY,LF,target,right,aqua,pleasantness,liberal,no,z,1,2.09448941869,3,220
2019_Oct_10,120,001,1,recog,44,IDOLATRY,LF,target,right,aqua,pleasantness,conservative,no,z,1,1.27089774883,1,221
2019_Oct_10,120,001,1,recog,45,COMES,HF,lure,-,-,-,liberal,no,m,1,0.835679725369,1,222
2019_Oct_10,120,001,1,recog,46,THING,HF,lure,-,-,-,conservative,no,m,1,0.706214022335,3,225
2019_Oct_10,120,001,1,recog,47,MENFOLK,LF,lure,-,-,-,liberal,no,m,1,0.670947753703,1,226
2019_Oct_10,120,001,1,recog,48,LEVEL,HF,lure,-,-,-,conservative,no,m,1,0.623918241296,3,229
2019_Oct_10,120,001,1,recog,49,RUINOUS,LF,target,left,yellow,imageability,liberal,no,z,1,1.15328547432,3,232
2019_Oct_10,120,001,1,recog,50,DAGGERS,LF,lure,-,-,-,conservative,no,m,1,0.800380095713,3,235
2019_Oct_10,120,001,1,recog,51,CENTRAL,HF,target,right,aqua,pleasantness,liberal,no,z,1,1.3648669555,3,238
2019_Oct_10,120,001,1,recog,52,DAPPER,LF,target,left,yellow,imageability,conservative,no,z,1,0.87087047344,1,239
2019_Oct_10,120,001,1,recog,53,DAYBREAK,LF,lure,-,-,-,liberal,no,m,1,0.776878903882,1,240
2019_Oct_10,120,001,1,recog,54,BROUGHT,HF,lure,-,-,-,liberal,no,m,1,0.729875053799,1,241
2019_Oct_10,120,001,1,recog,55,TORMENTS,LF,lure,-,-,-,conservative,no,m,1,0.565129151156,3,244
2019_Oct_10,120,001,1,recog,56,CHOICE,HF,lure,-,-,-,liberal,no,m,1,0.847335920585,1,245
2019_Oct_10,120,001,1,recog,57,MUNCH,LF,lure,-,-,-,conservative,no,m,1,0.612077277329,3,248
2019_Oct_10,120,001,1,recog,58,STRAIGHT,HF,target,left,yellow,imageability,conservative,no,z,1,0.635428894459,1,249
2019_Oct_10,120,001,1,recog,59,EDUCATION,HF,target,right,aqua,pleasantness,liberal,no,z,1,0.565025402037,3,252
2019_Oct_10,120,001,1,recog,60,ECONOMIC,HF,lure,-,-,-,liberal,no,m,1,0.706291009314,1,253
2019_Oct_10,120,001,1,recog,61,WRONG,HF,lure,-,-,-,liberal,no,m,1,0.729736477238,1,254
2019_Oct_10,120,001,1,recog,62,ARRIVED,HF,target,right,aqua,pleasantness,liberal,no,z,1,0.835611536902,3,257
2019_Oct_10,120,001,1,recog,63,TEACUP,LF,target,left,yellow,imageability,liberal,no,z,1,0.565128417947,3,260
2019_Oct_10,120,001,1,recog,64,TAWNY,LF,lure,-,-,-,liberal,no,m,1,0.635637859116,1,261
2019_Oct_10,120,001,1,recog,65,SCOFFED,LF,target,left,yellow,imageability,conservative,no,z,1,0.847121823463,1,262
2019_Oct_10,120,001,1,recog,66,DAUGHTER,HF,target,right,aqua,pleasantness,liberal,no,z,1,0.517954463302,3,265
2019_Oct_10,120,001,1,recog,67,LIARS,LF,lure,-,-,-,conservative,no,m,1,0.717866551504,3,268
2019_Oct_10,120,001,1,recog,68,ATHEIST,LF,target,right,aqua,pleasantness,conservative,no,z,1,0.847354984027,1,269
2019_Oct_10,120,001,1,recog,69,MEETING,HF,lure,-,-,-,conservative,no,m,1,0.71797946574,3,272
2019_Oct_10,120,001,1,recog,70,WALKED,HF,target,right,aqua,pleasantness,conservative,no,z,1,0.98853847186,1,273
2019_Oct_10,120,001,1,recog,71,BIOLOGIST,LF,lure,-,-,-,liberal,no,m,1,0.670905594166,1,274
2019_Oct_10,120,001,1,recog,72,DWELT,LF,lure,-,-,-,liberal,no,m,1,0.741439231245,1,275
2019_Oct_10,120,001,1,recog,73,CRICKETER,LF,lure,-,-,-,conservative,no,m,1,0.847449201425,3,278
2019_Oct_10,120,001,1,recog,74,EXCEPT,HF,lure,-,-,-,conservative,no,m,1,0.918005934596,3,281
2019_Oct_10,120,001,1,recog,75,FEELING,HF,lure,-,-,-,liberal,no,m,1,0.729791834541,1,282
2019_Oct_10,120,001,1,recog,76,APRICOT,LF,lure,-,-,-,conservative,yes,z,0,0.764844372655,-3,279
2019_Oct_10,120,001,1,recog,77,FLECKED,LF,target,left,yellow,imageability,liberal,no,z,1,1.11775341731,3,282
2019_Oct_10,120,001,1,recog,78,POSITION,HF,target,right,aqua,pleasantness,conservative,no,m,0,4.36515877281,-1,281
2019_Oct_10,120,001,1,recog,79,PICTURE,HF,lure,-,-,-,conservative,no,m,1,0.859170285666,3,284
2019_Oct_10,120,001,1,recog,80,BOWER,LF,target,right,aqua,pleasantness,liberal,no,z,1,2.0355151932,3,287
2019_Oct_10,120,001,1,recog,81,KICKER,LF,target,right,aqua,pleasantness,liberal,yes,z,1,0.694291305531,3,290
2019_Oct_10,120,001,1,recog,82,SOUND,HF,target,left,yellow,imageability,conservative,no,m,0,1.87098082144,-1,289
2019_Oct_10,120,001,1,recog,83,FREEDOM,HF,target,left,yellow,imageability,liberal,no,z,1,0.800322538781,3,292
2019_Oct_10,120,001,1,recog,84,ALDER,LF,target,right,aqua,pleasantness,liberal,no,m,0,0.812065619301,-3,289
2019_Oct_10,120,001,1,recog,85,VEGAN,LF,target,right,aqua,pleasantness,liberal,no,z,1,0.659017704806,3,292
2019_Oct_10,120,001,1,recog,86,BIJOU,LF,lure,-,-,-,conservative,no,m,1,0.98849997837,3,295
2019_Oct_10,120,001,1,recog,87,UMBILICAL,LF,target,left,yellow,imageability,conservative,no,z,1,1.01214597904,1,296
2019_Oct_10,120,001,1,recog,88,UTTERANCE,LF,lure,-,-,-,liberal,no,m,1,1.16509894293,1,297
2019_Oct_10,120,001,1,recog,89,MOUTH,HF,lure,-,-,-,liberal,no,m,1,0.741695854507,1,298
2019_Oct_10,120,001,1,recog,90,JOWLS,LF,target,right,aqua,pleasantness,conservative,no,z,1,0.694404219767,1,299
2019_Oct_10,120,001,1,recog,91,PEEKED,LF,lure,-,-,-,conservative,no,m,1,0.894513174672,3,302
2019_Oct_10,120,001,1,recog,92,LIVED,HF,target,left,yellow,imageability,liberal,no,z,1,0.729744175936,3,305
2019_Oct_10,120,001,1,recog,93,PUBLIC,HF,target,right,aqua,pleasantness,conservative,no,z,1,1.65887106294,1,306
2019_Oct_10,120,001,1,recog,94,HALLMARK,LF,target,left,yellow,imageability,liberal,no,z,1,0.717931440529,3,309
2019_Oct_10,120,001,1,recog,95,TALKING,HF,lure,-,-,-,liberal,no,m,1,2.49442650933,1,310
2019_Oct_10,120,001,2,source,0,TRYING,HF,target,left,yellow,imageability,conservative,no,3,1,3.95314022555,-,-
2019_Oct_10,120,001,2,source,1,FARAWAY,LF,target,left,yellow,imageability,conservative,no,8,0,2.7415693759,-,-
2019_Oct_10,120,001,2,source,2,OUGHT,HF,target,right,aqua,pleasantness,conservative,no,2,0,5.223724894,-,-
2019_Oct_10,120,001,2,source,3,AMALGAM,LF,target,right,aqua,pleasantness,conservative,no,7,1,1.81188781604,-,-
2019_Oct_10,120,001,2,source,4,DRYER,LF,target,left,yellow,imageability,liberal,no,8,0,1.31792652803,-,-
2019_Oct_10,120,001,2,source,5,SWAGGER,LF,target,right,aqua,pleasantness,liberal,no,9,1,0.788555262353,-,-
2019_Oct_10,120,001,2,source,6,NUCLEAR,HF,target,left,yellow,imageability,conservative,no,1,1,1.14144267733,-,-
2019_Oct_10,120,001,2,source,7,AFTERNOON,HF,target,left,yellow,imageability,liberal,no,7,0,2.34155456507,-,-
2019_Oct_10,120,001,2,source,8,PLEASE,HF,target,left,yellow,imageability,liberal,no,1,1,1.58853795861,-,-
2019_Oct_10,120,001,2,source,9,GYMKHANA,LF,target,left,yellow,imageability,liberal,no,1,1,0.835583308343,-,-
2019_Oct_10,120,001,2,source,10,AROUND,HF,target,left,yellow,imageability,liberal,no,9,0,1.90630134757,-,-
2019_Oct_10,120,001,2,source,11,DRINK,HF,target,right,aqua,pleasantness,liberal,no,9,1,0.694495504327,-,-
2019_Oct_10,120,001,2,source,12,SHUNNED,LF,target,right,aqua,pleasantness,conservative,no,9,1,1.21188576305,-,-
2019_Oct_10,120,001,2,source,13,ENZYME,LF,target,right,aqua,pleasantness,conservative,no,9,1,1.5416099957,-,-
2019_Oct_10,120,001,2,source,14,POINT,HF,target,left,yellow,imageability,conservative,no,2,1,1.28263899632,-,-
2019_Oct_10,120,001,2,source,15,KENNEL,LF,target,right,aqua,pleasantness,liberal,no,9,1,0.859228575807,-,-
2019_Oct_10,120,001,2,source,16,LAYERED,LF,target,left,yellow,imageability,conservative,no,1,1,1.61212896859,-,-
2019_Oct_10,120,001,2,source,17,POUNDS,HF,target,right,aqua,pleasantness,conservative,no,9,1,1.30598181494,-,-
2019_Oct_10,120,001,2,source,18,ALREADY,HF,target,right,aqua,pleasantness,conservative,no,8,1,1.05928877229,-,-
2019_Oct_10,120,001,2,source,19,PROBABLY,HF,target,left,yellow,imageability,liberal,no,7,0,1.57681284172,-,-
2019_Oct_10,120,001,2,source,20,OBNOXIOUS,LF,target,left,yellow,imageability,liberal,no,8,0,2.84749356059,-,-
2019_Oct_10,120,001,2,source,21,PINAFORE,LF,target,right,aqua,pleasantness,liberal,no,2,0,1.117824172,-,-
2019_Oct_10,120,001,2,source,22,HITCHING,LF,target,right,aqua,pleasantness,liberal,no,9,1,1.14152076412,-,-
2019_Oct_10,120,001,2,source,23,CRYPT,LF,target,left,yellow,imageability,conservative,no,2,1,2.07094313448,-,-
2019_Oct_10,120,001,2,source,24,SACRAMENT,LF,target,right,aqua,pleasantness,liberal,yes,3,0,1.40056728405,-,-
2019_Oct_10,120,001,2,source,25,SPACE,HF,target,right,aqua,pleasantness,conservative,no,9,1,4.1651594327,-,-
2019_Oct_10,120,001,2,source,26,OATHS,LF,target,left,yellow,imageability,conservative,no,1,1,0.917730247891,-,-
2019_Oct_10,120,001,2,source,27,ABOVE,HF,target,right,aqua,pleasantness,liberal,no,9,1,3.25920489315,-,-
2019_Oct_10,120,001,2,source,28,FOUND,HF,target,right,aqua,pleasantness,conservative,no,8,1,3.05926640941,-,-
2019_Oct_10,120,001,2,source,29,ACROSS,HF,target,left,yellow,imageability,conservative,no,2,1,0.835615202949,-,-
2019_Oct_10,120,001,2,source,30,TRIED,HF,target,left,yellow,imageability,conservative,yes,3,1,0.870725297995,-,-
2019_Oct_10,120,001,2,source,31,MIGHTILY,LF,target,right,aqua,pleasantness,conservative,no,9,1,2.01211481765,-,-
2019_Oct_10,120,001,2,source,32,RESEARCH,HF,target,left,yellow,imageability,liberal,no,1,1,2.16502525539,-,-
2019_Oct_10,120,001,2,source,33,MAVIS,LF,target,left,yellow,imageability,liberal,no,3,1,0.929757813628,-,-
2019_Oct_10,120,001,2,source,34,ELATION,LF,target,left,yellow,imageability,conservative,no,2,1,1.49423477509,-,-
2019_Oct_10,120,001,2,source,35,VULTURE,LF,target,right,aqua,pleasantness,liberal,no,9,1,1.16481115827,-,-
2019_Oct_10,120,001,2,source,36,FACILE,LF,target,right,aqua,pleasantness,conservative,no,3,0,1.20035091398,-,-
2019_Oct_10,120,001,2,source,37,HEALTH,HF,target,left,yellow,imageability,liberal,no,8,0,1.04734185958,-,-
2019_Oct_10,120,001,2,source,38,ALCHEMIST,LF,target,left,yellow,imageability,conservative,no,9,0,2.74155947757,-,-
2019_Oct_10,120,001,2,source,39,SPEAK,HF,target,right,aqua,pleasantness,conservative,no,9,1,2.34132360413,-,-
2019_Oct_10,120,001,2,source,40,REEDY,LF,target,left,yellow,imageability,liberal,no,8,0,7.07089217644,-,-
2019_Oct_10,120,001,2,source,41,BOOKS,HF,target,right,aqua,pleasantness,liberal,yes,3,0,0.835522085365,-,-
2019_Oct_10,120,001,2,source,42,FLOOR,HF,target,right,aqua,pleasantness,liberal,no,9,1,2.16509197744,-,-
2019_Oct_10,120,001,2,source,43,SUPPORT,HF,target,right,aqua,pleasantness,liberal,no,2,0,1.10619033967,-,-
2019_Oct_10,120,001,2,source,44,DEVELOPED,HF,target,right,aqua,pleasantness,liberal,no,9,1,1.15328767394,-,-
2019_Oct_10,120,001,2,source,45,MUTATIONS,LF,target,left,yellow,imageability,liberal,no,2,1,1.25893067286,-,-
2019_Oct_10,120,001,2,source,46,REFECTORY,LF,target,right,aqua,pleasantness,conservative,no,7,1,3.90638639985,-,-
2019_Oct_10,120,001,2,source,47,IMPORTANT,HF,target,left,yellow,imageability,conservative,yes,7,0,0.753030537436,-,-
2019_Oct_10,120,001,2,recog,0,GIBBERISH,LF,lure,-,-,-,liberal,no,m,1,1.28243369771,1,311
2019_Oct_10,120,001,2,recog,1,AFTERNOON,HF,target,left,yellow,imageability,liberal,yes,z,1,0.847094694717,3,314
2019_Oct_10,120,001,2,recog,2,NUCLEAR,HF,target,left,yellow,imageability,conservative,no,z,1,1.24740865495,1,315
2019_Oct_10,120,001,2,recog,3,GORGED,LF,lure,-,-,-,liberal,no,m,1,1.22386017112,1,316
2019_Oct_10,120,001,2,recog,4,BOOKS,HF,target,right,aqua,pleasantness,liberal,no,m,0,0.800343801851,-3,313
2019_Oct_10,120,001,2,recog,5,COVER,HF,lure,-,-,-,conservative,no,z,0,3.37691395129,-3,310
2019_Oct_10,120,001,2,recog,6,COUNCIL,HF,lure,-,-,-,conservative,no,m,1,1.92993121763,3,313
2019_Oct_10,120,001,2,recog,7,OPULENCE,LF,lure,-,-,-,conservative,no,m,1,1.01209428779,3,316
2019_Oct_10,120,001,2,recog,8,ELATION,LF,target,left,yellow,imageability,conservative,no,z,1,0.91789375357,1,317
2019_Oct_10,120,001,2,recog,9,SPEAK,HF,target,right,aqua,pleasantness,conservative,no,z,1,0.812043256417,1,318
2019_Oct_10,120,001,2,recog,10,WAITING,HF,lure,-,-,-,liberal,no,m,1,1.34151350535,1,319
2019_Oct_10,120,001,2,recog,11,FARAWAY,LF,target,left,yellow,imageability,conservative,no,z,1,1.00031821285,1,320
2019_Oct_10,120,001,2,recog,12,SPACE,HF,target,right,aqua,pleasantness,conservative,no,z,1,0.553191403561,1,321
2019_Oct_10,120,001,2,recog,13,PROBABLY,HF,target,left,yellow,imageability,liberal,no,z,1,0.92975084814,3,324
2019_Oct_10,120,001,2,recog,14,SWAGGER,LF,target,right,aqua,pleasantness,liberal,no,z,1,0.576628806181,3,327
2019_Oct_10,120,001,2,recog,15,SACRAMENT,LF,target,right,aqua,pleasantness,liberal,no,z,1,0.870922531302,3,330
2019_Oct_10,120,001,2,recog,16,HITCHING,LF,target,right,aqua,pleasantness,liberal,no,z,1,0.529754367545,3,333
2019_Oct_10,120,001,2,recog,17,CICADAS,LF,lure,-,-,-,liberal,no,m,1,1.10592638432,1,334
2019_Oct_10,120,001,2,recog,18,BECAME,HF,lure,-,-,-,conservative,no,m,1,0.788655712031,3,337
2019_Oct_10,120,001,2,recog,19,UNKEMPT,LF,lure,-,-,-,liberal,no,m,1,0.976812255154,1,338
2019_Oct_10,120,001,2,recog,20,ENZYME,LF,target,right,aqua,pleasantness,conservative,no,z,1,0.71774117271,1,339
2019_Oct_10,120,001,2,recog,21,WINDOW,HF,lure,-,-,-,conservative,no,m,1,0.717991930298,3,342
2019_Oct_10,120,001,2,recog,22,POUNDS,HF,target,right,aqua,pleasantness,conservative,no,z,1,0.670687097789,1,343
2019_Oct_10,120,001,2,recog,23,ABOVE,HF,target,right,aqua,pleasantness,liberal,no,z,1,0.800281479059,3,346
2019_Oct_10,120,001,2,recog,24,SABLE,LF,lure,-,-,-,conservative,no,m,1,1.5179856247,3,349
2019_Oct_10,120,001,2,recog,25,FACILE,LF,target,right,aqua,pleasantness,conservative,no,z,1,0.894463316438,1,350
2019_Oct_10,120,001,2,recog,26,DILATED,LF,lure,-,-,-,conservative,no,m,1,1.90634387371,3,353
2019_Oct_10,120,001,2,recog,27,POINT,HF,target,left,yellow,imageability,conservative,no,z,1,0.565097256551,1,354
2019_Oct_10,120,001,2,recog,28,SUPPORT,HF,target,right,aqua,pleasantness,liberal,no,z,1,0.694436114371,3,357
2019_Oct_10,120,001,2,recog,29,MIDDLE,HF,lure,-,-,-,liberal,no,z,0,0.529718806893,-1,356
2019_Oct_10,120,001,2,recog,30,MARKET,HF,lure,-,-,-,conservative,no,m,1,1.18855980825,3,359
2019_Oct_10,120,001,2,recog,31,CUCKOO,LF,lure,-,-,-,conservative,no,m,1,0.670928323656,3,362
2019_Oct_10,120,001,2,recog,32,TREES,HF,lure,-,-,-,liberal,no,m,1,0.929716753907,1,363
2019_Oct_10,120,001,2,recog,33,RESEARCH,HF,target,left,yellow,imageability,liberal,no,z,1,0.764753088094,3,366
2019_Oct_10,120,001,2,recog,34,DINER,LF,lure,-,-,-,conservative,no,m,1,0.659135018297,3,369
2019_Oct_10,120,001,2,recog,35,GLOBULAR,LF,lure,-,-,-,liberal,no,m,1,0.706022288097,1,370
2019_Oct_10,120,001,2,recog,36,SAVOURED,LF,lure,-,-,-,liberal,no,m,1,1.23565714252,1,371
2019_Oct_10,120,001,2,recog,37,HAUNCHES,LF,lure,-,-,-,conservative,no,m,1,0.671018508403,3,374
2019_Oct_10,120,001,2,recog,38,PINAFORE,LF,target,right,aqua,pleasantness,liberal,no,m,0,1.17681892736,-3,371
2019_Oct_10,120,001,2,recog,39,PLEASE,HF,target,left,yellow,imageability,liberal,yes,z,1,0.84737881333,3,374
2019_Oct_10,120,001,2,recog,40,REFECTORY,LF,target,right,aqua,pleasantness,conservative,no,m,0,1.17673204205,-1,373
2019_Oct_10,120,001,2,recog,41,ALCHEMIST,LF,target,left,yellow,imageability,conservative,no,z,1,2.00039629964,1,374
2019_Oct_10,120,001,2,recog,42,WHOLE,HF,lure,-,-,-,conservative,no,m,1,0.717972866856,3,377
2019_Oct_10,120,001,2,recog,43,OATHS,LF,target,left,yellow,imageability,conservative,no,z,1,0.859071302407,1,378
2019_Oct_10,120,001,2,recog,44,TRIED,HF,target,left,yellow,imageability,conservative,no,z,1,2.41212742885,1,379
2019_Oct_10,120,001,2,recog,45,DRYER,LF,target,left,yellow,imageability,liberal,no,m,0,1.9886436874,-3,376
2019_Oct_10,120,001,2,recog,46,REEDY,LF,target,left,yellow,imageability,liberal,no,z,1,0.90621519547,3,379
2019_Oct_10,120,001,2,recog,47,LAYERED,LF,target,left,yellow,imageability,conservative,no,z,1,0.96480155323,1,380
2019_Oct_10,120,001,2,recog,48,ALREADY,HF,target,right,aqua,pleasantness,conservative,yes,m,0,0.823849026335,-1,379
2019_Oct_10,120,001,2,recog,49,AMEND,LF,lure,-,-,-,conservative,no,m,1,3.68273849283,3,382
2019_Oct_10,120,001,2,recog,50,SALAMI,LF,lure,-,-,-,liberal,no,m,1,0.847193311371,1,383
2019_Oct_10,120,001,2,recog,51,OUGHT,HF,target,right,aqua,pleasantness,conservative,no,z,1,0.953352489649,1,384
2019_Oct_10,120,001,2,recog,52,ANYONE,HF,lure,-,-,-,conservative,yes,m,1,0.635384901901,3,387
2019_Oct_10,120,001,2,recog,53,ACROSS,HF,target,left,yellow,imageability,conservative,no,z,1,3.87098668712,1,388
2019_Oct_10,120,001,2,recog,54,GIVEN,HF,lure,-,-,-,liberal,no,m,1,2.78851603565,1,389
2019_Oct_10,120,001,2,recog,55,CAUGHT,HF,lure,-,-,-,liberal,no,m,1,0.847161050161,1,390
2019_Oct_10,120,001,2,recog,56,HOSPITAL,HF,lure,-,-,-,liberal,no,m,1,0.682712830503,1,391
2019_Oct_10,120,001,2,recog,57,CRYPT,LF,target,left,yellow,imageability,conservative,no,m,0,1.21209179488,-1,390
2019_Oct_10,120,001,2,recog,58,SLIGHTLY,HF,lure,-,-,-,liberal,no,z,0,1.83573471607,-1,389
2019_Oct_10,120,001,2,recog,59,AMONG,HF,lure,-,-,-,conservative,no,m,1,2.04733746032,3,392
2019_Oct_10,120,001,2,recog,60,CALLED,HF,lure,-,-,-,conservative,no,m,1,0.588573519265,3,395
2019_Oct_10,120,001,2,recog,61,MAVIS,LF,target,left,yellow,imageability,liberal,no,z,1,0.694344463207,3,398
2019_Oct_10,120,001,2,recog,62,SYRINGE,LF,lure,-,-,-,conservative,no,m,1,1.08273497343,3,401
2019_Oct_10,120,001,2,recog,63,PILGRIM,LF,lure,-,-,-,liberal,no,m,1,0.882694573591,1,402
2019_Oct_10,120,001,2,recog,64,LEGALITY,LF,lure,-,-,-,liberal,no,m,1,0.965096669983,1,403
2019_Oct_10,120,001,2,recog,65,HEALTH,HF,target,left,yellow,imageability,liberal,no,m,0,0.906244157239,-3,400
2019_Oct_10,120,001,2,recog,66,TRYING,HF,target,left,yellow,imageability,conservative,no,m,0,1.3412425845,-1,399
2019_Oct_10,120,001,2,recog,67,VULTURE,LF,target,right,aqua,pleasantness,liberal,no,z,1,0.83572701737,3,402
2019_Oct_10,120,001,2,recog,68,DEVELOPED,HF,target,right,aqua,pleasantness,liberal,no,z,1,0.729578470628,3,405
2019_Oct_10,120,001,2,recog,69,IMPORTANT,HF,target,left,yellow,imageability,conservative,no,m,0,0.764714228,-1,404
2019_Oct_10,120,001,2,recog,70,FLOOR,HF,target,right,aqua,pleasantness,liberal,no,z,1,0.588609813127,3,407
2019_Oct_10,120,001,2,recog,71,MUTATIONS,LF,target,left,yellow,imageability,liberal,no,z,1,0.717940605646,3,410
2019_Oct_10,120,001,2,recog,72,POLICE,HF,lure,-,-,-,liberal,no,m,1,0.859151955432,1,411
2019_Oct_10,120,001,2,recog,73,ELECTING,LF,lure,-,-,-,conservative,no,z,0,1.08269611333,-3,408
2019_Oct_10,120,001,2,recog,74,AROUND,HF,target,left,yellow,imageability,liberal,no,z,1,1.10617274265,3,411
2019_Oct_10,120,001,2,recog,75,TELEPHONE,HF,lure,-,-,-,conservative,no,m,1,1.56482120324,3,414
2019_Oct_10,120,001,2,recog,76,YONDER,LF,lure,-,-,-,conservative,no,m,1,1.94154488671,3,417
2019_Oct_10,120,001,2,recog,77,PORCHES,LF,lure,-,-,-,conservative,no,m,1,0.906311979101,3,420
2019_Oct_10,120,001,2,recog,78,WHETHER,HF,lure,-,-,-,liberal,no,m,1,0.965134063659,1,421
2019_Oct_10,120,001,2,recog,79,TRUTH,HF,lure,-,-,-,conservative,no,m,1,0.659272128441,3,424
2019_Oct_10,120,001,2,recog,80,GARDEN,HF,lure,-,-,-,liberal,no,z,0,0.870988153537,-1,423
2019_Oct_10,120,001,2,recog,81,AMALGAM,LF,target,right,aqua,pleasantness,conservative,no,z,1,1.24741452062,1,424
2019_Oct_10,120,001,2,recog,82,APPEARED,HF,lure,-,-,-,liberal,no,m,1,1.75330952358,1,425
2019_Oct_10,120,001,2,recog,83,MIGHTILY,LF,target,right,aqua,pleasantness,conservative,no,z,1,0.812161669723,1,426
2019_Oct_10,120,001,2,recog,84,CODING,LF,lure,-,-,-,conservative,no,m,1,0.788572859376,3,429
2019_Oct_10,120,001,2,recog,85,OBNOXIOUS,LF,target,left,yellow,imageability,liberal,no,z,1,0.647425665406,3,432
2019_Oct_10,120,001,2,recog,86,DRINK,HF,target,right,aqua,pleasantness,liberal,no,z,1,0.765133257129,3,435
2019_Oct_10,120,001,2,recog,87,FOUND,HF,target,right,aqua,pleasantness,conservative,no,z,1,1.51799295679,1,436
2019_Oct_10,120,001,2,recog,88,PERHAPS,HF,lure,-,-,-,liberal,no,m,1,1.28264302898,1,437
2019_Oct_10,120,001,2,recog,89,VEXED,LF,lure,-,-,-,liberal,no,m,1,0.835372144058,1,438
2019_Oct_10,120,001,2,recog,90,KENNEL,LF,target,right,aqua,pleasantness,liberal,no,z,1,0.894545435882,3,441
2019_Oct_10,120,001,2,recog,91,PUFFS,LF,lure,-,-,-,liberal,no,m,1,0.753288627117,1,442
2019_Oct_10,120,001,2,recog,92,SHUNNED,LF,target,right,aqua,pleasantness,conservative,no,z,1,1.47094768038,1,443
2019_Oct_10,120,001,2,recog,93,GYMKHANA,LF,target,left,yellow,imageability,liberal,no,z,1,0.553160975374,3,446
2019_Oct_10,120,001,2,recog,94,JASMINE,LF,lure,-,-,-,liberal,no,m,1,1.62386838306,1,447
2019_Oct_10,120,001,2,recog,95,MEANS,HF,lure,-,-,-,conservative,no,z,0,1.28269288721,-3,444
2019_Oct_10,120,001,3,source,0,AFRAID,HF,target,left,yellow,imageability,conservative,no,7,0,2.5062366785,-,-
2019_Oct_10,120,001,3,source,1,ANNALS,LF,target,left,yellow,imageability,liberal,no,1,1,2.02387696161,-,-
2019_Oct_10,120,001,3,source,2,EVOCATION,LF,target,left,yellow,imageability,liberal,no,1,1,2.82392967936,-,-
2019_Oct_10,120,001,3,source,3,MEMBERS,HF,target,left,yellow,imageability,liberal,no,9,0,2.02394148403,-,-
2019_Oct_10,120,001,3,source,4,PIZZA,LF,target,right,aqua,pleasantness,liberal,yes,7,1,0.964817683835,-,-
2019_Oct_10,120,001,3,source,5,EARLIER,HF,target,left,yellow,imageability,conservative,no,1,1,1.16504578526,-,-
2019_Oct_10,120,001,3,source,6,LAPELS,LF,target,left,yellow,imageability,liberal,no,7,0,1.37688242329,-,-
2019_Oct_10,120,001,3,source,7,WELCOMES,LF,target,left,yellow,imageability,conservative,no,1,1,0.835706854114,-,-
2019_Oct_10,120,001,3,source,8,TILTS,LF,target,right,aqua,pleasantness,conservative,no,9,1,1.47094474755,-,-
2019_Oct_10,120,001,3,source,9,RODENTS,LF,target,right,aqua,pleasantness,liberal,no,9,1,1.14141078272,-,-
2019_Oct_10,120,001,3,source,10,BUSINESS,HF,target,right,aqua,pleasantness,conservative,no,9,1,1.65918194369,-,-
2019_Oct_10,120,001,3,source,11,VOLITION,LF,target,left,yellow,imageability,conservative,no,3,1,1.81214040665,-,-
2019_Oct_10,120,001,3,source,12,HORDE,LF,target,right,aqua,pleasantness,conservative,yes,3,0,0.847129522161,-,-
2019_Oct_10,120,001,3,source,13,ARPEGGIO,LF,target,left,yellow,imageability,liberal,no,3,1,2.31804714096,-,-
2019_Oct_10,120,001,3,source,14,SLOWLY,HF,target,right,aqua,pleasantness,conservative,no,9,1,1.29439710764,-,-
2019_Oct_10,120,001,3,source,15,ROTARY,LF,target,left,yellow,imageability,conservative,no,1,1,1.16523202042,-,-
2019_Oct_10,120,001,3,source,16,MOBILIZE,LF,target,right,aqua,pleasantness,liberal,no,9,1,1.09444212669,-,-
2019_Oct_10,120,001,3,source,17,ADDED,HF,target,left,yellow,imageability,conservative,no,3,1,1.00016387228,-,-
2019_Oct_10,120,001,3,source,18,CYNIC,LF,target,right,aqua,pleasantness,conservative,no,9,1,1.05911976754,-,-
2019_Oct_10,120,001,3,source,19,BEYOND,HF,target,left,yellow,imageability,conservative,no,8,0,1.81216570237,-,-
2019_Oct_10,120,001,3,source,20,SUCCESS,HF,target,right,aqua,pleasantness,liberal,no,7,1,2.57679817754,-,-
2019_Oct_10,120,001,3,source,21,SUNBURN,LF,target,left,yellow,imageability,conservative,no,1,1,0.941553318616,-,-
2019_Oct_10,120,001,3,source,22,PSEUDONYM,LF,target,right,aqua,pleasantness,liberal,no,3,0,0.976819587247,-,-
2019_Oct_10,120,001,3,source,23,LIGHT,HF,target,left,yellow,imageability,conservative,no,3,1,1.0356808985,-,-
2019_Oct_10,120,001,3,source,24,HIMSELF,HF,target,right,aqua,pleasantness,conservative,no,9,1,0.847371481237,-,-
2019_Oct_10,120,001,3,source,25,ASKED,HF,target,left,yellow,imageability,liberal,no,3,1,1.15300722138,-,-
2019_Oct_10,120,001,3,source,26,LOOKED,HF,target,right,aqua,pleasantness,conservative,no,8,1,1.00020896466,-,-
2019_Oct_10,120,001,3,source,27,STUDENT,HF,target,right,aqua,pleasantness,conservative,yes,3,0,0.988615458838,-,-
2019_Oct_10,120,001,3,source,28,LUSCIOUS,LF,target,left,yellow,imageability,liberal,no,2,1,1.15318392483,-,-
2019_Oct_10,120,001,3,source,29,SUDDENLY,HF,target,left,yellow,imageability,liberal,no,1,1,1.30601590918,-,-
2019_Oct_10,120,001,3,source,30,DUSTER,LF,target,right,aqua,pleasantness,conservative,no,9,1,0.91793627971,-,-
2019_Oct_10,120,001,3,source,31,LONGER,HF,target,right,aqua,pleasantness,conservative,no,9,1,0.976752865199,-,-
2019_Oct_10,120,001,3,source,32,AREAS,HF,target,right,aqua,pleasantness,liberal,no,1,0,0.764760420188,-,-
2019_Oct_10,120,001,3,source,33,CARRIED,HF,target,left,yellow,imageability,liberal,no,2,1,2.75333591912,-,-
2019_Oct_10,120,001,3,source,34,EIGHT,HF,target,right,aqua,pleasantness,liberal,no,9,1,0.717964434949,-,-
2019_Oct_10,120,001,3,source,35,CUFFED,LF,target,left,yellow,imageability,conservative,no,7,0,1.23566667424,-,-
2019_Oct_10,120,001,3,source,36,BUMBLING,LF,target,right,aqua,pleasantness,liberal,no,9,1,2.31797528645,-,-
2019_Oct_10,120,001,3,source,37,DOING,HF,target,left,yellow,imageability,conservative,no,1,1,1.15329133999,-,-
2019_Oct_10,120,001,3,source,38,VARIOUS,HF,target,right,aqua,pleasantness,liberal,yes,3,0,0.764812111445,-,-
2019_Oct_10,120,001,3,source,39,PREPARED,HF,target,left,yellow,imageability,liberal,no,2,1,2.37682413314,-,-
2019_Oct_10,120,001,3,source,40,ACCORDING,HF,target,right,aqua,pleasantness,liberal,no,8,1,1.45893514544,-,-
2019_Oct_10,120,001,3,source,41,LANGUAGE,HF,target,left,yellow,imageability,liberal,no,3,1,3.22389609837,-,-
2019_Oct_10,120,001,3,source,42,PRYING,LF,target,right,aqua,pleasantness,conservative,no,9,1,1.08277310031,-,-
2019_Oct_10,120,001,3,source,43,MAYBE,HF,target,right,aqua,pleasantness,liberal,no,9,1,1.38868306074,-,-
2019_Oct_10,120,001,3,source,44,REREAD,LF,target,left,yellow,imageability,conservative,no,1,1,1.68274949097,-,-
2019_Oct_10,120,001,3,source,45,HATCHES,LF,target,right,aqua,pleasantness,conservative,no,8,1,1.11777871303,-,-
2019_Oct_10,120,001,3,source,46,LINEAGE,LF,target,left,yellow,imageability,liberal,no,1,1,1.47069325675,-,-
2019_Oct_10,120,001,3,source,47,EYEBALL,LF,target,right,aqua,pleasantness,liberal,no,9,1,1.00032701136,-,-
2019_Oct_10,120,001,3,recog,0,LAPELS,LF,target,left,yellow,imageability,liberal,no,m,0,1.55334061166,-3,441
2019_Oct_10,120,001,3,recog,1,HORDE,LF,target,right,aqua,pleasantness,conservative,no,m,0,1.28263899632,-1,440
2019_Oct_10,120,001,3,recog,2,PACIFISM,LF,lure,-,-,-,conservative,no,m,1,1.37685639435,3,443
2019_Oct_10,120,001,3,recog,3,VIOLATING,LF,lure,-,-,-,conservative,no,m,1,2.09457557079,3,446
2019_Oct_10,120,001,3,recog,4,RANGE,HF,lure,-,-,-,liberal,yes,z,0,0.823854525404,-1,445
2019_Oct_10,120,001,3,recog,5,BAOBAB,LF,lure,-,-,-,liberal,no,m,1,2.03538724817,1,446
2019_Oct_10,120,001,3,recog,6,BEYOND,HF,target,left,yellow,imageability,conservative,no,m,0,2.0356728332,-1,445
2019_Oct_10,120,001,3,recog,7,VILLAGE,HF,lure,-,-,-,conservative,no,m,1,0.823819331357,3,448
2019_Oct_10,120,001,3,recog,8,MAKES,HF,lure,-,-,-,liberal,no,m,1,0.953260471879,1,449
2019_Oct_10,120,001,3,recog,9,EIGHT,HF,target,right,aqua,pleasantness,liberal,no,z,1,0.564798473751,3,452
2019_Oct_10,120,001,3,recog,10,RETURN,HF,lure,-,-,-,conservative,no,z,0,1.34159782442,-3,449
2019_Oct_10,120,001,3,recog,11,WEEKS,HF,lure,-,-,-,conservative,no,m,1,1.08269831296,3,452
2019_Oct_10,120,001,3,recog,12,LANGUAGE,HF,target,left,yellow,imageability,liberal,no,z,1,0.553204967933,3,455
2019_Oct_10,120,001,3,recog,13,BUSINESS,HF,target,right,aqua,pleasantness,conservative,no,z,1,0.576835204606,1,456
2019_Oct_10,120,001,3,recog,14,TILTS,LF,target,right,aqua,pleasantness,conservative,no,z,1,0.541447223226,1,457
2019_Oct_10,120,001,3,recog,15,CYNIC,LF,target,right,aqua,pleasantness,conservative,no,z,1,0.494513394634,1,458
2019_Oct_10,120,001,3,recog,16,HAVING,HF,lure,-,-,-,liberal,no,m,1,0.906181467841,1,459
2019_Oct_10,120,001,3,recog,17,AFRAID,HF,target,left,yellow,imageability,conservative,no,m,0,1.54150514676,-1,458
2019_Oct_10,120,001,3,recog,18,ORIGINALS,LF,lure,-,-,-,conservative,no,m,1,1.11804303499,3,461
2019_Oct_10,120,001,3,recog,19,PSEUDONYM,LF,target,right,aqua,pleasantness,liberal,no,z,1,1.28267822302,3,464
2019_Oct_10,120,001,3,recog,20,HIMSELF,HF,target,right,aqua,pleasantness,conservative,no,z,1,0.623642187985,1,465
2019_Oct_10,120,001,3,recog,21,LUSCIOUS,LF,target,left,yellow,imageability,liberal,no,z,1,0.694450045349,3,468
2019_Oct_10,120,001,3,recog,22,RODENTS,LF,target,right,aqua,pleasantness,liberal,no,z,1,0.69423778125,3,471
2019_Oct_10,120,001,3,recog,23,HEMMED,LF,lure,-,-,-,liberal,no,m,1,0.847264432676,1,472
2019_Oct_10,120,001,3,recog,24,TIDILY,LF,lure,-,-,-,conservative,no,m,1,0.882778526058,3,475
2019_Oct_10,120,001,3,recog,25,ASKED,HF,target,left,yellow,imageability,liberal,no,z,1,0.953239942018,3,478
2019_Oct_10,120,001,3,recog,26,VARIOUS,HF,target,right,aqua,pleasantness,liberal,no,z,1,0.612091941516,3,481
2019_Oct_10,120,001,3,recog,27,SUCCESS,HF,target,right,aqua,pleasantness,liberal,no,z,1,0.62378259757,3,484
2019_Oct_10,120,001,3,recog,28,FRONT,HF,lure,-,-,-,conservative,no,m,1,0.553267290726,3,487
2019_Oct_10,120,001,3,recog,29,MEMBERS,HF,target,left,yellow,imageability,liberal,no,z,1,0.953196682668,3,490
2019_Oct_10,120,001,3,recog,30,HARDLY,HF,lure,-,-,-,conservative,no,z,0,0.812156903862,-3,487
2019_Oct_10,120,001,3,recog,31,CUSTODIAN,LF,lure,-,-,-,conservative,no,z,0,1.10613938163,-3,484
2019_Oct_10,120,001,3,recog,32,LOCAL,HF,lure,-,-,-,conservative,no,m,1,1.3415567647,3,487
2019_Oct_10,120,001,3,recog,33,BUMBLING,LF,target,right,aqua,pleasantness,liberal,no,z,1,0.706163064287,3,490
2019_Oct_10,120,001,3,recog,34,BRACES,LF,lure,-,-,-,liberal,no,m,1,0.823863323916,1,491
2019_Oct_10,120,001,3,recog,35,DUSTER,LF,target,right,aqua,pleasantness,conservative,no,z,1,0.72966828877,1,492
2019_Oct_10,120,001,3,recog,36,PUTTS,LF,lure,-,-,-,conservative,no,m,1,0.706212555916,3,495
2019_Oct_10,120,001,3,recog,37,VOLITION,LF,target,left,yellow,imageability,conservative,no,z,1,0.823861124289,1,496
2019_Oct_10,120,001,3,recog,38,SLEEP,HF,lure,-,-,-,liberal,no,m,1,0.753261131767,1,497
2019_Oct_10,120,001,3,recog,39,BASIC,HF,lure,-,-,-,conservative,no,z,0,1.34152596991,-3,494
2019_Oct_10,120,001,3,recog,40,REDDENED,LF,lure,-,-,-,liberal,no,m,1,1.97668064408,1,495
2019_Oct_10,120,001,3,recog,41,SLUGS,LF,lure,-,-,-,liberal,no,m,1,0.788548296865,1,496
2019_Oct_10,120,001,3,recog,42,DOING,HF,target,left,yellow,imageability,conservative,no,m,0,3.12985137114,-1,495
2019_Oct_10,120,001,3,recog,43,PADDLE,LF,lure,-,-,-,conservative,no,m,1,0.976767529385,3,498
2019_Oct_10,120,001,3,recog,44,CERTAIN,HF,lure,-,-,-,conservative,no,z,0,0.800398059341,-3,495
2019_Oct_10,120,001,3,recog,45,LONGER,HF,target,right,aqua,pleasantness,conservative,no,z,1,1.01210455272,1,496
2019_Oct_10,120,001,3,recog,46,SLOWLY,HF,target,right,aqua,pleasantness,conservative,no,z,1,0.870933896047,1,497
2019_Oct_10,120,001,3,recog,47,PRYING,LF,target,right,aqua,pleasantness,conservative,no,z,1,0.776854707973,1,498
2019_Oct_10,120,001,3,recog,48,MYSELF,HF,lure,-,-,-,liberal,no,m,1,0.800092677659,1,499
2019_Oct_10,120,001,3,recog,49,PAPER,HF,lure,-,-,-,liberal,no,m,1,1.29446272987,1,500
2019_Oct_10,120,001,3,recog,50,CARRIED,HF,target,left,yellow,imageability,liberal,no,z,1,1.31798078552,3,503
2019_Oct_10,120,001,3,recog,51,AREAS,HF,target,right,aqua,pleasantness,liberal,no,z,1,0.670903761144,3,506
2019_Oct_10,120,001,3,recog,52,NOVAS,LF,lure,-,-,-,liberal,no,m,1,0.788506870537,1,507
2019_Oct_10,120,001,3,recog,53,AVUNCULAR,LF,lure,-,-,-,conservative,no,m,1,1.09443626101,3,510
2019_Oct_10,120,001,3,recog,54,CUFFED,LF,target,left,yellow,imageability,conservative,no,z,1,0.894371665272,1,511
2019_Oct_10,120,001,3,recog,55,ARPEGGIO,LF,target,left,yellow,imageability,liberal,no,m,0,0.753439301632,-3,508
2019_Oct_10,120,001,3,recog,56,LOOKED,HF,target,right,aqua,pleasantness,conservative,no,m,0,0.859164419991,-1,507
2019_Oct_10,120,001,3,recog,57,FUNNILY,LF,lure,-,-,-,conservative,no,m,1,0.80034526827,3,510
2019_Oct_10,120,001,3,recog,58,LINEAGE,LF,target,left,yellow,imageability,liberal,no,z,1,1.09423609487,3,513
2019_Oct_10,120,001,3,recog,59,ANNALS,LF,target,left,yellow,imageability,liberal,no,z,1,0.670937855377,3,516
2019_Oct_10,120,001,3,recog,60,ACCORDING,HF,target,right,aqua,pleasantness,liberal,no,z,1,0.823814932101,3,519
2019_Oct_10,120,001,3,recog,61,DIFFERENT,HF,lure,-,-,-,liberal,no,m,1,1.0238916258,1,520
2019_Oct_10,120,001,3,recog,62,BLOOD,HF,lure,-,-,-,liberal,no,m,1,0.953264871135,1,521
2019_Oct_10,120,001,3,recog,63,SPOKE,HF,lure,-,-,-,conservative,no,m,1,1.50622384734,3,524
2019_Oct_10,120,001,3,recog,64,ADDED,HF,target,left,yellow,imageability,conservative,no,z,1,0.906200164679,1,525
2019_Oct_10,120,001,3,recog,65,SOCIAL,HF,lure,-,-,-,liberal,no,z,0,0.753332253072,-1,524
2019_Oct_10,120,001,3,recog,66,WELCOMES,LF,target,left,yellow,imageability,conservative,no,z,1,0.623821457664,1,525
2019_Oct_10,120,001,3,recog,67,FUSELAGE,LF,lure,-,-,-,conservative,no,m,1,0.90619869826,3,528
2019_Oct_10,120,001,3,recog,68,EARLIER,HF,target,left,yellow,imageability,conservative,no,z,1,1.44739663032,1,529
2019_Oct_10,120,001,3,recog,69,LOITERING,LF,lure,-,-,-,liberal,no,m,1,0.812118776978,1,530
2019_Oct_10,120,001,3,recog,70,UNLESS,HF,lure,-,-,-,conservative,yes,m,1,0.765031341032,3,533
2019_Oct_10,120,001,3,recog,71,SUDDENLY,HF,target,left,yellow,imageability,liberal,no,z,1,1.67088616412,3,536
2019_Oct_10,120,001,3,recog,72,MOBILIZE,LF,target,right,aqua,pleasantness,liberal,no,z,1,0.788506870537,3,539
2019_Oct_10,120,001,3,recog,73,VEILING,LF,lure,-,-,-,liberal,no,m,1,0.894544336068,1,540
2019_Oct_10,120,001,3,recog,74,BELIEVE,HF,lure,-,-,-,conservative,no,m,1,1.49447673417,3,543
2019_Oct_10,120,001,3,recog,75,LUMBER,LF,lure,-,-,-,liberal,no,m,1,0.77673336183,1,544
2019_Oct_10,120,001,3,recog,76,INMATE,LF,lure,-,-,-,conservative,no,m,1,0.823855258614,3,547
2019_Oct_10,120,001,3,recog,77,MUGGING,LF,lure,-,-,-,conservative,no,m,1,0.717990830484,3,550
2019_Oct_10,120,001,3,recog,78,STUDENT,HF,target,right,aqua,pleasantness,conservative,no,z,1,0.600131097827,1,551
2019_Oct_10,120,001,3,recog,79,PREPARED,HF,target,left,yellow,imageability,liberal,no,z,1,0.847342152863,3,554
2019_Oct_10,120,001,3,recog,80,WONDROUS,LF,lure,-,-,-,liberal,no,m,1,0.682730427528,1,555
2019_Oct_10,120,001,3,recog,81,HATCHES,LF,target,right,aqua,pleasantness,conservative,no,z,1,0.788537665329,1,556
2019_Oct_10,120,001,3,recog,82,LIGHT,HF,target,left,yellow,imageability,conservative,no,z,1,0.682740692458,1,557
2019_Oct_10,120,001,3,recog,83,SUNBURN,LF,target,left,yellow,imageability,conservative,no,z,1,0.576806976046,1,558
2019_Oct_10,120,001,3,recog,84,EVOCATION,LF,target,left,yellow,imageability,liberal,no,z,1,0.953297132345,3,561
2019_Oct_10,120,001,3,recog,85,PIPELINES,LF,lure,-,-,-,liberal,no,z,0,0.776651242386,-1,560
2019_Oct_10,120,001,3,recog,86,EYEBALL,LF,target,right,aqua,pleasantness,liberal,no,z,1,0.576799277349,3,563
2019_Oct_10,120,001,3,recog,87,ROTARY,LF,target,left,yellow,imageability,conservative,no,z,1,0.706133735914,1,564
2019_Oct_10,120,001,3,recog,88,PIZZA,LF,target,right,aqua,pleasantness,liberal,yes,z,1,0.823766540286,3,567
2019_Oct_10,120,001,3,recog,89,REREAD,LF,target,left,yellow,imageability,conservative,no,z,1,1.09444102687,1,568
2019_Oct_10,120,001,3,recog,90,SQUADRONS,LF,lure,-,-,-,liberal,no,m,1,0.823873222243,1,569
2019_Oct_10,120,001,3,recog,91,HAPPEN,HF,lure,-,-,-,conservative,no,m,1,1.09442892892,3,572
2019_Oct_10,120,001,3,recog,92,MAYBE,HF,target,right,aqua,pleasantness,liberal,no,z,1,0.612073244678,3,575
2019_Oct_10,120,001,3,recog,93,MONEY,HF,lure,-,-,-,liberal,no,m,1,0.706180294706,1,576
2019_Oct_10,120,001,3,recog,94,GENERAL,HF,lure,-,-,-,liberal,no,m,1,0.706192759265,1,577
2019_Oct_10,120,001,3,recog,95,TIMES,HF,lure,-,-,-,liberal,yes,z,0,0.717881948899,-1,576
2019_Oct_10,120,001,4,source,0,BLIGHTED,LF,target,left,yellow,imageability,conservative,no,7,0,2.4356773791,-,-
2019_Oct_10,120,001,4,source,1,ROLLERS,LF,target,left,yellow,imageability,liberal,yes,7,0,0.647334380846,-,-
2019_Oct_10,120,001,4,source,2,ITSELF,HF,target,right,aqua,pleasantness,conservative,no,9,1,0.976788059246,-,-
2019_Oct_10,120,001,4,source,3,HOTEL,HF,target,right,aqua,pleasantness,conservative,no,9,1,0.600377089555,-,-
2019_Oct_10,120,001,4,source,4,ACTION,HF,target,left,yellow,imageability,liberal,no,8,0,1.85916808604,-,-
2019_Oct_10,120,001,4,source,5,ABETTED,LF,target,left,yellow,imageability,conservative,no,2,1,2.00014480884,-,-
2019_Oct_10,120,001,4,source,6,GULLIBLE,LF,target,right,aqua,pleasantness,liberal,no,9,1,1.04712153018,-,-
2019_Oct_10,120,001,4,source,7,YORKER,LF,target,right,aqua,pleasantness,liberal,no,9,1,0.988509510091,-,-
2019_Oct_10,120,001,4,source,8,GOADED,LF,target,left,yellow,imageability,conservative,no,3,1,1.42361425271,-,-
2019_Oct_10,120,001,4,source,9,CHAIR,HF,target,right,aqua,pleasantness,conservative,no,9,1,0.894616557187,-,-
2019_Oct_10,120,001,4,source,10,REQUIRED,HF,target,left,yellow,imageability,conservative,no,1,1,1.89446478286,-,-
2019_Oct_10,120,001,4,source,11,DREADING,LF,target,right,aqua,pleasantness,conservative,no,8,1,1.60034262872,-,-
2019_Oct_10,120,001,4,source,12,OUTSIDE,HF,target,right,aqua,pleasantness,liberal,no,9,1,0.871063674098,-,-
2019_Oct_10,120,001,4,source,13,FORCE,HF,target,left,yellow,imageability,liberal,no,1,1,1.56507416046,-,-
2019_Oct_10,120,001,4,source,14,MAUSOLEUM,LF,target,right,aqua,pleasantness,liberal,no,8,1,1.91795167711,-,-
2019_Oct_10,120,001,4,source,15,THANK,HF,target,left,yellow,imageability,liberal,no,2,1,1.17683615778,-,-
2019_Oct_10,120,001,4,source,16,RADIAL,LF,target,right,aqua,pleasantness,liberal,no,3,0,1.56506462874,-,-
2019_Oct_10,120,001,4,source,17,HUNDRED,HF,target,left,yellow,imageability,liberal,no,1,1,0.906111812955,-,-
2019_Oct_10,120,001,4,source,18,EATERS,LF,target,left,yellow,imageability,conservative,no,9,0,1.61212383612,-,-
2019_Oct_10,120,001,4,source,19,CAIRN,LF,target,right,aqua,pleasantness,conservative,yes,8,1,0.905976535835,-,-
2019_Oct_10,120,001,4,source,20,PITCHER,LF,target,left,yellow,imageability,liberal,no,2,1,1.17688161676,-,-
2019_Oct_10,120,001,4,source,21,WHATEVER,HF,target,right,aqua,pleasantness,liberal,no,9,1,1.22390343047,-,-
2019_Oct_10,120,001,4,source,22,LARGE,HF,target,right,aqua,pleasantness,conservative,no,9,1,1.11796714782,-,-
2019_Oct_10,120,001,4,source,23,SIMILAR,HF,target,left,yellow,imageability,conservative,no,1,1,0.941517757963,-,-
2019_Oct_10,120,001,4,source,24,MATERIAL,HF,target,left,yellow,imageability,conservative,no,1,1,1.07089180983,-,-
2019_Oct_10,120,001,4,source,25,FEVERS,LF,target,right,aqua,pleasantness,conservative,no,9,1,0.835413203779,-,-
2019_Oct_10,120,001,4,source,26,DECIDED,HF,target,right,aqua,pleasantness,conservative,no,2,0,1.70618359415,-,-
2019_Oct_10,120,001,4,source,27,INDEED,HF,target,right,aqua,pleasantness,liberal,no,3,0,1.14150939938,-,-
2019_Oct_10,120,001,4,source,28,ALLOWED,HF,target,left,yellow,imageability,conservative,no,8,0,1.02386999612,-,-
2019_Oct_10,120,001,4,source,29,GEOLOGIST,LF,target,left,yellow,imageability,conservative,yes,7,0,0.859008979615,-,-
2019_Oct_10,120,001,4,source,30,JEOPARDY,LF,target,left,yellow,imageability,liberal,no,1,1,0.953266704159,-,-
2019_Oct_10,120,001,4,source,31,GNOMES,LF,target,right,aqua,pleasantness,liberal,no,7,1,3.14155669138,-,-
2019_Oct_10,120,001,4,source,32,HIKING,LF,target,left,yellow,imageability,liberal,no,1,1,1.47099717201,-,-
2019_Oct_10,120,001,4,source,33,BRUISING,LF,target,right,aqua,pleasantness,conservative,no,9,1,1.15330673739,-,-
2019_Oct_10,120,001,4,source,34,IDEAS,HF,target,right,aqua,pleasantness,liberal,no,3,0,1.43565428301,-,-
2019_Oct_10,120,001,4,source,35,NECESSARY,HF,target,left,yellow,imageability,liberal,no,7,0,1.05907540838,-,-
2019_Oct_10,120,001,4,source,36,ELUDE,LF,target,right,aqua,pleasantness,conservative,no,2,0,0.835673126485,-,-
2019_Oct_10,120,001,4,source,37,EFFECT,HF,target,right,aqua,pleasantness,conservative,yes,7,1,0.753034936692,-,-
2019_Oct_10,120,001,4,source,38,CLASS,HF,target,right,aqua,pleasantness,liberal,no,9,1,2.01221783356,-,-
2019_Oct_10,120,001,4,source,39,CLEAR,HF,target,left,yellow,imageability,liberal,no,8,0,1.51799552302,-,-
2019_Oct_10,120,001,4,source,40,STAFF,HF,target,left,yellow,imageability,conservative,no,9,0,1.10623066619,-,-
2019_Oct_10,120,001,4,source,41,DIOCESE,LF,target,right,aqua,pleasantness,conservative,no,2,0,2.08283578971,-,-
2019_Oct_10,120,001,4,source,42,CESSATION,LF,target,left,yellow,imageability,conservative,no,3,1,1.84742500552,-,-
2019_Oct_10,120,001,4,source,43,SUSPEND,LF,target,right,aqua,pleasantness,liberal,no,8,1,1.09419613496,-,-
2019_Oct_10,120,001,4,source,44,FINAL,HF,target,right,aqua,pleasantness,liberal,no,9,1,0.894168566289,-,-
2019_Oct_10,120,001,4,source,45,FALCON,LF,target,left,yellow,imageability,liberal,no,1,1,0.800333903526,-,-
2019_Oct_10,120,001,4,source,46,WITHIN,HF,target,left,yellow,imageability,conservative,no,2,1,1.60024987774,-,-
2019_Oct_10,120,001,4,source,47,ABHORRENT,LF,target,left,yellow,imageability,liberal,no,3,1,0.812164969165,-,-
2019_Oct_10,120,001,4,recog,0,UNDER,HF,lure,-,-,-,conservative,no,m,1,1.01209025514,3,579
2019_Oct_10,120,001,4,recog,1,BRING,HF,lure,-,-,-,conservative,no,m,1,0.647337313682,3,582
2019_Oct_10,120,001,4,recog,2,EATERS,LF,target,left,yellow,imageability,conservative,no,z,1,0.682692667247,1,583
2019_Oct_10,120,001,4,recog,3,ELUDE,LF,target,right,aqua,pleasantness,conservative,no,z,1,0.765038673126,1,584
2019_Oct_10,120,001,4,recog,4,ALLOWED,HF,target,left,yellow,imageability,conservative,no,z,1,0.635369504505,1,585
2019_Oct_10,120,001,4,recog,5,GIRLS,HF,lure,-,-,-,conservative,no,m,1,0.576834104791,3,588
2019_Oct_10,120,001,4,recog,6,FINAL,HF,target,right,aqua,pleasantness,liberal,no,z,1,0.647388271731,3,591
2019_Oct_10,120,001,4,recog,7,BLIGHTED,LF,target,left,yellow,imageability,conservative,no,z,1,1.18853451253,1,592
2019_Oct_10,120,001,4,recog,8,EFFECT,HF,target,right,aqua,pleasantness,conservative,no,z,1,1.0356174759,1,593
2019_Oct_10,120,001,4,recog,9,OUTSIDE,HF,target,right,aqua,pleasantness,liberal,no,z,1,0.647154011352,3,596
2019_Oct_10,120,001,4,recog,10,CHAIR,HF,target,right,aqua,pleasantness,conservative,no,z,1,0.647169408747,1,597
2019_Oct_10,120,001,4,recog,11,ITSELF,HF,target,right,aqua,pleasantness,conservative,no,z,1,0.600302668809,1,598
2019_Oct_10,120,001,4,recog,12,FALCON,LF,target,left,yellow,imageability,liberal,yes,z,1,0.729824828961,3,601
2019_Oct_10,120,001,4,recog,13,CLOSE,HF,lure,-,-,-,conservative,no,m,1,2.64747589025,3,604
2019_Oct_10,120,001,4,recog,14,CESSATION,LF,target,left,yellow,imageability,conservative,no,z,1,1.14155192552,1,605
2019_Oct_10,120,001,4,recog,15,NAGGED,LF,lure,-,-,-,conservative,no,m,1,0.741510719154,3,608
2019_Oct_10,120,001,4,recog,16,WITHIN,HF,target,left,yellow,imageability,conservative,no,m,0,1.23580965006,-1,607
2019_Oct_10,120,001,4,recog,17,DREADING,LF,target,right,aqua,pleasantness,conservative,no,z,1,1.77681328165,1,608
2019_Oct_10,120,001,4,recog,18,CLASS,HF,target,right,aqua,pleasantness,liberal,no,z,1,0.694480106931,3,611
2019_Oct_10,120,001,4,recog,19,CAVERN,LF,lure,-,-,-,liberal,no,m,1,0.894571098208,1,612
2019_Oct_10,120,001,4,recog,20,FORCE,HF,target,left,yellow,imageability,liberal,no,z,1,0.718101178488,3,615
2019_Oct_10,120,001,4,recog,21,HAIRDO,LF,lure,-,-,-,liberal,no,m,1,0.635567471022,1,616
2019_Oct_10,120,001,4,recog,22,WHATEVER,HF,target,right,aqua,pleasantness,liberal,no,z,1,0.529773064382,3,619
2019_Oct_10,120,001,4,recog,23,GOADED,LF,target,left,yellow,imageability,conservative,no,z,1,0.776710998946,1,620
2019_Oct_10,120,001,4,recog,24,CAIRN,LF,target,right,aqua,pleasantness,conservative,no,m,0,0.788577991842,-1,619
2019_Oct_10,120,001,4,recog,25,HIKING,LF,target,left,yellow,imageability,liberal,no,z,1,0.623843820548,3,622
2019_Oct_10,120,001,4,recog,26,HOURS,HF,lure,-,-,-,conservative,no,m,1,0.976819953851,3,625
2019_Oct_10,120,001,4,recog,27,ROLLERS,LF,target,left,yellow,imageability,liberal,no,z,1,0.612081309981,3,628
2019_Oct_10,120,001,4,recog,28,PEGGED,LF,lure,-,-,-,conservative,no,m,1,0.84740557547,3,631
2019_Oct_10,120,001,4,recog,29,GNOMES,LF,target,right,aqua,pleasantness,liberal,no,z,1,0.87070366832,3,634
2019_Oct_10,120,001,4,recog,30,BREAK,HF,lure,-,-,-,conservative,no,z,0,0.659162880252,-3,631
2019_Oct_10,120,001,4,recog,31,PRACTICE,HF,lure,-,-,-,liberal,no,z,0,0.623857018317,-1,630
2019_Oct_10,120,001,4,recog,32,GEOLOGIST,LF,target,left,yellow,imageability,conservative,no,z,1,0.800118706589,1,631
2019_Oct_10,120,001,4,recog,33,CLEAR,HF,target,left,yellow,imageability,liberal,no,z,1,1.1885792383,3,634
2019_Oct_10,120,001,4,recog,34,ENTIRELY,HF,lure,-,-,-,liberal,no,z,0,0.764992847543,-1,633
2019_Oct_10,120,001,4,recog,35,ABHORRENT,LF,target,left,yellow,imageability,liberal,no,m,0,0.976591192542,-3,630
2019_Oct_10,120,001,4,recog,36,CYANIDE,LF,lure,-,-,-,liberal,no,z,0,0.670916225702,-1,629
2019_Oct_10,120,001,4,recog,37,BRUISING,LF,target,right,aqua,pleasantness,conservative,no,m,0,0.906388599475,-1,628
2019_Oct_10,120,001,4,recog,38,BILATERAL,LF,lure,-,-,-,liberal,no,z,0,4.16503845316,-1,627
2019_Oct_10,120,001,4,recog,39,THANK,HF,target,left,yellow,imageability,liberal,no,z,1,0.741445096919,3,630
2019_Oct_10,120,001,4,recog,40,PASSED,HF,lure,-,-,-,liberal,no,z,0,1.52971807368,-1,629
2019_Oct_10,120,001,4,recog,41,EXACTLY,HF,lure,-,-,-,conservative,no,m,1,0.870799718741,3,632
2019_Oct_10,120,001,4,recog,42,SIMILAR,HF,target,left,yellow,imageability,conservative,no,z,1,0.812086149162,1,633
2019_Oct_10,120,001,4,recog,43,BETTER,HF,lure,-,-,-,conservative,no,m,1,0.694462876512,3,636
2019_Oct_10,120,001,4,recog,44,TOTAL,HF,lure,-,-,-,liberal,no,m,1,0.882750664104,1,637
2019_Oct_10,120,001,4,recog,45,JOBLESS,LF,lure,-,-,-,conservative,no,m,1,0.694597420424,3,640
2019_Oct_10,120,001,4,recog,46,HUNDRED,HF,target,left,yellow,imageability,liberal,no,z,1,0.553293319656,3,643
2019_Oct_10,120,001,4,recog,47,COHESIVE,LF,lure,-,-,-,conservative,no,m,1,0.988552769441,3,646
2019_Oct_10,120,001,4,recog,48,WHITE,HF,lure,-,-,-,liberal,yes,z,0,0.741513651991,-1,645
2019_Oct_10,120,001,4,recog,49,OLDER,HF,lure,-,-,-,liberal,no,z,0,1.56498030966,-1,644
2019_Oct_10,120,001,4,recog,50,STAFF,HF,target,left,yellow,imageability,conservative,no,z,1,0.835594673087,1,645
2019_Oct_10,120,001,4,recog,51,REQUIRED,HF,target,left,yellow,imageability,conservative,no,z,1,2.60032723132,1,646
2019_Oct_10,120,001,4,recog,52,TWENTY,HF,lure,-,-,-,liberal,no,m,1,0.835663228159,1,647
2019_Oct_10,120,001,4,recog,53,BEGAN,HF,lure,-,-,-,conservative,no,z,0,0.859155621479,-3,644
2019_Oct_10,120,001,4,recog,54,DISARMED,LF,lure,-,-,-,liberal,no,m,1,2.60034409514,1,645
2019_Oct_10,120,001,4,recog,55,FEVERS,LF,target,right,aqua,pleasantness,conservative,no,z,1,0.753217872418,1,646
2019_Oct_10,120,001,4,recog,56,YORKER,LF,target,right,aqua,pleasantness,liberal,no,z,1,0.623930705853,3,649
2019_Oct_10,120,001,4,recog,57,LARGE,HF,target,right,aqua,pleasantness,conservative,no,z,1,0.612079843562,1,650
2019_Oct_10,120,001,4,recog,58,TOADS,LF,lure,-,-,-,conservative,no,m,1,0.670900828306,3,653
2019_Oct_10,120,001,4,recog,59,DIOCESE,LF,target,right,aqua,pleasantness,conservative,no,z,1,0.905945007834,1,654
2019_Oct_10,120,001,4,recog,60,MINISTER,HF,lure,-,-,-,liberal,no,z,0,0.812088348791,-1,653
2019_Oct_10,120,001,4,recog,61,BEAUTIFUL,HF,lure,-,-,-,liberal,no,m,1,1.14153139566,1,654
2019_Oct_10,120,001,4,recog,62,RALLIED,LF,lure,-,-,-,liberal,yes,z,0,0.600319166018,-1,653
2019_Oct_10,120,001,4,recog,63,NECESSARY,HF,target,left,yellow,imageability,liberal,no,z,1,1.04741774674,3,656
2019_Oct_10,120,001,4,recog,64,BABBLED,LF,lure,-,-,-,conservative,no,z,0,1.25918179705,-3,653
2019_Oct_10,120,001,4,recog,65,DECIDED,HF,target,right,aqua,pleasantness,conservative,no,m,0,2.34157326191,-1,652
2019_Oct_10,120,001,4,recog,66,NARRATOR,LF,lure,-,-,-,liberal,no,z,0,1.35336656727,-1,651
2019_Oct_10,120,001,4,recog,67,INDEED,HF,target,right,aqua,pleasantness,liberal,no,z,1,1.04755998935,3,654
2019_Oct_10,120,001,4,recog,68,ACTION,HF,target,left,yellow,imageability,liberal,no,z,1,0.612112837983,3,657
2019_Oct_10,120,001,4,recog,69,SUSPEND,LF,target,right,aqua,pleasantness,liberal,no,z,1,0.765043805591,3,660
2019_Oct_10,120,001,4,recog,70,RADIAL,LF,target,right,aqua,pleasantness,liberal,no,z,1,0.506149793198,3,663
2019_Oct_10,120,001,4,recog,71,TROUBLE,HF,lure,-,-,-,conservative,no,m,1,0.670628441043,3,666
2019_Oct_10,120,001,4,recog,72,MOCCASINS,LF,lure,-,-,-,conservative,no,m,1,1.51775613018,3,669
2019_Oct_10,120,001,4,recog,73,HOEING,LF,lure,-,-,-,conservative,no,m,1,0.600443811603,3,672
2019_Oct_10,120,001,4,recog,74,IDEAS,HF,target,right,aqua,pleasantness,liberal,no,z,1,0.623916774876,3,675
2019_Oct_10,120,001,4,recog,75,JEOPARDY,LF,target,left,yellow,imageability,liberal,no,z,1,0.706133002705,3,678
2019_Oct_10,120,001,4,recog,76,ABETTED,LF,target,left,yellow,imageability,conservative,no,z,1,1.08277053408,1,679
2019_Oct_10,120,001,4,recog,77,FIELD,HF,lure,-,-,-,conservative,no,z,0,0.917996402874,-3,676
2019_Oct_10,120,001,4,recog,78,GULLIBLE,LF,target,right,aqua,pleasantness,liberal,no,z,1,0.682441543054,3,679
2019_Oct_10,120,001,4,recog,79,ACORNS,LF,lure,-,-,-,liberal,no,m,1,1.40032129233,1,680
2019_Oct_10,120,001,4,recog,80,LOWED,LF,lure,-,-,-,conservative,no,m,1,0.764811011631,3,683
2019_Oct_10,120,001,4,recog,81,UNPACK,LF,lure,-,-,-,conservative,no,m,1,0.965017849981,3,686
2019_Oct_10,120,001,4,recog,82,NIGHT,HF,lure,-,-,-,liberal,no,z,0,0.94158044736,-1,685
2019_Oct_10,120,001,4,recog,83,INCLUDING,HF,lure,-,-,-,liberal,no,z,0,1.11817171322,-1,684
2019_Oct_10,120,001,4,recog,84,MATERIAL,HF,target,left,yellow,imageability,conservative,no,z,1,0.894453784716,1,685
2019_Oct_10,120,001,4,recog,85,MAUSOLEUM,LF,target,right,aqua,pleasantness,liberal,yes,z,1,0.753256732511,3,688
2019_Oct_10,120,001,4,recog,86,PAINTWORK,LF,lure,-,-,-,liberal,no,m,1,1.58857571889,1,689
2019_Oct_10,120,001,4,recog,87,HOTEL,HF,target,right,aqua,pleasantness,conservative,no,z,1,0.870904201069,1,690
2019_Oct_10,120,001,4,recog,88,SUMMER,HF,lure,-,-,-,liberal,no,m,1,0.788551229703,1,691
2019_Oct_10,120,001,4,recog,89,WAKED,LF,lure,-,-,-,liberal,no,m,1,0.976856247714,1,692
2019_Oct_10,120,001,4,recog,90,UNTIL,HF,lure,-,-,-,conservative,no,m,1,0.682618613105,3,695
2019_Oct_10,120,001,4,recog,91,CEMENTED,LF,lure,-,-,-,conservative,no,m,1,1.63562246172,3,698
2019_Oct_10,120,001,4,recog,92,FAKING,LF,lure,-,-,-,conservative,no,m,1,1.31799691612,3,701
2019_Oct_10,120,001,4,recog,93,FLUFF,LF,lure,-,-,-,liberal,no,m,1,0.84738907826,1,702
2019_Oct_10,120,001,4,recog,94,PITCHER,LF,target,left,yellow,imageability,liberal,no,z,1,0.706214755544,3,705
2019_Oct_10,120,001,4,recog,95,ANAEMIC,LF,lure,-,-,-,liberal,no,z,0,1.64744729508,-1,704
