date,subj,session,cycle,task,trial,item,wf,type,source,colour,encoding,bias,null,response,corr,rt,points,total
2019_Oct_11,121,001,0,source,0,DAILIES,LF,target,left,aqua,pleasantness,conservative,no,2,1,3.92975660473,-,-
2019_Oct_11,121,001,0,source,1,PERHAPS,HF,target,left,aqua,pleasantness,liberal,no,8,0,2.07094470742,-,-
2019_Oct_11,121,001,0,source,2,GIPSY,LF,target,left,aqua,pleasantness,conservative,no,1,1,2.6826927307,-,-
2019_Oct_11,121,001,0,source,3,THOUSAND,HF,target,left,aqua,pleasantness,conservative,no,3,1,3.69445116551,-,-
2019_Oct_11,121,001,0,source,4,WRONG,HF,target,left,aqua,pleasantness,liberal,no,8,0,2.51800865477,-,-
2019_Oct_11,121,001,0,source,5,CAPITAL,HF,target,right,yellow,imageability,conservative,no,2,0,1.88273056416,-,-
2019_Oct_11,121,001,0,source,6,PYJAMA,LF,target,left,aqua,pleasantness,conservative,no,1,1,1.69450725581,-,-
2019_Oct_11,121,001,0,source,7,INITIATES,LF,target,right,yellow,imageability,conservative,no,9,1,1.38860208289,-,-
2019_Oct_11,121,001,0,source,8,ENERGY,HF,target,right,yellow,imageability,liberal,no,1,0,1.90616311501,-,-
2019_Oct_11,121,001,0,source,9,DERANGED,LF,target,right,yellow,imageability,liberal,yes,8,1,1.3414627619,-,-
2019_Oct_11,121,001,0,source,10,GREATER,HF,target,left,aqua,pleasantness,conservative,no,1,1,2.35326152308,-,-
2019_Oct_11,121,001,0,source,11,DOING,HF,target,right,yellow,imageability,liberal,no,7,1,2.37654816581,-,-
2019_Oct_11,121,001,0,source,12,AVOCADO,LF,target,left,aqua,pleasantness,liberal,no,1,1,0.964754023838,-,-
2019_Oct_11,121,001,0,source,13,BEAUTIFUL,HF,target,right,yellow,imageability,conservative,no,9,1,1.81211066728,-,-
2019_Oct_11,121,001,0,source,14,SEVEN,HF,target,right,yellow,imageability,conservative,no,3,0,2.4238421934,-,-
2019_Oct_11,121,001,0,source,15,ENAMELLED,LF,target,left,aqua,pleasantness,liberal,no,7,0,2.70617770583,-,-
2019_Oct_11,121,001,0,source,16,ACCORDING,HF,target,left,aqua,pleasantness,conservative,no,1,1,1.2944546849,-,-
2019_Oct_11,121,001,0,source,17,EASILY,HF,target,right,yellow,imageability,liberal,yes,2,0,1.62386352972,-,-
2019_Oct_11,121,001,0,source,18,POLICE,HF,target,left,aqua,pleasantness,liberal,no,1,1,2.49438033774,-,-
2019_Oct_11,121,001,0,source,19,PUTTS,LF,target,left,aqua,pleasantness,liberal,no,3,1,2.25925673377,-,-
2019_Oct_11,121,001,0,source,20,BECAME,HF,target,right,yellow,imageability,liberal,no,8,1,1.81208243882,-,-
2019_Oct_11,121,001,0,source,21,FITFUL,LF,target,left,aqua,pleasantness,conservative,no,7,0,2.75334708829,-,-
2019_Oct_11,121,001,0,source,22,PONCE,LF,target,left,aqua,pleasantness,liberal,no,1,1,1.36505038596,-,-
2019_Oct_11,121,001,0,source,23,NUCLEAR,HF,target,right,yellow,imageability,liberal,yes,2,0,1.50624105488,-,-
2019_Oct_11,121,001,0,source,24,PHYSICAL,HF,target,right,yellow,imageability,conservative,no,9,1,1.67093832852,-,-
2019_Oct_11,121,001,0,source,25,ANOINTED,LF,target,left,aqua,pleasantness,conservative,no,1,1,1.52976342355,-,-
2019_Oct_11,121,001,0,source,26,EJECTED,LF,target,right,yellow,imageability,liberal,no,9,1,0.988491955257,-,-
2019_Oct_11,121,001,0,source,27,WARDROBES,LF,target,right,yellow,imageability,conservative,no,9,1,2.23549790596,-,-
2019_Oct_11,121,001,0,source,28,BUCKED,LF,target,right,yellow,imageability,conservative,no,2,0,1.55330082295,-,-
2019_Oct_11,121,001,0,source,29,UNLESS,HF,target,left,aqua,pleasantness,liberal,no,1,1,2.23561558563,-,-
2019_Oct_11,121,001,0,source,30,VILLAGE,HF,target,left,aqua,pleasantness,conservative,no,1,1,1.20025706225,-,-
2019_Oct_11,121,001,0,source,31,LABOUR,HF,target,left,aqua,pleasantness,liberal,no,1,1,0.823915660707,-,-
2019_Oct_11,121,001,0,source,32,ATHEIST,LF,target,right,yellow,imageability,conservative,no,1,0,2.84739916942,-,-
2019_Oct_11,121,001,0,source,33,ALREADY,HF,target,left,aqua,pleasantness,conservative,no,8,0,2.49436017456,-,-
2019_Oct_11,121,001,0,source,34,NAPPY,LF,target,right,yellow,imageability,conservative,no,8,1,2.30611230379,-,-
2019_Oct_11,121,001,0,source,35,REACHED,HF,target,right,yellow,imageability,liberal,no,2,0,1.76506592994,-,-
2019_Oct_11,121,001,0,source,36,YORKER,LF,target,right,yellow,imageability,liberal,no,2,0,1.43544628821,-,-
2019_Oct_11,121,001,0,source,37,GETTING,HF,target,left,aqua,pleasantness,liberal,no,1,1,1.55326342941,-,-
2019_Oct_11,121,001,0,source,38,KEENER,LF,target,right,yellow,imageability,conservative,no,7,1,2.30628167453,-,-
2019_Oct_11,121,001,0,source,39,MADDENED,LF,target,left,aqua,pleasantness,conservative,no,7,0,1.5767773662,-,-
2019_Oct_11,121,001,0,source,40,LITANY,LF,target,left,aqua,pleasantness,liberal,no,3,1,1.88264367917,-,-
2019_Oct_11,121,001,0,source,41,PAUNCH,LF,target,right,yellow,imageability,liberal,no,9,1,1.60027333943,-,-
2019_Oct_11,121,001,0,source,42,FAILINGS,LF,target,left,aqua,pleasantness,liberal,no,1,1,2.47093972162,-,-
2019_Oct_11,121,001,0,source,43,WESTERN,HF,target,left,aqua,pleasantness,conservative,no,1,1,1.24716945578,-,-
2019_Oct_11,121,001,0,source,44,NEMESIS,LF,target,right,yellow,imageability,liberal,no,9,1,2.35329818341,-,-
2019_Oct_11,121,001,0,source,45,NATIONAL,HF,target,right,yellow,imageability,conservative,no,8,1,1.60029056979,-,-
2019_Oct_11,121,001,0,source,46,MOPED,LF,target,right,yellow,imageability,liberal,yes,7,1,1.20032048462,-,-
2019_Oct_11,121,001,0,source,47,EVIDENCE,HF,target,right,yellow,imageability,conservative,no,9,1,2.75324150653,-,-
2019_Oct_11,121,001,0,recog,0,WRONG,HF,target,left,aqua,pleasantness,liberal,no,z,1,1.60015822599,3,3
2019_Oct_11,121,001,0,recog,1,DERANGED,LF,target,right,yellow,imageability,liberal,no,z,1,1.15321452453,3,6
2019_Oct_11,121,001,0,recog,2,LATER,HF,lure,-,-,-,liberal,no,z,0,1.5767656349,-1,5
2019_Oct_11,121,001,0,recog,3,LAMENT,LF,lure,-,-,-,liberal,yes,m,1,1.57681292673,1,6
2019_Oct_11,121,001,0,recog,4,ANCHORAGE,LF,lure,-,-,-,conservative,no,m,1,2.34140227235,3,9
2019_Oct_11,121,001,0,recog,5,WARDROBES,LF,target,right,yellow,imageability,conservative,no,m,0,1.08260232632,-1,8
2019_Oct_11,121,001,0,recog,6,ENERGY,HF,target,right,yellow,imageability,liberal,no,z,1,1.67086207503,3,11
2019_Oct_11,121,001,0,recog,7,THOUSAND,HF,target,left,aqua,pleasantness,conservative,no,m,0,1.37679598965,-1,10
2019_Oct_11,121,001,0,recog,8,OFFER,HF,lure,-,-,-,conservative,no,z,0,2.22387108174,-3,7
2019_Oct_11,121,001,0,recog,9,ATROCITY,LF,lure,-,-,-,liberal,no,m,1,3.74154026184,1,8
2019_Oct_11,121,001,0,recog,10,EYEBALL,LF,lure,-,-,-,liberal,no,m,1,2.4356328893,1,9
2019_Oct_11,121,001,0,recog,11,MYRIADS,LF,lure,-,-,-,conservative,no,m,1,1.83560260787,3,12
2019_Oct_11,121,001,0,recog,12,FEVERS,LF,lure,-,-,-,liberal,no,m,1,3.48278064217,1,13
2019_Oct_11,121,001,0,recog,13,TIMES,HF,lure,-,-,-,liberal,no,m,1,1.07100043113,1,14
2019_Oct_11,121,001,0,recog,14,BETTER,HF,lure,-,-,-,conservative,no,z,0,1.90616091539,-3,11
2019_Oct_11,121,001,0,recog,15,CHIEF,HF,lure,-,-,-,liberal,no,m,1,1.36482602473,1,12
2019_Oct_11,121,001,0,recog,16,LABOUR,HF,target,left,aqua,pleasantness,liberal,no,z,1,1.51795733031,3,15
2019_Oct_11,121,001,0,recog,17,SERIOUS,HF,lure,-,-,-,liberal,no,m,1,1.84755937507,1,16
2019_Oct_11,121,001,0,recog,18,VERBALLY,LF,lure,-,-,-,liberal,no,m,1,1.10626620387,1,17
2019_Oct_11,121,001,0,recog,19,WESTERN,HF,target,left,aqua,pleasantness,conservative,no,z,1,2.04738164578,1,18
2019_Oct_11,121,001,0,recog,20,VALUE,HF,lure,-,-,-,liberal,no,m,1,4.05927829004,1,19
2019_Oct_11,121,001,0,recog,21,RETURN,HF,lure,-,-,-,liberal,no,m,1,0.976778612656,1,20
2019_Oct_11,121,001,0,recog,22,NEMESIS,LF,target,right,yellow,imageability,liberal,no,z,1,0.870880111917,3,23
2019_Oct_11,121,001,0,recog,23,AROUND,HF,lure,-,-,-,conservative,no,m,1,2.35305952465,3,26
2019_Oct_11,121,001,0,recog,24,SEVEN,HF,target,right,yellow,imageability,conservative,no,z,1,1.83563486896,1,27
2019_Oct_11,121,001,0,recog,25,ACTION,HF,lure,-,-,-,liberal,no,m,1,1.9765846795,1,28
2019_Oct_11,121,001,0,recog,26,DEVELOPED,HF,lure,-,-,-,conservative,no,m,1,3.71818909692,3,31
2019_Oct_11,121,001,0,recog,27,ARDENTLY,LF,lure,-,-,-,conservative,no,m,1,1.90603333744,3,34
2019_Oct_11,121,001,0,recog,28,SORRY,HF,lure,-,-,-,liberal,no,m,1,1.52977955409,1,35
2019_Oct_11,121,001,0,recog,29,HISTORY,HF,lure,-,-,-,conservative,no,m,1,2.44738619167,3,38
2019_Oct_11,121,001,0,recog,30,SNUBBED,LF,lure,-,-,-,conservative,no,m,1,1.50629091293,3,41
2019_Oct_11,121,001,0,recog,31,MILES,HF,lure,-,-,-,liberal,yes,z,0,1.15314193707,-1,40
2019_Oct_11,121,001,0,recog,32,KEENER,LF,target,right,yellow,imageability,conservative,no,m,0,3.09446597628,-1,39
2019_Oct_11,121,001,0,recog,33,ANOINTED,LF,target,left,aqua,pleasantness,conservative,no,z,1,2.02366681038,1,40
2019_Oct_11,121,001,0,recog,34,BROUGHT,HF,lure,-,-,-,conservative,no,m,1,1.98846995906,3,43
2019_Oct_11,121,001,0,recog,35,ALIAS,LF,lure,-,-,-,liberal,no,m,1,1.56507978755,1,44
2019_Oct_11,121,001,0,recog,36,INITIATES,LF,target,right,yellow,imageability,conservative,no,z,1,1.72964031815,1,45
2019_Oct_11,121,001,0,recog,37,POLICE,HF,target,left,aqua,pleasantness,liberal,no,z,1,2.25915445144,3,48
2019_Oct_11,121,001,0,recog,38,VETOED,LF,lure,-,-,-,liberal,no,m,1,0.976568182351,1,49
2019_Oct_11,121,001,0,recog,39,ENAMELLED,LF,target,left,aqua,pleasantness,liberal,no,z,1,1.84739477018,3,52
2019_Oct_11,121,001,0,recog,40,BUTCHERED,LF,lure,-,-,-,conservative,no,m,1,2.58844671641,3,55
2019_Oct_11,121,001,0,recog,41,CUTLER,LF,lure,-,-,-,conservative,no,m,1,1.29432820675,3,58
2019_Oct_11,121,001,0,recog,42,FAILINGS,LF,target,left,aqua,pleasantness,liberal,no,z,1,2.36504745313,3,61
2019_Oct_11,121,001,0,recog,43,PAUNCH,LF,target,right,yellow,imageability,liberal,yes,m,0,0.976866964055,-3,58
2019_Oct_11,121,001,0,recog,44,BUCKED,LF,target,right,yellow,imageability,conservative,no,z,1,2.62382100373,1,59
2019_Oct_11,121,001,0,recog,45,AVOCADO,LF,target,left,aqua,pleasantness,liberal,no,z,1,1.4826838589,3,62
2019_Oct_11,121,001,0,recog,46,LIKELY,HF,lure,-,-,-,conservative,no,m,1,1.58857429436,3,65
2019_Oct_11,121,001,0,recog,47,LOOKED,HF,lure,-,-,-,conservative,no,m,1,2.25908113078,3,68
2019_Oct_11,121,001,0,recog,48,EVADING,LF,lure,-,-,-,liberal,no,z,0,2.54125167171,-1,67
2019_Oct_11,121,001,0,recog,49,MADDENED,LF,target,left,aqua,pleasantness,conservative,no,z,1,1.69424770066,1,68
2019_Oct_11,121,001,0,recog,50,THRASH,LF,lure,-,-,-,conservative,no,m,1,2.45913766101,3,71
2019_Oct_11,121,001,0,recog,51,DAILIES,LF,target,left,aqua,pleasantness,conservative,no,z,1,1.82383647439,1,72
2019_Oct_11,121,001,0,recog,52,ATHEIST,LF,target,right,yellow,imageability,conservative,no,z,1,0.941399559489,1,73
2019_Oct_11,121,001,0,recog,53,INJECT,LF,lure,-,-,-,liberal,no,m,1,1.9532023533,1,74
2019_Oct_11,121,001,0,recog,54,LITANY,LF,target,left,aqua,pleasantness,liberal,no,z,1,1.1177287898,3,77
2019_Oct_11,121,001,0,recog,55,TEACUP,LF,lure,-,-,-,conservative,no,m,1,1.16499312252,3,80
2019_Oct_11,121,001,0,recog,56,UNLESS,HF,target,left,aqua,pleasantness,liberal,no,z,1,2.87072577192,3,83
2019_Oct_11,121,001,0,recog,57,BEDLAM,LF,lure,-,-,-,liberal,no,m,1,1.44746354497,1,84
2019_Oct_11,121,001,0,recog,58,SNAGS,LF,lure,-,-,-,liberal,no,m,1,2.11778268049,1,85
2019_Oct_11,121,001,0,recog,59,PAMPERED,LF,lure,-,-,-,conservative,no,m,1,1.31791986345,3,88
2019_Oct_11,121,001,0,recog,60,DOING,HF,target,right,yellow,imageability,liberal,no,z,1,1.03564594038,3,91
2019_Oct_11,121,001,0,recog,61,ALREADY,HF,target,left,aqua,pleasantness,conservative,no,m,0,0.870944267497,-1,90
2019_Oct_11,121,001,0,recog,62,FITFUL,LF,target,left,aqua,pleasantness,conservative,no,m,0,3.27097154278,-1,89
2019_Oct_11,121,001,0,recog,63,PEWTER,LF,lure,-,-,-,conservative,no,m,1,1.42361489935,3,92
2019_Oct_11,121,001,0,recog,64,REACHED,HF,target,right,yellow,imageability,liberal,no,m,0,2.75330859494,-3,89
2019_Oct_11,121,001,0,recog,65,EARLIER,HF,lure,-,-,-,conservative,no,m,1,1.50619046362,3,92
2019_Oct_11,121,001,0,recog,66,GIPSY,LF,target,left,aqua,pleasantness,conservative,no,z,1,1.35323806046,1,93
2019_Oct_11,121,001,0,recog,67,CAPITAL,HF,target,right,yellow,imageability,conservative,no,z,1,1.1062812346,1,94
2019_Oct_11,121,001,0,recog,68,EASILY,HF,target,right,yellow,imageability,liberal,no,z,1,1.8238812,3,97
2019_Oct_11,121,001,0,recog,69,UNDER,HF,lure,-,-,-,conservative,no,m,1,1.23564894653,3,100
2019_Oct_11,121,001,0,recog,70,BEAUTIFUL,HF,target,right,yellow,imageability,conservative,no,z,1,1.92953994216,1,101
2019_Oct_11,121,001,0,recog,71,NEITHER,HF,lure,-,-,-,liberal,no,m,1,1.52963401258,1,102
2019_Oct_11,121,001,0,recog,72,PHYSICAL,HF,target,right,yellow,imageability,conservative,no,m,0,1.25890956043,-1,101
2019_Oct_11,121,001,0,recog,73,PRIVATE,HF,lure,-,-,-,conservative,no,m,1,4.50634993606,3,104
2019_Oct_11,121,001,0,recog,74,VILLAGE,HF,target,left,aqua,pleasantness,conservative,no,z,1,1.37670287241,1,105
2019_Oct_11,121,001,0,recog,75,PUTTS,LF,target,left,aqua,pleasantness,liberal,no,z,1,1.56503799477,3,108
2019_Oct_11,121,001,0,recog,76,PERHAPS,HF,target,left,aqua,pleasantness,liberal,no,m,0,1.16500668684,-3,105
2019_Oct_11,121,001,0,recog,77,PYJAMA,LF,target,left,aqua,pleasantness,conservative,no,z,1,1.85905018946,1,106
2019_Oct_11,121,001,0,recog,78,ACCORDING,HF,target,left,aqua,pleasantness,conservative,yes,z,1,1.11772768999,1,107
2019_Oct_11,121,001,0,recog,79,PONCE,LF,target,left,aqua,pleasantness,liberal,no,z,1,1.41212665118,3,110
2019_Oct_11,121,001,0,recog,80,MOPED,LF,target,right,yellow,imageability,liberal,no,m,0,1.95332333239,-3,107
2019_Oct_11,121,001,0,recog,81,BECAME,HF,target,right,yellow,imageability,liberal,no,z,1,1.35326848854,3,110
2019_Oct_11,121,001,0,recog,82,YORKER,LF,target,right,yellow,imageability,liberal,no,z,1,1.17680141538,3,113
2019_Oct_11,121,001,0,recog,83,EJECTED,LF,target,right,yellow,imageability,liberal,no,z,1,2.04758621044,3,116
2019_Oct_11,121,001,0,recog,84,NUCLEAR,HF,target,right,yellow,imageability,liberal,no,z,1,1.44739718977,3,119
2019_Oct_11,121,001,0,recog,85,EVIDENCE,HF,target,right,yellow,imageability,conservative,no,z,1,1.62378800943,1,120
2019_Oct_11,121,001,0,recog,86,LOYALIST,LF,lure,-,-,-,conservative,no,m,1,2.45922234638,3,123
2019_Oct_11,121,001,0,recog,87,GREATER,HF,target,left,aqua,pleasantness,conservative,no,z,1,1.57658966531,1,124
2019_Oct_11,121,001,0,recog,88,MOODILY,LF,lure,-,-,-,conservative,no,m,1,3.52977698787,3,127
2019_Oct_11,121,001,0,recog,89,GETTING,HF,target,left,aqua,pleasantness,liberal,no,z,1,2.55322236984,3,130
2019_Oct_11,121,001,0,recog,90,NAPPY,LF,target,right,yellow,imageability,conservative,no,z,1,2.65915276507,1,131
2019_Oct_11,121,001,0,recog,91,GAMBITS,LF,lure,-,-,-,liberal,no,m,1,1.18860017656,1,132
2019_Oct_11,121,001,0,recog,92,BEHIND,HF,lure,-,-,-,liberal,no,m,1,1.52974069414,1,133
2019_Oct_11,121,001,0,recog,93,SAYING,HF,lure,-,-,-,liberal,no,m,1,0.92948311865,1,134
2019_Oct_11,121,001,0,recog,94,NATIONAL,HF,target,right,yellow,imageability,conservative,no,z,1,1.31773436217,1,135
2019_Oct_11,121,001,0,recog,95,ENOUGH,HF,lure,-,-,-,conservative,no,z,0,2.32967279921,-3,132
2019_Oct_11,121,001,1,source,0,DAWDLING,LF,target,right,yellow,imageability,conservative,no,7,1,4.29450124352,-,-
2019_Oct_11,121,001,1,source,1,LIGHT,HF,target,right,yellow,imageability,conservative,no,9,1,1.48262263614,-,-
2019_Oct_11,121,001,1,source,2,RIVER,HF,target,left,aqua,pleasantness,liberal,no,1,1,1.30594329966,-,-
2019_Oct_11,121,001,1,source,3,MODERN,HF,target,right,yellow,imageability,liberal,no,9,1,1.29423912215,-,-
2019_Oct_11,121,001,1,source,4,LUSCIOUS,LF,target,right,yellow,imageability,liberal,no,8,1,1.32965776847,-,-
2019_Oct_11,121,001,1,source,5,VULTURE,LF,target,right,yellow,imageability,liberal,no,8,1,1.4474668444,-,-
2019_Oct_11,121,001,1,source,6,BRING,HF,target,left,aqua,pleasantness,conservative,no,1,1,0.741509100561,-,-
2019_Oct_11,121,001,1,source,7,JUTTED,LF,target,left,aqua,pleasantness,conservative,no,1,1,0.988330283194,-,-
2019_Oct_11,121,001,1,source,8,TOFFEE,LF,target,left,aqua,pleasantness,liberal,no,1,1,0.635600334929,-,-
2019_Oct_11,121,001,1,source,9,BELIEVE,HF,target,left,aqua,pleasantness,conservative,no,1,1,3.42394300931,-,-
2019_Oct_11,121,001,1,source,10,TERMS,HF,target,right,yellow,imageability,conservative,no,8,1,1.2121196124,-,-
2019_Oct_11,121,001,1,source,11,FRUGAL,LF,target,left,aqua,pleasantness,liberal,no,8,0,0.894380484386,-,-
2019_Oct_11,121,001,1,source,12,WONDROUS,LF,target,right,yellow,imageability,conservative,no,9,1,1.4473011397,-,-
2019_Oct_11,121,001,1,source,13,PRYING,LF,target,right,yellow,imageability,liberal,yes,7,1,1.1767255285,-,-
2019_Oct_11,121,001,1,source,14,RAMBLE,LF,target,left,aqua,pleasantness,liberal,no,1,1,1.35328975153,-,-
2019_Oct_11,121,001,1,source,15,NAUGHT,LF,target,left,aqua,pleasantness,liberal,no,1,1,1.37692136799,-,-
2019_Oct_11,121,001,1,source,16,NUMBER,HF,target,left,aqua,pleasantness,liberal,no,1,1,2.5885563308,-,-
2019_Oct_11,121,001,1,source,17,AUBURN,LF,target,left,aqua,pleasantness,conservative,no,1,1,0.682680266183,-,-
2019_Oct_11,121,001,1,source,18,CYANIDE,LF,target,left,aqua,pleasantness,liberal,no,1,1,1.54140821133,-,-
2019_Oct_11,121,001,1,source,19,EFFECT,HF,target,right,yellow,imageability,conservative,no,7,1,1.67104097745,-,-
2019_Oct_11,121,001,1,source,20,SPACE,HF,target,right,yellow,imageability,conservative,yes,2,0,1.0942467475,-,-
2019_Oct_11,121,001,1,source,21,HIPPY,LF,target,right,yellow,imageability,conservative,no,9,1,0.78839179923,-,-
2019_Oct_11,121,001,1,source,22,ALMOST,HF,target,left,aqua,pleasantness,conservative,no,1,1,1.36499796169,-,-
2019_Oct_11,121,001,1,source,23,RELAXES,LF,target,left,aqua,pleasantness,liberal,no,1,1,0.847387804721,-,-
2019_Oct_11,121,001,1,source,24,SWOOPING,LF,target,right,yellow,imageability,liberal,no,9,1,0.847373873795,-,-
2019_Oct_11,121,001,1,source,25,NOVAS,LF,target,left,aqua,pleasantness,conservative,yes,3,1,1.10608803465,-,-
2019_Oct_11,121,001,1,source,26,FIGURE,HF,target,right,yellow,imageability,liberal,no,9,1,0.859098214495,-,-
2019_Oct_11,121,001,1,source,27,HOPPER,LF,target,left,aqua,pleasantness,conservative,no,1,1,1.78851241172,-,-
2019_Oct_11,121,001,1,source,28,COUNCIL,HF,target,right,yellow,imageability,conservative,no,9,1,1.84724996187,-,-
2019_Oct_11,121,001,1,source,29,FRIEND,HF,target,left,aqua,pleasantness,conservative,no,1,1,1.03552019544,-,-
2019_Oct_11,121,001,1,source,30,REEDY,LF,target,right,yellow,imageability,liberal,no,9,1,1.50635286889,-,-
2019_Oct_11,121,001,1,source,31,EVENING,HF,target,left,aqua,pleasantness,liberal,no,1,1,2.31800491542,-,-
2019_Oct_11,121,001,1,source,32,PUCKERED,LF,target,right,yellow,imageability,conservative,no,8,1,1.49441516506,-,-
2019_Oct_11,121,001,1,source,33,IMPORTANT,HF,target,right,yellow,imageability,liberal,no,9,1,5.74138812147,-,-
2019_Oct_11,121,001,1,source,34,USELESSLY,LF,target,left,aqua,pleasantness,conservative,no,1,1,1.03559534912,-,-
2019_Oct_11,121,001,1,source,35,SOCIAL,HF,target,left,aqua,pleasantness,liberal,no,1,1,0.882528565731,-,-
2019_Oct_11,121,001,1,source,36,HIMSELF,HF,target,right,yellow,imageability,liberal,no,9,1,1.47089132998,-,-
2019_Oct_11,121,001,1,source,37,LULLED,LF,target,right,yellow,imageability,conservative,no,8,1,2.81189950377,-,-
2019_Oct_11,121,001,1,source,38,ORDER,HF,target,left,aqua,pleasantness,conservative,no,1,1,2.57674583832,-,-
2019_Oct_11,121,001,1,source,39,ROUND,HF,target,right,yellow,imageability,conservative,no,1,0,2.04736441543,-,-
2019_Oct_11,121,001,1,source,40,MIXER,LF,target,right,yellow,imageability,liberal,no,9,1,1.08240546034,-,-
2019_Oct_11,121,001,1,source,41,MARKET,HF,target,left,aqua,pleasantness,liberal,no,9,0,1.09448687267,-,-
2019_Oct_11,121,001,1,source,42,COVER,HF,target,left,aqua,pleasantness,conservative,no,3,1,1.69422717088,-,-
2019_Oct_11,121,001,1,source,43,LEVEL,HF,target,right,yellow,imageability,liberal,no,7,1,1.07065105816,-,-
2019_Oct_11,121,001,1,source,44,REWRITE,LF,target,right,yellow,imageability,conservative,no,9,1,0.882642579362,-,-
2019_Oct_11,121,001,1,source,45,HATCHES,LF,target,left,aqua,pleasantness,conservative,no,7,0,3.80036946282,-,-
2019_Oct_11,121,001,1,source,46,MERELY,HF,target,left,aqua,pleasantness,liberal,yes,2,1,1.10626363764,-,-
2019_Oct_11,121,001,1,source,47,POUNDS,HF,target,right,yellow,imageability,liberal,no,9,1,2.00030648037,-,-
2019_Oct_11,121,001,1,recog,0,USELESSLY,LF,target,left,aqua,pleasantness,conservative,no,z,1,3.47098481382,1,133
2019_Oct_11,121,001,1,recog,1,APPEARED,HF,lure,-,-,-,liberal,no,m,1,3.2826309947,1,134
2019_Oct_11,121,001,1,recog,2,TERMS,HF,target,right,yellow,imageability,conservative,no,z,1,1.67090130159,1,135
2019_Oct_11,121,001,1,recog,3,KNEAD,LF,lure,-,-,-,conservative,no,m,1,1.54152919042,3,138
2019_Oct_11,121,001,1,recog,4,PUCKERED,LF,target,right,yellow,imageability,conservative,no,z,1,1.01206088255,1,139
2019_Oct_11,121,001,1,recog,5,GNARLED,LF,lure,-,-,-,conservative,no,z,0,1.51805081415,-3,136
2019_Oct_11,121,001,1,recog,6,RIVER,HF,target,left,aqua,pleasantness,liberal,no,z,1,1.92989848021,3,139
2019_Oct_11,121,001,1,recog,7,SWOOPING,LF,target,right,yellow,imageability,liberal,no,z,1,1.63562526395,3,142
2019_Oct_11,121,001,1,recog,8,BOOKS,HF,lure,-,-,-,conservative,no,m,1,1.12969472209,3,145
2019_Oct_11,121,001,1,recog,9,HAVING,HF,lure,-,-,-,liberal,no,m,1,1.89437828477,1,146
2019_Oct_11,121,001,1,recog,10,NOMAD,LF,lure,-,-,-,liberal,no,m,1,1.00029328265,1,147
2019_Oct_11,121,001,1,recog,11,NUMBER,HF,target,left,aqua,pleasantness,liberal,no,z,1,0.917790672439,3,150
2019_Oct_11,121,001,1,recog,12,CRACKLE,LF,lure,-,-,-,conservative,no,m,1,4.494496551,3,153
2019_Oct_11,121,001,1,recog,13,ENFORCING,LF,lure,-,-,-,conservative,no,m,1,1.22391250792,3,156
2019_Oct_11,121,001,1,recog,14,HIPPY,LF,target,right,yellow,imageability,conservative,no,z,1,1.54122564288,1,157
2019_Oct_11,121,001,1,recog,15,BLACK,HF,lure,-,-,-,conservative,no,m,1,1.07081089721,3,160
2019_Oct_11,121,001,1,recog,16,JOWLS,LF,lure,-,-,-,conservative,no,m,1,1.04729402759,3,163
2019_Oct_11,121,001,1,recog,17,TOFFEE,LF,target,left,aqua,pleasantness,liberal,no,z,1,1.88270783475,3,166
2019_Oct_11,121,001,1,recog,18,FENCED,LF,lure,-,-,-,liberal,no,m,1,2.03551726262,1,167
2019_Oct_11,121,001,1,recog,19,HURDLES,LF,lure,-,-,-,liberal,no,m,1,1.50594960524,1,168
2019_Oct_11,121,001,1,recog,20,REWRITE,LF,target,right,yellow,imageability,conservative,no,z,1,1.47061051184,1,169
2019_Oct_11,121,001,1,recog,21,MEETING,HF,lure,-,-,-,liberal,no,m,1,3.71771764506,1,170
2019_Oct_11,121,001,1,recog,22,JUTTED,LF,target,left,aqua,pleasantness,conservative,no,z,1,1.38853756071,1,171
2019_Oct_11,121,001,1,recog,23,HATCHES,LF,target,left,aqua,pleasantness,conservative,no,z,1,1.04731199115,1,172
2019_Oct_11,121,001,1,recog,24,ABOVE,HF,lure,-,-,-,conservative,no,m,1,0.811985288942,3,175
2019_Oct_11,121,001,1,recog,25,WONDROUS,LF,target,right,yellow,imageability,conservative,no,m,0,5.70611538326,-1,174
2019_Oct_11,121,001,1,recog,26,HIMSELF,HF,target,right,yellow,imageability,liberal,no,z,1,3.48269192417,3,177
2019_Oct_11,121,001,1,recog,27,NAUGHT,LF,target,left,aqua,pleasantness,liberal,no,z,1,0.741562991248,3,180
2019_Oct_11,121,001,1,recog,28,REEDY,LF,target,right,yellow,imageability,liberal,no,z,1,0.647419259285,3,183
2019_Oct_11,121,001,1,recog,29,LUSCIOUS,LF,target,right,yellow,imageability,liberal,no,z,1,1.34144223212,3,186
2019_Oct_11,121,001,1,recog,30,MODERN,HF,target,right,yellow,imageability,liberal,no,z,1,0.694400574247,3,189
2019_Oct_11,121,001,1,recog,31,DAWDLING,LF,target,right,yellow,imageability,conservative,no,z,1,1.62383493466,1,190
2019_Oct_11,121,001,1,recog,32,EVENING,HF,target,left,aqua,pleasantness,liberal,no,z,1,0.823879733582,3,193
2019_Oct_11,121,001,1,recog,33,PRYING,LF,target,right,yellow,imageability,liberal,no,m,0,0.753225742592,-3,190
2019_Oct_11,121,001,1,recog,34,EGGSHELL,LF,lure,-,-,-,liberal,no,m,1,7.30635719481,1,191
2019_Oct_11,121,001,1,recog,35,HUSBAND,HF,lure,-,-,-,conservative,yes,m,1,1.55326892846,3,194
2019_Oct_11,121,001,1,recog,36,COUNCIL,HF,target,right,yellow,imageability,conservative,no,z,1,4.20043706448,1,195
2019_Oct_11,121,001,1,recog,37,SOCIAL,HF,target,left,aqua,pleasantness,liberal,no,z,1,2.94154180158,3,198
2019_Oct_11,121,001,1,recog,38,NORTH,HF,lure,-,-,-,conservative,no,m,1,2.12985712736,3,201
2019_Oct_11,121,001,1,recog,39,ORDER,HF,target,left,aqua,pleasantness,conservative,no,z,1,1.41210538819,1,202
2019_Oct_11,121,001,1,recog,40,CYANIDE,LF,target,left,aqua,pleasantness,liberal,no,z,1,4.03561624551,3,205
2019_Oct_11,121,001,1,recog,41,SPACE,HF,target,right,yellow,imageability,conservative,yes,z,1,1.15329847669,1,206
2019_Oct_11,121,001,1,recog,42,VOICE,HF,lure,-,-,-,conservative,no,m,1,5.28254191009,3,209
2019_Oct_11,121,001,1,recog,43,USING,HF,lure,-,-,-,conservative,no,m,1,1.80033866814,3,212
2019_Oct_11,121,001,1,recog,44,NOVAS,LF,target,left,aqua,pleasantness,conservative,no,m,0,0.811819584243,-1,211
2019_Oct_11,121,001,1,recog,45,FRUGAL,LF,target,left,aqua,pleasantness,liberal,no,z,1,5.47098334741,3,214
2019_Oct_11,121,001,1,recog,46,SPLASHES,LF,lure,-,-,-,liberal,no,m,1,1.35318197016,1,215
2019_Oct_11,121,001,1,recog,47,DAYBREAK,LF,lure,-,-,-,conservative,no,m,1,1.15327061484,3,218
2019_Oct_11,121,001,1,recog,48,ROUND,HF,target,right,yellow,imageability,conservative,no,z,1,1.16498432404,1,219
2019_Oct_11,121,001,1,recog,49,LULLED,LF,target,right,yellow,imageability,conservative,no,z,1,1.07100922961,1,220
2019_Oct_11,121,001,1,recog,50,ASKED,HF,lure,-,-,-,liberal,no,m,1,1.40030259438,1,221
2019_Oct_11,121,001,1,recog,51,RAMBLE,LF,target,left,aqua,pleasantness,liberal,no,z,1,1.62370185765,3,224
2019_Oct_11,121,001,1,recog,52,PLEASE,HF,lure,-,-,-,conservative,no,m,1,2.87083795254,3,227
2019_Oct_11,121,001,1,recog,53,IMPORTANT,HF,target,right,yellow,imageability,liberal,no,z,1,1.11790145996,3,230
2019_Oct_11,121,001,1,recog,54,CORNER,HF,lure,-,-,-,liberal,no,m,1,0.953256977194,1,231
2019_Oct_11,121,001,1,recog,55,COVER,HF,target,left,aqua,pleasantness,conservative,no,z,1,1.41207019427,1,232
2019_Oct_11,121,001,1,recog,56,NOTHING,HF,lure,-,-,-,liberal,no,m,1,1.34124719915,1,233
2019_Oct_11,121,001,1,recog,57,MARKET,HF,target,left,aqua,pleasantness,liberal,no,z,1,1.16496599388,3,236
2019_Oct_11,121,001,1,recog,58,CABLED,LF,lure,-,-,-,liberal,no,m,1,1.42386932205,1,237
2019_Oct_11,121,001,1,recog,59,INSIDE,HF,lure,-,-,-,liberal,no,z,0,1.23554703081,-1,236
2019_Oct_11,121,001,1,recog,60,OUTSIDE,HF,lure,-,-,-,liberal,no,m,1,4.91797214108,1,237
2019_Oct_11,121,001,1,recog,61,HUDDLE,LF,lure,-,-,-,liberal,no,m,1,4.56526125619,1,238
2019_Oct_11,121,001,1,recog,62,JEWELLED,LF,lure,-,-,-,conservative,yes,z,0,2.20039710471,-3,235
2019_Oct_11,121,001,1,recog,63,ALCHEMIST,LF,lure,-,-,-,liberal,no,m,1,4.80047027874,1,236
2019_Oct_11,121,001,1,recog,64,SUPPORT,HF,lure,-,-,-,liberal,no,m,1,0.882664575561,1,237
2019_Oct_11,121,001,1,recog,65,POUNDS,HF,target,right,yellow,imageability,liberal,no,z,1,0.953311234485,3,240
2019_Oct_11,121,001,1,recog,66,TAKEN,HF,lure,-,-,-,liberal,no,m,1,0.96493659229,1,241
2019_Oct_11,121,001,1,recog,67,FRIEND,HF,target,left,aqua,pleasantness,conservative,no,z,1,1.34140887121,1,242
2019_Oct_11,121,001,1,recog,68,HOURS,HF,lure,-,-,-,conservative,no,m,1,2.74155602579,3,245
2019_Oct_11,121,001,1,recog,69,HOPPER,LF,target,left,aqua,pleasantness,conservative,no,z,1,1.30601552052,1,246
2019_Oct_11,121,001,1,recog,70,WELCOMES,LF,lure,-,-,-,liberal,no,m,1,1.23550450482,1,247
2019_Oct_11,121,001,1,recog,71,MIXER,LF,target,right,yellow,imageability,liberal,no,z,1,0.870927037141,3,250
2019_Oct_11,121,001,1,recog,72,NEARLY,HF,lure,-,-,-,conservative,no,m,1,6.87098789329,3,253
2019_Oct_11,121,001,1,recog,73,EBONY,LF,lure,-,-,-,conservative,no,m,1,0.988662059196,3,256
2019_Oct_11,121,001,1,recog,74,RODENTS,LF,lure,-,-,-,liberal,no,m,1,2.03562761022,1,257
2019_Oct_11,121,001,1,recog,75,HIGHER,HF,lure,-,-,-,conservative,no,m,1,1.23563941484,3,260
2019_Oct_11,121,001,1,recog,76,LEVEL,HF,target,right,yellow,imageability,liberal,no,z,1,2.11801144096,3,263
2019_Oct_11,121,001,1,recog,77,RELAXES,LF,target,left,aqua,pleasantness,liberal,no,z,1,2.31795652378,3,266
2019_Oct_11,121,001,1,recog,78,FELLS,LF,lure,-,-,-,conservative,no,m,1,1.00028228455,3,269
2019_Oct_11,121,001,1,recog,79,VULTURE,LF,target,right,yellow,imageability,liberal,no,z,1,2.40027619894,3,272
2019_Oct_11,121,001,1,recog,80,THING,HF,lure,-,-,-,liberal,no,m,1,1.35337920274,1,273
2019_Oct_11,121,001,1,recog,81,ALMOST,HF,target,left,aqua,pleasantness,conservative,no,z,1,0.906228737007,1,274
2019_Oct_11,121,001,1,recog,82,GEYSER,LF,lure,-,-,-,conservative,no,m,1,1.28265225769,3,277
2019_Oct_11,121,001,1,recog,83,LIGHT,HF,target,right,yellow,imageability,conservative,no,z,1,0.917895520987,1,278
2019_Oct_11,121,001,1,recog,84,FIGURE,HF,target,right,yellow,imageability,liberal,no,z,1,3.00029914831,3,281
2019_Oct_11,121,001,1,recog,85,BRING,HF,target,left,aqua,pleasantness,conservative,no,z,1,4.03558801706,1,282
2019_Oct_11,121,001,1,recog,86,ABLAZE,LF,lure,-,-,-,conservative,no,m,1,0.800279278408,3,285
2019_Oct_11,121,001,1,recog,87,NEBULOUS,LF,lure,-,-,-,liberal,no,m,1,0.882759525821,1,286
2019_Oct_11,121,001,1,recog,88,MAYBE,HF,lure,-,-,-,conservative,no,m,1,2.01184165376,3,289
2019_Oct_11,121,001,1,recog,89,EFFECT,HF,target,right,yellow,imageability,conservative,no,z,1,1.5647986028,1,290
2019_Oct_11,121,001,1,recog,90,RAYON,LF,lure,-,-,-,liberal,no,m,1,0.870585729453,1,291
2019_Oct_11,121,001,1,recog,91,MERELY,HF,target,left,aqua,pleasantness,liberal,no,m,0,0.917732382511,-3,288
2019_Oct_11,121,001,1,recog,92,SCUFFED,LF,lure,-,-,-,conservative,no,m,1,1.09427240973,3,291
2019_Oct_11,121,001,1,recog,93,AUBURN,LF,target,left,aqua,pleasantness,conservative,no,z,1,0.976693560686,1,292
2019_Oct_11,121,001,1,recog,94,BELIEVE,HF,target,left,aqua,pleasantness,conservative,yes,z,1,1.43557349957,1,293
2019_Oct_11,121,001,1,recog,95,WHATEVER,HF,lure,-,-,-,liberal,no,m,1,1.90621993853,1,294
2019_Oct_11,121,001,2,source,0,HAIRDO,LF,target,right,yellow,imageability,liberal,no,8,1,3.94151210671,-,-
2019_Oct_11,121,001,2,source,1,HYPNOSIS,LF,target,right,yellow,imageability,conservative,yes,3,0,2.65914433319,-,-
2019_Oct_11,121,001,2,source,2,SWEARS,LF,target,left,aqua,pleasantness,conservative,no,1,1,6.6122033446,-,-
2019_Oct_11,121,001,2,source,3,DRYER,LF,target,left,aqua,pleasantness,conservative,no,1,1,1.04734315244,-,-
2019_Oct_11,121,001,2,source,4,HOSPITAL,HF,target,right,yellow,imageability,liberal,no,9,1,2.57660872868,-,-
2019_Oct_11,121,001,2,source,5,CHOICE,HF,target,right,yellow,imageability,conservative,no,9,1,0.659176227681,-,-
2019_Oct_11,121,001,2,source,6,FINAL,HF,target,left,aqua,pleasantness,liberal,no,1,1,2.92959786549,-,-
2019_Oct_11,121,001,2,source,7,FOCUSES,LF,target,right,yellow,imageability,liberal,no,9,1,1.69430819021,-,-
2019_Oct_11,121,001,2,source,8,DIOCESE,LF,target,left,aqua,pleasantness,liberal,no,8,0,1.88259492093,-,-
2019_Oct_11,121,001,2,source,9,WAGGED,LF,target,left,aqua,pleasantness,conservative,no,1,1,1.14149091704,-,-
2019_Oct_11,121,001,2,source,10,POINT,HF,target,right,yellow,imageability,liberal,no,9,1,1.16504957943,-,-
2019_Oct_11,121,001,2,source,11,LANGUAGE,HF,target,right,yellow,imageability,conservative,no,9,1,0.717954470801,-,-
2019_Oct_11,121,001,2,source,12,PARENTS,HF,target,right,yellow,imageability,liberal,no,9,1,0.612095929823,-,-
2019_Oct_11,121,001,2,source,13,STAFF,HF,target,left,aqua,pleasantness,liberal,no,1,1,0.870626055818,-,-
2019_Oct_11,121,001,2,source,14,BURGH,LF,target,right,yellow,imageability,conservative,no,7,1,1.76512715269,-,-
2019_Oct_11,121,001,2,source,15,QUALITY,HF,target,left,aqua,pleasantness,liberal,no,9,0,3.32980184357,-,-
2019_Oct_11,121,001,2,source,16,NURTURING,LF,target,right,yellow,imageability,conservative,no,9,1,1.01177713158,-,-
2019_Oct_11,121,001,2,source,17,THWART,LF,target,left,aqua,pleasantness,liberal,no,1,1,0.800080946012,-,-
2019_Oct_11,121,001,2,source,18,CHROMIUM,LF,target,right,yellow,imageability,conservative,no,9,1,1.03558728385,-,-
2019_Oct_11,121,001,2,source,19,RALLIED,LF,target,left,aqua,pleasantness,liberal,no,1,1,0.870624956008,-,-
2019_Oct_11,121,001,2,source,20,YEOMAN,LF,target,left,aqua,pleasantness,liberal,no,1,1,0.8941942499,-,-
2019_Oct_11,121,001,2,source,21,FURTHER,HF,target,left,aqua,pleasantness,conservative,yes,3,1,1.61214982051,-,-
2019_Oct_11,121,001,2,source,22,LETTER,HF,target,left,aqua,pleasantness,conservative,no,9,0,1.22380106051,-,-
2019_Oct_11,121,001,2,source,23,SLEEP,HF,target,right,yellow,imageability,conservative,no,9,1,1.01202752164,-,-
2019_Oct_11,121,001,2,source,24,ALTHOUGH,HF,target,right,yellow,imageability,liberal,no,9,1,0.917929981699,-,-
2019_Oct_11,121,001,2,source,25,FUTURE,HF,target,left,aqua,pleasantness,conservative,no,9,0,0.906208207222,-,-
2019_Oct_11,121,001,2,source,26,USUAL,HF,target,left,aqua,pleasantness,conservative,no,1,1,4.83563340255,-,-
2019_Oct_11,121,001,2,source,27,CLASS,HF,target,left,aqua,pleasantness,liberal,no,1,1,3.48272198564,-,-
2019_Oct_11,121,001,2,source,28,NOXIOUS,LF,target,left,aqua,pleasantness,conservative,no,1,1,3.04744030232,-,-
2019_Oct_11,121,001,2,source,29,SOFTENING,LF,target,right,yellow,imageability,conservative,no,9,1,0.788541006781,-,-
2019_Oct_11,121,001,2,source,30,RIPEN,LF,target,left,aqua,pleasantness,conservative,no,1,1,4.90634678328,-,-
2019_Oct_11,121,001,2,source,31,CAIRN,LF,target,right,yellow,imageability,liberal,no,9,1,1.44747967551,-,-
2019_Oct_11,121,001,2,source,32,FIELD,HF,target,left,aqua,pleasantness,conservative,no,1,1,1.16504078095,-,-
2019_Oct_11,121,001,2,source,33,ARRIVED,HF,target,left,aqua,pleasantness,conservative,yes,7,0,1.03571559501,-,-
2019_Oct_11,121,001,2,source,34,RAKING,LF,target,right,yellow,imageability,liberal,no,9,1,1.22380949239,-,-
2019_Oct_11,121,001,2,source,35,FECKLESS,LF,target,left,aqua,pleasantness,liberal,no,9,0,0.764982710988,-,-
2019_Oct_11,121,001,2,source,36,BEYOND,HF,target,right,yellow,imageability,conservative,no,9,1,1.2591163247,-,-
2019_Oct_11,121,001,2,source,37,SKYLIGHT,LF,target,right,yellow,imageability,liberal,no,9,1,0.800389992609,-,-
2019_Oct_11,121,001,2,source,38,TABLE,HF,target,right,yellow,imageability,conservative,no,9,1,0.58854973194,-,-
2019_Oct_11,121,001,2,source,39,GUARDSMEN,LF,target,right,yellow,imageability,conservative,no,9,1,1.40032092454,-,-
2019_Oct_11,121,001,2,source,40,TICKLE,LF,target,left,aqua,pleasantness,liberal,no,1,1,3.14126435619,-,-
2019_Oct_11,121,001,2,source,41,FRACTIONS,LF,target,right,yellow,imageability,liberal,no,9,1,1.97671555688,-,-
2019_Oct_11,121,001,2,source,42,ANIMAL,HF,target,right,yellow,imageability,liberal,yes,3,0,1.75328036649,-,-
2019_Oct_11,121,001,2,source,43,TRUTH,HF,target,left,aqua,pleasantness,liberal,no,1,1,5.44745034725,-,-
2019_Oct_11,121,001,2,source,44,GIVEN,HF,target,right,yellow,imageability,liberal,no,9,1,4.03580028038,-,-
2019_Oct_11,121,001,2,source,45,QUICKLY,HF,target,right,yellow,imageability,conservative,no,9,1,1.07081712947,-,-
2019_Oct_11,121,001,2,source,46,WHETHER,HF,target,left,aqua,pleasantness,liberal,no,1,1,0.847385605101,-,-
2019_Oct_11,121,001,2,source,47,DODGED,LF,target,left,aqua,pleasantness,conservative,no,1,1,1.00024635743,-,-
2019_Oct_11,121,001,2,recog,0,WAGGED,LF,target,left,aqua,pleasantness,conservative,no,z,1,2.30628460735,1,295
2019_Oct_11,121,001,2,recog,1,SADDER,LF,lure,-,-,-,liberal,no,m,1,1.52955372645,1,296
2019_Oct_11,121,001,2,recog,2,SWEARS,LF,target,left,aqua,pleasantness,conservative,no,z,1,1.32968526372,1,297
2019_Oct_11,121,001,2,recog,3,BULBOUS,LF,lure,-,-,-,conservative,no,m,1,1.52970806645,3,300
2019_Oct_11,121,001,2,recog,4,ANSWER,HF,lure,-,-,-,conservative,no,m,1,0.90610079245,3,303
2019_Oct_11,121,001,2,recog,5,POINT,HF,target,right,yellow,imageability,liberal,no,z,1,0.776817399287,3,306
2019_Oct_11,121,001,2,recog,6,BURGH,LF,target,right,yellow,imageability,conservative,no,z,1,2.80039622487,1,307
2019_Oct_11,121,001,2,recog,7,THANK,HF,lure,-,-,-,liberal,no,m,1,0.894383417212,1,308
2019_Oct_11,121,001,2,recog,8,PIECE,HF,lure,-,-,-,liberal,no,m,1,0.859059721147,1,309
2019_Oct_11,121,001,2,recog,9,CHROMIUM,LF,target,right,yellow,imageability,conservative,no,z,1,0.953189522184,1,310
2019_Oct_11,121,001,2,recog,10,DOTTY,LF,lure,-,-,-,liberal,no,m,1,0.835542484925,1,311
2019_Oct_11,121,001,2,recog,11,CIRCUSES,LF,lure,-,-,-,conservative,no,m,1,0.823977983271,3,314
2019_Oct_11,121,001,2,recog,12,BIDDER,LF,lure,-,-,-,liberal,yes,z,0,0.870941334671,-1,313
2019_Oct_11,121,001,2,recog,13,ARRIVED,HF,target,left,aqua,pleasantness,conservative,no,m,0,1.57659883039,-1,312
2019_Oct_11,121,001,2,recog,14,HOSPITAL,HF,target,right,yellow,imageability,liberal,no,z,1,1.00022949368,3,315
2019_Oct_11,121,001,2,recog,15,DODGED,LF,target,left,aqua,pleasantness,conservative,no,z,1,1.12968995624,1,316
2019_Oct_11,121,001,2,recog,16,SPOKE,HF,lure,-,-,-,liberal,no,m,1,0.670797186246,1,317
2019_Oct_11,121,001,2,recog,17,HYPNOSIS,LF,target,right,yellow,imageability,conservative,no,m,0,0.917965175618,-1,316
2019_Oct_11,121,001,2,recog,18,TABLE,HF,target,right,yellow,imageability,conservative,no,z,1,4.34153461615,1,317
2019_Oct_11,121,001,2,recog,19,RESEARCH,HF,lure,-,-,-,liberal,no,m,1,2.77686212489,1,318
2019_Oct_11,121,001,2,recog,20,LONGER,HF,lure,-,-,-,conservative,no,m,1,0.953181823514,3,321
2019_Oct_11,121,001,2,recog,21,PANACHE,LF,lure,-,-,-,conservative,no,m,1,0.95335266066,3,324
2019_Oct_11,121,001,2,recog,22,FRACTIONS,LF,target,right,yellow,imageability,liberal,no,z,1,0.953236814012,3,327
2019_Oct_11,121,001,2,recog,23,WHITE,HF,lure,-,-,-,liberal,no,m,1,0.812072907135,1,328
2019_Oct_11,121,001,2,recog,24,THWART,LF,target,left,aqua,pleasantness,liberal,no,z,1,0.976585046104,3,331
2019_Oct_11,121,001,2,recog,25,CRYPT,LF,lure,-,-,-,conservative,no,m,1,1.1179835791,3,334
2019_Oct_11,121,001,2,recog,26,USUAL,HF,target,left,aqua,pleasantness,conservative,no,z,1,0.964951623026,1,335
2019_Oct_11,121,001,2,recog,27,TICKLE,LF,target,left,aqua,pleasantness,liberal,no,z,1,0.823825476291,3,338
2019_Oct_11,121,001,2,recog,28,FOCUSES,LF,target,right,yellow,imageability,liberal,no,z,1,0.894363987236,3,341
2019_Oct_11,121,001,2,recog,29,ANIMAL,HF,target,right,yellow,imageability,liberal,yes,m,0,1.49441186563,-3,338
2019_Oct_11,121,001,2,recog,30,GLASS,HF,lure,-,-,-,conservative,no,z,0,2.20039380528,-3,335
2019_Oct_11,121,001,2,recog,31,DICHOTOMY,LF,lure,-,-,-,liberal,no,m,1,1.22376476678,1,336
2019_Oct_11,121,001,2,recog,32,NOXIOUS,LF,target,left,aqua,pleasantness,conservative,no,z,1,0.800417854461,1,337
2019_Oct_11,121,001,2,recog,33,RIPEN,LF,target,left,aqua,pleasantness,conservative,no,z,1,0.952980558293,1,338
2019_Oct_11,121,001,2,recog,34,SOFTENING,LF,target,right,yellow,imageability,conservative,no,m,0,6.11805323373,-1,337
2019_Oct_11,121,001,2,recog,35,GIBBERISH,LF,lure,-,-,-,conservative,no,m,1,1.61212892412,3,340
2019_Oct_11,121,001,2,recog,36,BUILDING,HF,lure,-,-,-,conservative,no,m,1,1.37673293388,3,343
2019_Oct_11,121,001,2,recog,37,FURTHER,HF,target,left,aqua,pleasantness,conservative,no,z,1,0.835516822693,1,344
2019_Oct_11,121,001,2,recog,38,BEYOND,HF,target,right,yellow,imageability,conservative,no,z,1,4.48266589533,1,345
2019_Oct_11,121,001,2,recog,39,BLOOD,HF,lure,-,-,-,liberal,no,m,1,0.788299048591,1,346
2019_Oct_11,121,001,2,recog,40,STAFF,HF,target,left,aqua,pleasantness,liberal,no,z,1,0.953252944558,3,349
2019_Oct_11,121,001,2,recog,41,TRADE,HF,lure,-,-,-,conservative,no,m,1,1.17692129467,3,352
2019_Oct_11,121,001,2,recog,42,WHETHER,HF,target,left,aqua,pleasantness,liberal,no,z,1,1.38855185824,3,355
2019_Oct_11,121,001,2,recog,43,TRUTH,HF,target,left,aqua,pleasantness,liberal,no,z,1,3.14153967528,3,358
2019_Oct_11,121,001,2,recog,44,QUALITY,HF,target,left,aqua,pleasantness,liberal,no,z,1,1.1062038813,3,361
2019_Oct_11,121,001,2,recog,45,DRYER,LF,target,left,aqua,pleasantness,conservative,no,z,1,1.12969178926,1,362
2019_Oct_11,121,001,2,recog,46,LEGALITY,LF,lure,-,-,-,liberal,yes,z,0,0.812153193262,-1,361
2019_Oct_11,121,001,2,recog,47,SCHOOL,HF,lure,-,-,-,conservative,no,z,0,1.65911573813,-3,358
2019_Oct_11,121,001,2,recog,48,GIRLS,HF,lure,-,-,-,liberal,no,m,1,1.65915093205,1,359
2019_Oct_11,121,001,2,recog,49,RAKING,LF,target,right,yellow,imageability,liberal,no,z,1,1.08263898665,3,362
2019_Oct_11,121,001,2,recog,50,SIESTA,LF,lure,-,-,-,liberal,no,m,1,0.718062985383,1,363
2019_Oct_11,121,001,2,recog,51,GIVEN,HF,target,right,yellow,imageability,liberal,no,z,1,0.81203698001,3,366
2019_Oct_11,121,001,2,recog,52,WATCH,HF,lure,-,-,-,liberal,no,m,1,1.04733545377,1,367
2019_Oct_11,121,001,2,recog,53,GUARDSMEN,LF,target,right,yellow,imageability,conservative,no,m,0,0.917855194622,-1,366
2019_Oct_11,121,001,2,recog,54,SLEEP,HF,target,right,yellow,imageability,conservative,no,z,1,5.05913714777,1,367
2019_Oct_11,121,001,2,recog,55,STRAIGHT,HF,lure,-,-,-,liberal,no,m,1,2.4002608016,1,368
2019_Oct_11,121,001,2,recog,56,GOVERNS,LF,lure,-,-,-,conservative,no,m,1,1.32976298362,3,371
2019_Oct_11,121,001,2,recog,57,CLASS,HF,target,left,aqua,pleasantness,liberal,no,z,1,0.941451250557,3,374
2019_Oct_11,121,001,2,recog,58,ALDER,LF,lure,-,-,-,liberal,no,m,1,0.953219950259,1,375
2019_Oct_11,121,001,2,recog,59,ADDED,HF,lure,-,-,-,conservative,no,m,1,1.14146855423,3,378
2019_Oct_11,121,001,2,recog,60,SHORT,HF,lure,-,-,-,conservative,no,m,1,1.64706182105,3,381
2019_Oct_11,121,001,2,recog,61,DIOCESE,LF,target,left,aqua,pleasantness,liberal,no,m,0,0.98850441977,-3,378
2019_Oct_11,121,001,2,recog,62,FATHER,HF,lure,-,-,-,liberal,no,m,1,1.42382936229,1,379
2019_Oct_11,121,001,2,recog,63,INDEED,HF,lure,-,-,-,conservative,no,m,1,0.941485344666,3,382
2019_Oct_11,121,001,2,recog,64,SONAR,LF,lure,-,-,-,conservative,no,m,1,0.835672629103,3,385
2019_Oct_11,121,001,2,recog,65,DONATE,LF,lure,-,-,-,conservative,no,m,1,0.741501768495,3,388
2019_Oct_11,121,001,2,recog,66,NURTURING,LF,target,right,yellow,imageability,conservative,no,z,1,0.847397336407,1,389
2019_Oct_11,121,001,2,recog,67,LETTER,HF,target,left,aqua,pleasantness,conservative,no,z,1,0.976788510945,1,390
2019_Oct_11,121,001,2,recog,68,QUICKLY,HF,target,right,yellow,imageability,conservative,no,z,1,0.600118999437,1,391
2019_Oct_11,121,001,2,recog,69,FUTURE,HF,target,left,aqua,pleasantness,conservative,no,z,1,0.564979338237,1,392
2019_Oct_11,121,001,2,recog,70,LANGUAGE,HF,target,right,yellow,imageability,conservative,no,z,1,0.56499620199,1,393
2019_Oct_11,121,001,2,recog,71,TOWARDS,HF,lure,-,-,-,conservative,no,z,0,0.494593334272,-3,390
2019_Oct_11,121,001,2,recog,72,CONCERNED,HF,lure,-,-,-,liberal,no,m,1,1.49452587926,1,391
2019_Oct_11,121,001,2,recog,73,PACIFISM,LF,lure,-,-,-,conservative,no,z,0,1.27100270407,-3,388
2019_Oct_11,121,001,2,recog,74,MONEY,HF,lure,-,-,-,conservative,no,m,1,1.2945657657,3,391
2019_Oct_11,121,001,2,recog,75,BABBLED,LF,lure,-,-,-,liberal,no,m,1,1.04732518887,1,392
2019_Oct_11,121,001,2,recog,76,ALTHOUGH,HF,target,right,yellow,imageability,liberal,no,z,1,0.718004328852,3,395
2019_Oct_11,121,001,2,recog,77,CALLED,HF,lure,-,-,-,conservative,no,m,1,1.1179392201,3,398
2019_Oct_11,121,001,2,recog,78,SKYLIGHT,LF,target,right,yellow,imageability,liberal,no,z,1,1.68261134476,3,401
2019_Oct_11,121,001,2,recog,79,IRONICAL,LF,lure,-,-,-,liberal,no,m,1,1.09448064041,1,402
2019_Oct_11,121,001,2,recog,80,HAIRDO,LF,target,right,yellow,imageability,liberal,yes,z,1,0.929711879121,3,405
2019_Oct_11,121,001,2,recog,81,FIELD,HF,target,left,aqua,pleasantness,conservative,no,m,0,2.35308665329,-1,404
2019_Oct_11,121,001,2,recog,82,YEOMAN,LF,target,left,aqua,pleasantness,liberal,no,z,1,1.28269661669,3,407
2019_Oct_11,121,001,2,recog,83,REREAD,LF,lure,-,-,-,liberal,no,m,1,1.91802713158,1,408
2019_Oct_11,121,001,2,recog,84,TAPER,LF,lure,-,-,-,conservative,no,m,1,1.78851974379,3,411
2019_Oct_11,121,001,2,recog,85,RALLIED,LF,target,left,aqua,pleasantness,liberal,no,m,0,3.01185961732,-3,408
2019_Oct_11,121,001,2,recog,86,RECENT,HF,lure,-,-,-,liberal,no,z,0,3.43563142289,-1,407
2019_Oct_11,121,001,2,recog,87,PARENTS,HF,target,right,yellow,imageability,liberal,no,z,1,1.22356240175,3,410
2019_Oct_11,121,001,2,recog,88,FINAL,HF,target,left,aqua,pleasantness,liberal,no,z,1,1.97688419441,3,413
2019_Oct_11,121,001,2,recog,89,BYPASS,LF,lure,-,-,-,conservative,no,m,1,1.00027275287,3,416
2019_Oct_11,121,001,2,recog,90,MAPPED,LF,lure,-,-,-,liberal,no,m,1,1.71802009279,1,417
2019_Oct_11,121,001,2,recog,91,CHOICE,HF,target,right,yellow,imageability,conservative,no,z,1,0.847340879496,1,418
2019_Oct_11,121,001,2,recog,92,DUCHY,LF,lure,-,-,-,liberal,no,m,1,0.800347833228,1,419
2019_Oct_11,121,001,2,recog,93,LEECH,LF,lure,-,-,-,conservative,no,m,1,1.1179604831,3,422
2019_Oct_11,121,001,2,recog,94,CAIRN,LF,target,right,yellow,imageability,liberal,no,z,1,0.882564492856,3,425
2019_Oct_11,121,001,2,recog,95,FECKLESS,LF,target,left,aqua,pleasantness,liberal,no,z,1,1.47084293834,3,428
2019_Oct_11,121,001,3,source,0,AFTERNOON,HF,target,left,aqua,pleasantness,conservative,no,9,0,3.47067650043,-,-
2019_Oct_11,121,001,3,source,1,REPORT,HF,target,left,aqua,pleasantness,conservative,no,1,1,2.63571654818,-,-
2019_Oct_11,121,001,3,source,2,EMBATTLED,LF,target,right,yellow,imageability,liberal,no,8,1,1.02387320804,-,-
2019_Oct_11,121,001,3,source,3,CAKED,LF,target,right,yellow,imageability,conservative,no,9,1,0.894420077544,-,-
2019_Oct_11,121,001,3,source,4,EXACTLY,HF,target,left,aqua,pleasantness,liberal,yes,3,1,1.38858521914,-,-
2019_Oct_11,121,001,3,source,5,DRINK,HF,target,right,yellow,imageability,conservative,no,8,1,2.28263356092,-,-
2019_Oct_11,121,001,3,source,6,MIMICKED,LF,target,left,aqua,pleasantness,conservative,no,1,1,1.08263275439,-,-
2019_Oct_11,121,001,3,source,7,GUMMED,LF,target,left,aqua,pleasantness,liberal,no,1,1,0.823754355248,-,-
2019_Oct_11,121,001,3,source,8,CUISINE,LF,target,right,yellow,imageability,conservative,no,8,1,1.2356900061,-,-
2019_Oct_11,121,001,3,source,9,GROUND,HF,target,right,yellow,imageability,liberal,no,1,0,0.70615937566,-,-
2019_Oct_11,121,001,3,source,10,LADDIE,LF,target,right,yellow,imageability,conservative,no,8,1,0.682630408132,-,-
2019_Oct_11,121,001,3,source,11,TOOTHACHE,LF,target,right,yellow,imageability,liberal,no,9,1,1.15321269151,-,-
2019_Oct_11,121,001,3,source,12,ONCOMING,LF,target,left,aqua,pleasantness,liberal,no,9,0,1.90625733207,-,-
2019_Oct_11,121,001,3,source,13,CLOSE,HF,target,right,yellow,imageability,liberal,no,9,1,0.729682110931,-,-
2019_Oct_11,121,001,3,source,14,SILENCER,LF,target,right,yellow,imageability,liberal,no,9,1,2.05912798268,-,-
2019_Oct_11,121,001,3,source,15,LIFEBOAT,LF,target,right,yellow,imageability,liberal,yes,7,1,0.953155428075,-,-
2019_Oct_11,121,001,3,source,16,DIFFERENT,HF,target,right,yellow,imageability,liberal,no,8,1,2.22384248669,-,-
2019_Oct_11,121,001,3,source,17,ANYONE,HF,target,left,aqua,pleasantness,liberal,no,3,1,2.24711079925,-,-
2019_Oct_11,121,001,3,source,18,MEMBERS,HF,target,left,aqua,pleasantness,liberal,no,7,0,1.54150866064,-,-
2019_Oct_11,121,001,3,source,19,SEGMENTED,LF,target,right,yellow,imageability,liberal,no,7,1,0.988562709697,-,-
2019_Oct_11,121,001,3,source,20,MAJOR,HF,target,left,aqua,pleasantness,conservative,no,9,0,0.965039241219,-,-
2019_Oct_11,121,001,3,source,21,GORGED,LF,target,left,aqua,pleasantness,liberal,no,1,1,1.90597064827,-,-
2019_Oct_11,121,001,3,source,22,HORDE,LF,target,right,yellow,imageability,conservative,no,9,1,0.835551283405,-,-
2019_Oct_11,121,001,3,source,23,DAUGHTER,HF,target,right,yellow,imageability,conservative,yes,7,1,0.941449417541,-,-
2019_Oct_11,121,001,3,source,24,MYOPIC,LF,target,right,yellow,imageability,liberal,no,9,1,0.800242984679,-,-
2019_Oct_11,121,001,3,source,25,AMONG,HF,target,left,aqua,pleasantness,liberal,no,1,1,1.11787469792,-,-
2019_Oct_11,121,001,3,source,26,KIDNAP,LF,target,left,aqua,pleasantness,conservative,yes,3,1,1.3416728256,-,-
2019_Oct_11,121,001,3,source,27,ITSELF,HF,target,left,aqua,pleasantness,conservative,no,7,0,1.57676306868,-,-
2019_Oct_11,121,001,3,source,28,EXPECT,HF,target,left,aqua,pleasantness,conservative,no,9,0,1.02373829802,-,-
2019_Oct_11,121,001,3,source,29,HAWKED,LF,target,right,yellow,imageability,conservative,no,9,1,0.800418587668,-,-
2019_Oct_11,121,001,3,source,30,TELEPHONE,HF,target,left,aqua,pleasantness,conservative,no,1,1,0.835363582506,-,-
2019_Oct_11,121,001,3,source,31,JEOPARDY,LF,target,right,yellow,imageability,conservative,no,9,1,1.00037760142,-,-
2019_Oct_11,121,001,3,source,32,TALKING,HF,target,right,yellow,imageability,conservative,no,9,1,0.88238485723,-,-
2019_Oct_11,121,001,3,source,33,ALLOWED,HF,target,right,yellow,imageability,liberal,no,1,0,0.847284789189,-,-
2019_Oct_11,121,001,3,source,34,INVOLVED,HF,target,right,yellow,imageability,liberal,no,3,0,2.10624604068,-,-
2019_Oct_11,121,001,3,source,35,WANTED,HF,target,right,yellow,imageability,conservative,no,8,1,1.58862085298,-,-
2019_Oct_11,121,001,3,source,36,BEFALL,LF,target,left,aqua,pleasantness,conservative,no,7,0,1.10628600045,-,-
2019_Oct_11,121,001,3,source,37,SEMANTIC,LF,target,left,aqua,pleasantness,liberal,no,7,0,1.25911522489,-,-
2019_Oct_11,121,001,3,source,38,LEARN,HF,target,right,yellow,imageability,conservative,no,1,0,1.02384461298,-,-
2019_Oct_11,121,001,3,source,39,TIPSY,LF,target,left,aqua,pleasantness,conservative,no,1,1,1.10624310786,-,-
2019_Oct_11,121,001,3,source,40,VAINLY,LF,target,left,aqua,pleasantness,liberal,no,1,1,0.870659050116,-,-
2019_Oct_11,121,001,3,source,41,VOUCH,LF,target,left,aqua,pleasantness,liberal,no,1,1,0.753271568007,-,-
2019_Oct_11,121,001,3,source,42,STOOD,HF,target,left,aqua,pleasantness,liberal,no,2,1,4.1768362427,-,-
2019_Oct_11,121,001,3,source,43,OUGHT,HF,target,right,yellow,imageability,conservative,no,8,1,1.17656752247,-,-
2019_Oct_11,121,001,3,source,44,EDUCATION,HF,target,left,aqua,pleasantness,liberal,no,1,1,1.57681989219,-,-
2019_Oct_11,121,001,3,source,45,WINDOW,HF,target,right,yellow,imageability,liberal,no,9,1,3.64756370099,-,-
2019_Oct_11,121,001,3,source,46,MYTHIC,LF,target,left,aqua,pleasantness,conservative,no,2,1,1.68269053108,-,-
2019_Oct_11,121,001,3,source,47,DEEPEN,LF,target,left,aqua,pleasantness,conservative,no,9,0,1.24718631954,-,-
2019_Oct_11,121,001,3,recog,0,WOODCOCK,LF,lure,-,-,-,liberal,no,m,1,3.01214813414,1,429
2019_Oct_11,121,001,3,recog,1,DOUBT,HF,lure,-,-,-,liberal,no,m,1,1.57671284402,1,430
2019_Oct_11,121,001,3,recog,2,TIPSY,LF,target,left,aqua,pleasantness,conservative,no,z,1,0.741553826165,1,431
2019_Oct_11,121,001,3,recog,3,CHURCH,HF,lure,-,-,-,liberal,no,m,1,0.859075851693,1,432
2019_Oct_11,121,001,3,recog,4,AMONG,HF,target,left,aqua,pleasantness,liberal,no,z,1,0.917873524788,3,435
2019_Oct_11,121,001,3,recog,5,BASIC,HF,lure,-,-,-,liberal,no,m,1,0.647294614157,1,436
2019_Oct_11,121,001,3,recog,6,ALONE,HF,lure,-,-,-,liberal,no,m,1,1.98856417611,1,437
2019_Oct_11,121,001,3,recog,7,HAWKED,LF,target,right,yellow,imageability,conservative,no,z,1,0.870840518758,1,438
2019_Oct_11,121,001,3,recog,8,INVOLVED,HF,target,right,yellow,imageability,liberal,no,z,1,1.02381235189,3,441
2019_Oct_11,121,001,3,recog,9,CLOSE,HF,target,right,yellow,imageability,liberal,no,z,1,1.6709691232,3,444
2019_Oct_11,121,001,3,recog,10,OUGHT,HF,target,right,yellow,imageability,conservative,no,z,1,2.78858939842,1,445
2019_Oct_11,121,001,3,recog,11,STOOD,HF,target,left,aqua,pleasantness,liberal,no,m,0,2.21217936874,-3,442
2019_Oct_11,121,001,3,recog,12,HORDE,LF,target,right,yellow,imageability,conservative,no,z,1,1.68263884001,1,443
2019_Oct_11,121,001,3,recog,13,PIANOS,LF,lure,-,-,-,conservative,yes,m,1,1.00024819045,3,446
2019_Oct_11,121,001,3,recog,14,SNOBBISH,LF,lure,-,-,-,liberal,no,m,1,1.28256830553,1,447
2019_Oct_11,121,001,3,recog,15,GORGED,LF,target,left,aqua,pleasantness,liberal,no,z,1,0.905959650172,3,450
2019_Oct_11,121,001,3,recog,16,SILENCER,LF,target,right,yellow,imageability,liberal,no,z,1,0.81202928134,3,453
2019_Oct_11,121,001,3,recog,17,REQUIRED,HF,lure,-,-,-,conservative,no,m,1,1.49450314986,3,456
2019_Oct_11,121,001,3,recog,18,SOUND,HF,lure,-,-,-,liberal,no,z,0,2.75313189214,-1,455
2019_Oct_11,121,001,3,recog,19,GUMMED,LF,target,left,aqua,pleasantness,liberal,no,z,1,1.56504386042,3,458
2019_Oct_11,121,001,3,recog,20,PIPELINES,LF,lure,-,-,-,liberal,no,m,1,1.82374702318,1,459
2019_Oct_11,121,001,3,recog,21,FEELING,HF,lure,-,-,-,conservative,no,z,0,1.52974655979,-3,456
2019_Oct_11,121,001,3,recog,22,WANTED,HF,target,right,yellow,imageability,conservative,no,z,1,2.07088788391,1,457
2019_Oct_11,121,001,3,recog,23,KITCHEN,HF,lure,-,-,-,conservative,no,m,1,1.30612110227,3,460
2019_Oct_11,121,001,3,recog,24,SLOWLY,HF,lure,-,-,-,liberal,no,m,1,1.47068273269,1,461
2019_Oct_11,121,001,3,recog,25,MEMBERS,HF,target,left,aqua,pleasantness,liberal,no,z,1,1.51799435724,3,464
2019_Oct_11,121,001,3,recog,26,LADDIE,LF,target,right,yellow,imageability,conservative,no,z,1,0.964974719036,1,465
2019_Oct_11,121,001,3,recog,27,DESERTER,LF,lure,-,-,-,conservative,no,m,1,0.823692032684,3,468
2019_Oct_11,121,001,3,recog,28,ABUSING,LF,lure,-,-,-,conservative,no,z,0,1.21207268717,-3,465
2019_Oct_11,121,001,3,recog,29,CAKED,LF,target,right,yellow,imageability,conservative,no,z,1,1.74168030431,1,466
2019_Oct_11,121,001,3,recog,30,ITSELF,HF,target,left,aqua,pleasantness,conservative,no,z,1,1.27108922245,1,467
2019_Oct_11,121,001,3,recog,31,TENABLE,LF,lure,-,-,-,liberal,no,m,1,1.48258340959,1,468
2019_Oct_11,121,001,3,recog,32,ALLOWED,HF,target,right,yellow,imageability,liberal,no,m,0,0.882589421881,-3,465
2019_Oct_11,121,001,3,recog,33,MATERIAL,HF,lure,-,-,-,liberal,no,m,1,0.953210418573,1,466
2019_Oct_11,121,001,3,recog,34,NOSTRIL,LF,lure,-,-,-,conservative,no,m,1,1.52971833134,3,469
2019_Oct_11,121,001,3,recog,35,SEGMENTED,LF,target,right,yellow,imageability,liberal,no,z,1,0.929511347106,3,472
2019_Oct_11,121,001,3,recog,36,VAINLY,LF,target,left,aqua,pleasantness,liberal,no,z,1,0.564941944699,3,475
2019_Oct_11,121,001,3,recog,37,CAUGHT,HF,lure,-,-,-,liberal,no,z,0,0.529602118087,-1,474
2019_Oct_11,121,001,3,recog,38,CUISINE,LF,target,right,yellow,imageability,conservative,no,z,1,1.1886155739,1,475
2019_Oct_11,121,001,3,recog,39,SYSTEM,HF,lure,-,-,-,conservative,no,m,1,1.09415582987,3,478
2019_Oct_11,121,001,3,recog,40,EXPECT,HF,target,left,aqua,pleasantness,conservative,no,z,1,1.51787411135,1,479
2019_Oct_11,121,001,3,recog,41,LIFEBOAT,LF,target,right,yellow,imageability,liberal,no,m,0,1.81204871132,-3,476
2019_Oct_11,121,001,3,recog,42,DAUGHTER,HF,target,right,yellow,imageability,conservative,no,z,1,2.14150301495,1,477
2019_Oct_11,121,001,3,recog,43,TALKING,HF,target,right,yellow,imageability,conservative,no,z,1,1.18858661223,1,478
2019_Oct_11,121,001,3,recog,44,TREES,HF,lure,-,-,-,conservative,no,m,1,1.88269023779,3,481
2019_Oct_11,121,001,3,recog,45,ANYONE,HF,target,left,aqua,pleasantness,liberal,no,z,1,2.27100013784,3,484
2019_Oct_11,121,001,3,recog,46,MYOPIC,LF,target,right,yellow,imageability,liberal,no,z,1,0.835494093287,3,487
2019_Oct_11,121,001,3,recog,47,BICEPS,LF,lure,-,-,-,conservative,no,m,1,1.23564711351,3,490
2019_Oct_11,121,001,3,recog,48,CIVILITY,LF,lure,-,-,-,conservative,no,m,1,1.082854916,3,493
2019_Oct_11,121,001,3,recog,49,DIFFERENT,HF,target,right,yellow,imageability,liberal,no,z,1,2.2708963891,3,496
2019_Oct_11,121,001,3,recog,50,BEFALL,LF,target,left,aqua,pleasantness,conservative,no,z,1,1.31793012834,1,497
2019_Oct_11,121,001,3,recog,51,IDEAS,HF,lure,-,-,-,conservative,no,z,0,0.835633769151,-3,494
2019_Oct_11,121,001,3,recog,52,MOTHER,HF,lure,-,-,-,conservative,no,z,0,2.35324355951,-3,491
2019_Oct_11,121,001,3,recog,53,CAGED,LF,lure,-,-,-,conservative,no,m,1,1.07087431958,3,494
2019_Oct_11,121,001,3,recog,54,OBVIOUSLY,HF,lure,-,-,-,conservative,no,m,1,1.18870319209,3,497
2019_Oct_11,121,001,3,recog,55,REBATE,LF,lure,-,-,-,conservative,no,m,1,1.29431720865,3,500
2019_Oct_11,121,001,3,recog,56,TOOTHACHE,LF,target,right,yellow,imageability,liberal,yes,m,0,1.72973710143,-3,497
2019_Oct_11,121,001,3,recog,57,GROUND,HF,target,right,yellow,imageability,liberal,no,z,1,0.988463726801,3,500
2019_Oct_11,121,001,3,recog,58,UPSTART,LF,lure,-,-,-,liberal,no,m,1,1.29443965416,1,501
2019_Oct_11,121,001,3,recog,59,ONCOMING,LF,target,left,aqua,pleasantness,liberal,no,z,1,1.04709532859,3,504
2019_Oct_11,121,001,3,recog,60,SEMANTIC,LF,target,left,aqua,pleasantness,liberal,no,z,1,1.03560964665,3,507
2019_Oct_11,121,001,3,recog,61,SUCCESS,HF,lure,-,-,-,liberal,no,z,0,1.40034292074,-1,506
2019_Oct_11,121,001,3,recog,62,ALABASTER,LF,lure,-,-,-,liberal,no,z,0,1.49451561437,-1,505
2019_Oct_11,121,001,3,recog,63,INORGANIC,LF,lure,-,-,-,liberal,no,m,1,1.34142170233,1,506
2019_Oct_11,121,001,3,recog,64,VIBRATE,LF,lure,-,-,-,conservative,no,m,1,1.34152618428,3,509
2019_Oct_11,121,001,3,recog,65,SEEMED,HF,lure,-,-,-,conservative,no,z,0,1.27112221675,-3,506
2019_Oct_11,121,001,3,recog,66,HOTEL,HF,lure,-,-,-,liberal,no,m,1,3.00013381021,1,507
2019_Oct_11,121,001,3,recog,67,WINDOW,HF,target,right,yellow,imageability,liberal,no,z,1,0.870921171488,3,510
2019_Oct_11,121,001,3,recog,68,HERSELF,HF,lure,-,-,-,liberal,no,m,1,2.08262432252,1,511
2019_Oct_11,121,001,3,recog,69,EDUCATION,HF,target,left,aqua,pleasantness,liberal,no,m,0,1.72979465815,-3,508
2019_Oct_11,121,001,3,recog,70,QUESTION,HF,lure,-,-,-,conservative,no,m,1,4.37677692628,3,511
2019_Oct_11,121,001,3,recog,71,JEOPARDY,LF,target,right,yellow,imageability,conservative,no,z,1,0.835365415523,1,512
2019_Oct_11,121,001,3,recog,72,MIMICKED,LF,target,left,aqua,pleasantness,conservative,no,z,1,0.835664197226,1,513
2019_Oct_11,121,001,3,recog,73,TODAY,HF,lure,-,-,-,conservative,yes,m,1,1.75322940862,3,516
2019_Oct_11,121,001,3,recog,74,HEMMED,LF,lure,-,-,-,liberal,no,m,1,2.87084308498,1,517
2019_Oct_11,121,001,3,recog,75,DEEPEN,LF,target,left,aqua,pleasantness,conservative,no,m,0,0.964998914854,-1,516
2019_Oct_11,121,001,3,recog,76,KIDNAP,LF,target,left,aqua,pleasantness,conservative,no,z,1,1.09418479154,1,517
2019_Oct_11,121,001,3,recog,77,EMBATTLED,LF,target,right,yellow,imageability,liberal,no,m,0,1.3177046673,-3,514
2019_Oct_11,121,001,3,recog,78,MYTHIC,LF,target,left,aqua,pleasantness,conservative,no,z,1,1.07086772072,1,515
2019_Oct_11,121,001,3,recog,79,TRIED,HF,lure,-,-,-,conservative,no,m,1,1.50622749056,3,518
2019_Oct_11,121,001,3,recog,80,VOUCH,LF,target,left,aqua,pleasantness,liberal,no,z,1,0.882729097745,3,521
2019_Oct_11,121,001,3,recog,81,COPIOUSLY,LF,lure,-,-,-,liberal,yes,m,1,1.05911735119,1,522
2019_Oct_11,121,001,3,recog,82,AHEAD,HF,lure,-,-,-,liberal,no,z,0,2.04738421201,-1,521
2019_Oct_11,121,001,3,recog,83,AFTERNOON,HF,target,left,aqua,pleasantness,conservative,no,z,1,1.17651546479,1,522
2019_Oct_11,121,001,3,recog,84,DILATED,LF,lure,-,-,-,conservative,no,m,1,2.14127132165,3,525
2019_Oct_11,121,001,3,recog,85,PEACEABLY,LF,lure,-,-,-,conservative,no,z,0,1.47080847763,-3,522
2019_Oct_11,121,001,3,recog,86,ECHELONS,LF,lure,-,-,-,liberal,no,m,1,1.98858360609,1,523
2019_Oct_11,121,001,3,recog,87,SIPHON,LF,lure,-,-,-,liberal,no,m,1,0.765014238873,1,524
2019_Oct_11,121,001,3,recog,88,TOYED,LF,lure,-,-,-,conservative,no,m,1,1.20030875331,3,527
2019_Oct_11,121,001,3,recog,89,TELEPHONE,HF,target,left,aqua,pleasantness,conservative,no,z,1,1.16503418209,1,528
2019_Oct_11,121,001,3,recog,90,REPORT,HF,target,left,aqua,pleasantness,conservative,no,z,1,1.08258289634,1,529
2019_Oct_11,121,001,3,recog,91,MAJOR,HF,target,left,aqua,pleasantness,conservative,no,z,1,1.18860054316,1,530
2019_Oct_11,121,001,3,recog,92,LEARN,HF,target,right,yellow,imageability,conservative,no,None,-1,-1,-1,529
2019_Oct_11,121,001,3,recog,93,DRINK,HF,target,right,yellow,imageability,conservative,no,m,0,4.30636342707,-1,528
2019_Oct_11,121,001,3,recog,94,MESSED,LF,lure,-,-,-,liberal,no,m,1,2.44743971575,1,529
2019_Oct_11,121,001,3,recog,95,EXACTLY,HF,target,left,aqua,pleasantness,liberal,no,m,0,1.71801422714,-3,526
2019_Oct_11,121,001,4,source,0,PAINTWORK,LF,target,left,aqua,pleasantness,liberal,no,1,1,3.96503997443,-,-
2019_Oct_11,121,001,4,source,1,EBULLIENT,LF,target,right,yellow,imageability,liberal,no,8,1,3.08273173729,-,-
2019_Oct_11,121,001,4,source,2,HUMAN,HF,target,left,aqua,pleasantness,conservative,no,1,1,1.00031491225,-,-
2019_Oct_11,121,001,4,source,3,GNOMES,LF,target,left,aqua,pleasantness,conservative,no,3,1,3.14133841006,-,-
2019_Oct_11,121,001,4,source,4,INCLUDING,HF,target,right,yellow,imageability,conservative,no,7,1,0.835535886066,-,-
2019_Oct_11,121,001,4,source,5,MUMBLES,LF,target,right,yellow,imageability,conservative,no,1,0,1.29441399193,-,-
2019_Oct_11,121,001,4,source,6,VIVACIOUS,LF,target,right,yellow,imageability,liberal,no,9,1,1.29445835093,-,-
2019_Oct_11,121,001,4,source,7,PHOBIC,LF,target,left,aqua,pleasantness,conservative,no,1,1,2.84741236714,-,-
2019_Oct_11,121,001,4,source,8,SOLEMNITY,LF,target,right,yellow,imageability,liberal,no,3,0,1.47061601089,-,-
2019_Oct_11,121,001,4,source,9,COGENT,LF,target,left,aqua,pleasantness,conservative,no,8,0,1.30614383168,-,-
2019_Oct_11,121,001,4,source,10,COMES,HF,target,right,yellow,imageability,conservative,no,9,1,1.78848491647,-,-
2019_Oct_11,121,001,4,source,11,CASES,HF,target,right,yellow,imageability,conservative,no,9,1,0.976748551183,-,-
2019_Oct_11,121,001,4,source,12,MOVED,HF,target,left,aqua,pleasantness,liberal,no,1,1,1.02394799512,-,-
2019_Oct_11,121,001,4,source,13,SUDDENLY,HF,target,right,yellow,imageability,conservative,no,1,0,1.37675383027,-,-
2019_Oct_11,121,001,4,source,14,SUGARY,LF,target,right,yellow,imageability,conservative,yes,7,1,1.04740034255,-,-
2019_Oct_11,121,001,4,source,15,NIGHT,HF,target,left,aqua,pleasantness,conservative,no,1,1,0.870917505455,-,-
2019_Oct_11,121,001,4,source,16,PADDLE,LF,target,left,aqua,pleasantness,liberal,no,1,1,0.847369841158,-,-
2019_Oct_11,121,001,4,source,17,CLEAR,HF,target,left,aqua,pleasantness,conservative,no,1,1,0.61208126569,-,-
2019_Oct_11,121,001,4,source,18,SUBJECT,HF,target,left,aqua,pleasantness,liberal,no,1,1,0.917945012435,-,-
2019_Oct_11,121,001,4,source,19,ECONOMIC,HF,target,left,aqua,pleasantness,liberal,no,1,1,0.941235687807,-,-
2019_Oct_11,121,001,4,source,20,BAYING,LF,target,right,yellow,imageability,conservative,no,1,0,0.741481605312,-,-
2019_Oct_11,121,001,4,source,21,PILGRIM,LF,target,left,aqua,pleasantness,liberal,no,9,0,0.894381217592,-,-
2019_Oct_11,121,001,4,source,22,MOUTH,HF,target,right,yellow,imageability,liberal,yes,8,1,1.27062473605,-,-
2019_Oct_11,121,001,4,source,23,VANDALS,LF,target,left,aqua,pleasantness,liberal,no,3,1,1.94150550785,-,-
2019_Oct_11,121,001,4,source,24,INTEREST,HF,target,left,aqua,pleasantness,liberal,no,8,0,2.62360874041,-,-
2019_Oct_11,121,001,4,source,25,HYACINTHS,LF,target,left,aqua,pleasantness,liberal,no,7,0,3.76516747906,-,-
2019_Oct_11,121,001,4,source,26,DOODLE,LF,target,left,aqua,pleasantness,liberal,no,1,1,3.51806987753,-,-
2019_Oct_11,121,001,4,source,27,UDDER,LF,target,right,yellow,imageability,conservative,no,9,1,0.882748527721,-,-
2019_Oct_11,121,001,4,source,28,PREPARED,HF,target,left,aqua,pleasantness,conservative,no,1,1,1.07096780343,-,-
2019_Oct_11,121,001,4,source,29,LUMBER,LF,target,right,yellow,imageability,liberal,no,9,1,0.964973985829,-,-
2019_Oct_11,121,001,4,source,30,FOLLOWED,HF,target,left,aqua,pleasantness,conservative,no,1,1,0.917868758945,-,-
2019_Oct_11,121,001,4,source,31,TOADS,LF,target,left,aqua,pleasantness,conservative,no,1,1,0.800342700782,-,-
2019_Oct_11,121,001,4,source,32,PETERED,LF,target,right,yellow,imageability,conservative,no,1,0,2.21188535288,-,-
2019_Oct_11,121,001,4,source,33,BEGAN,HF,target,right,yellow,imageability,liberal,no,1,0,1.1883618844,-,-
2019_Oct_11,121,001,4,source,34,CANNOT,HF,target,right,yellow,imageability,liberal,no,9,1,1.25912622299,-,-
2019_Oct_11,121,001,4,source,35,PIVOT,LF,target,left,aqua,pleasantness,conservative,no,1,1,0.83527669752,-,-
2019_Oct_11,121,001,4,source,36,BEREAVED,LF,target,left,aqua,pleasantness,conservative,no,9,0,0.988322584524,-,-
2019_Oct_11,121,001,4,source,37,SECOND,HF,target,right,yellow,imageability,liberal,yes,8,1,0.647352170878,-,-
2019_Oct_11,121,001,4,source,38,PICTURE,HF,target,left,aqua,pleasantness,conservative,no,1,1,0.988561243284,-,-
2019_Oct_11,121,001,4,source,39,AFRAID,HF,target,right,yellow,imageability,conservative,no,9,1,0.976565616128,-,-
2019_Oct_11,121,001,4,source,40,SMALL,HF,target,right,yellow,imageability,conservative,no,9,1,0.764796476502,-,-
2019_Oct_11,121,001,4,source,41,SENSE,HF,target,right,yellow,imageability,liberal,no,9,1,1.98852751578,-,-
2019_Oct_11,121,001,4,source,42,AVUNCULAR,LF,target,right,yellow,imageability,conservative,no,9,1,1.03554512447,-,-
2019_Oct_11,121,001,4,source,43,OPENED,HF,target,left,aqua,pleasantness,liberal,no,1,1,1.50619852889,-,-
2019_Oct_11,121,001,4,source,44,ASCEND,LF,target,right,yellow,imageability,liberal,no,9,1,1.0239681583,-,-
2019_Oct_11,121,001,4,source,45,CRUCIALLY,LF,target,right,yellow,imageability,liberal,yes,3,0,1.27086449462,-,-
2019_Oct_11,121,001,4,source,46,DURING,HF,target,left,aqua,pleasantness,liberal,no,1,1,1.34152361805,-,-
2019_Oct_11,121,001,4,source,47,FRONT,HF,target,right,yellow,imageability,liberal,no,9,1,1.97688859365,-,-
2019_Oct_11,121,001,4,recog,0,DIETING,LF,lure,-,-,-,liberal,no,m,1,1.41206176239,1,527
2019_Oct_11,121,001,4,recog,1,FOUND,HF,lure,-,-,-,liberal,no,m,1,4.2003296497,1,528
2019_Oct_11,121,001,4,recog,2,VANDALS,LF,target,left,aqua,pleasantness,liberal,no,z,1,1.0473941103,3,531
2019_Oct_11,121,001,4,recog,3,YONDER,LF,lure,-,-,-,conservative,no,m,1,0.835585744117,3,534
2019_Oct_11,121,001,4,recog,4,SUGARY,LF,target,right,yellow,imageability,conservative,no,z,1,1.1885059595,1,535
2019_Oct_11,121,001,4,recog,5,GNOMES,LF,target,left,aqua,pleasantness,conservative,no,m,0,1.25911192546,-1,534
2019_Oct_11,121,001,4,recog,6,HARDLY,HF,lure,-,-,-,liberal,no,m,1,3.91797580711,1,535
2019_Oct_11,121,001,4,recog,7,MYSELF,HF,lure,-,-,-,conservative,no,m,1,2.14154627414,3,538
2019_Oct_11,121,001,4,recog,8,SHUNNED,LF,lure,-,-,-,conservative,no,m,1,1.10621927864,3,541
2019_Oct_11,121,001,4,recog,9,CASES,HF,target,right,yellow,imageability,conservative,no,z,1,0.612069900988,1,542
2019_Oct_11,121,001,4,recog,10,AVIDLY,LF,lure,-,-,-,liberal,no,z,0,0.894458937496,-1,541
2019_Oct_11,121,001,4,recog,11,CANNOT,HF,target,right,yellow,imageability,liberal,no,z,1,2.07066498909,3,544
2019_Oct_11,121,001,4,recog,12,OPENED,HF,target,left,aqua,pleasantness,liberal,no,z,1,0.812043212266,3,547
2019_Oct_11,121,001,4,recog,13,DURING,HF,target,left,aqua,pleasantness,liberal,no,z,1,0.682634807372,3,550
2019_Oct_11,121,001,4,recog,14,FAMILY,HF,lure,-,-,-,conservative,no,m,1,0.941486077872,3,553
2019_Oct_11,121,001,4,recog,15,MAVIS,LF,lure,-,-,-,liberal,no,m,1,1.44727034502,1,554
2019_Oct_11,121,001,4,recog,16,SOLEMNITY,LF,target,right,yellow,imageability,liberal,no,z,1,0.776762408789,3,557
2019_Oct_11,121,001,4,recog,17,MOVED,HF,target,left,aqua,pleasantness,liberal,no,z,1,1.48261567068,3,560
2019_Oct_11,121,001,4,recog,18,UTILIZE,LF,lure,-,-,-,conservative,no,m,1,0.965033375566,3,563
2019_Oct_11,121,001,4,recog,19,LOCAL,HF,lure,-,-,-,conservative,yes,z,0,0.812125698013,-3,560
2019_Oct_11,121,001,4,recog,20,TRYING,HF,lure,-,-,-,liberal,no,m,1,2.40034365395,1,561
2019_Oct_11,121,001,4,recog,21,CLEAR,HF,target,left,aqua,pleasantness,conservative,no,z,1,2.43560686047,1,562
2019_Oct_11,121,001,4,recog,22,THEORY,HF,lure,-,-,-,conservative,no,m,1,1.77674004599,3,565
2019_Oct_11,121,001,4,recog,23,PADDLE,LF,target,left,aqua,pleasantness,liberal,no,z,1,0.694421470636,3,568
2019_Oct_11,121,001,4,recog,24,MIGHTILY,LF,lure,-,-,-,conservative,no,m,1,1.24705067631,3,571
2019_Oct_11,121,001,4,recog,25,GARDEN,HF,lure,-,-,-,liberal,no,z,0,0.917940246592,-1,570
2019_Oct_11,121,001,4,recog,26,AVUNCULAR,LF,target,right,yellow,imageability,conservative,no,z,1,1.80039219223,1,571
2019_Oct_11,121,001,4,recog,27,FOLLOWED,HF,target,left,aqua,pleasantness,conservative,no,z,1,1.36500932639,1,572
2019_Oct_11,121,001,4,recog,28,SUDDENLY,HF,target,right,yellow,imageability,conservative,no,z,1,1.55326709545,1,573
2019_Oct_11,121,001,4,recog,29,PETERED,LF,target,right,yellow,imageability,conservative,no,z,1,0.729674045658,1,574
2019_Oct_11,121,001,4,recog,30,MOUTH,HF,target,right,yellow,imageability,liberal,no,z,1,0.917853361606,3,577
2019_Oct_11,121,001,4,recog,31,PENALIZED,LF,lure,-,-,-,liberal,no,m,1,1.02356929389,1,578
2019_Oct_11,121,001,4,recog,32,PILGRIM,LF,target,left,aqua,pleasantness,liberal,no,z,1,0.706154609817,3,581
2019_Oct_11,121,001,4,recog,33,BEGAN,HF,target,right,yellow,imageability,liberal,no,z,1,0.800432885198,3,584
2019_Oct_11,121,001,4,recog,34,ECONOMIC,HF,target,left,aqua,pleasantness,liberal,no,z,1,0.823854437953,3,587
2019_Oct_11,121,001,4,recog,35,PIVOT,LF,target,left,aqua,pleasantness,conservative,no,z,1,0.694342650923,1,588
2019_Oct_11,121,001,4,recog,36,COGENT,LF,target,left,aqua,pleasantness,conservative,no,z,1,0.976779345862,1,589
2019_Oct_11,121,001,4,recog,37,PISTONS,LF,lure,-,-,-,liberal,no,m,1,0.753282932709,1,590
2019_Oct_11,121,001,4,recog,38,VIVACIOUS,LF,target,right,yellow,imageability,liberal,no,z,1,1.04735488374,3,593
2019_Oct_11,121,001,4,recog,39,SYMBOLIZE,LF,lure,-,-,-,conservative,no,m,1,0.894451972033,3,596
2019_Oct_11,121,001,4,recog,40,TOADS,LF,target,left,aqua,pleasantness,conservative,no,z,1,0.600301934492,1,597
2019_Oct_11,121,001,4,recog,41,SHALL,HF,lure,-,-,-,liberal,no,m,1,0.729731968982,1,598
2019_Oct_11,121,001,4,recog,42,NIGHT,HF,target,left,aqua,pleasantness,conservative,no,z,1,0.706126381362,1,599
2019_Oct_11,121,001,4,recog,43,PREPARED,HF,target,left,aqua,pleasantness,conservative,no,m,0,0.882759892424,-1,598
2019_Oct_11,121,001,4,recog,44,CRUCIALLY,LF,target,right,yellow,imageability,liberal,no,m,0,1.89444207374,-3,595
2019_Oct_11,121,001,4,recog,45,ORCHARDS,LF,lure,-,-,-,conservative,no,z,0,1.65910327362,-3,592
2019_Oct_11,121,001,4,recog,46,SECOND,HF,target,right,yellow,imageability,liberal,no,z,1,0.788576200699,3,595
2019_Oct_11,121,001,4,recog,47,MOISTENED,LF,lure,-,-,-,liberal,no,m,1,0.753025943784,1,596
2019_Oct_11,121,001,4,recog,48,YEARN,LF,lure,-,-,-,liberal,no,m,1,0.976802808475,1,597
2019_Oct_11,121,001,4,recog,49,SYNDICATE,LF,lure,-,-,-,liberal,no,m,1,0.964982784308,1,598
2019_Oct_11,121,001,4,recog,50,MUSIC,HF,lure,-,-,-,conservative,no,m,1,0.87089147662,3,601
2019_Oct_11,121,001,4,recog,51,ASCEND,LF,target,right,yellow,imageability,liberal,no,z,1,1.09434536379,3,604
2019_Oct_11,121,001,4,recog,52,HUMAN,HF,target,left,aqua,pleasantness,conservative,no,z,1,1.10631166268,1,605
2019_Oct_11,121,001,4,recog,53,BOTANIST,LF,lure,-,-,-,liberal,no,m,1,0.776573241477,1,606
2019_Oct_11,121,001,4,recog,54,SMALL,HF,target,right,yellow,imageability,conservative,no,z,1,0.670577590859,1,607
2019_Oct_11,121,001,4,recog,55,UDDER,LF,target,right,yellow,imageability,conservative,no,z,1,0.941213691608,1,608
2019_Oct_11,121,001,4,recog,56,UPKEEP,LF,lure,-,-,-,conservative,no,z,0,1.38853242826,-3,605
2019_Oct_11,121,001,4,recog,57,PASSED,HF,lure,-,-,-,conservative,no,z,0,1.48269632341,-3,602
2019_Oct_11,121,001,4,recog,58,INCLUDING,HF,target,right,yellow,imageability,conservative,no,z,1,1.00028998322,1,603
2019_Oct_11,121,001,4,recog,59,AFRAID,HF,target,right,yellow,imageability,conservative,no,z,1,1.14148321837,1,604
2019_Oct_11,121,001,4,recog,60,SENSE,HF,target,right,yellow,imageability,liberal,no,z,1,1.18845903428,3,607
2019_Oct_11,121,001,4,recog,61,PHOBIC,LF,target,left,aqua,pleasantness,conservative,no,z,1,0.882643679172,1,608
2019_Oct_11,121,001,4,recog,62,COMES,HF,target,right,yellow,imageability,conservative,no,z,1,0.670888470473,1,609
2019_Oct_11,121,001,4,recog,63,BAYING,LF,target,right,yellow,imageability,conservative,no,z,1,1.02380282021,1,610
2019_Oct_11,121,001,4,recog,64,SOYBEAN,LF,lure,-,-,-,conservative,no,m,1,0.965007346731,3,613
2019_Oct_11,121,001,4,recog,65,MIDDLE,HF,lure,-,-,-,liberal,no,m,1,1.09430650384,1,614
2019_Oct_11,121,001,4,recog,66,DIGESTING,LF,lure,-,-,-,liberal,no,m,1,0.741505067924,1,615
2019_Oct_11,121,001,4,recog,67,FASCINATE,LF,lure,-,-,-,conservative,no,m,1,0.870906873959,3,618
2019_Oct_11,121,001,4,recog,68,FLICKS,LF,lure,-,-,-,liberal,no,m,1,1.02368294092,1,619
2019_Oct_11,121,001,4,recog,69,MUMBLES,LF,target,right,yellow,imageability,conservative,no,z,1,0.835620571432,1,620
2019_Oct_11,121,001,4,recog,70,GENERAL,HF,lure,-,-,-,liberal,no,m,1,0.906190243659,1,621
2019_Oct_11,121,001,4,recog,71,BEREAVED,LF,target,left,aqua,pleasantness,conservative,yes,m,0,0.894159789189,-1,620
2019_Oct_11,121,001,4,recog,72,FRONT,HF,target,right,yellow,imageability,liberal,no,z,1,1.30612110227,3,623
2019_Oct_11,121,001,4,recog,73,FIDDLED,LF,lure,-,-,-,liberal,no,z,0,0.870918971868,-1,622
2019_Oct_11,121,001,4,recog,74,OLDER,HF,lure,-,-,-,liberal,no,m,1,1.57673337381,1,623
2019_Oct_11,121,001,4,recog,75,SUBJECT,HF,target,left,aqua,pleasantness,liberal,no,z,1,1.2709180187,3,626
2019_Oct_11,121,001,4,recog,76,WAITING,HF,lure,-,-,-,conservative,yes,m,1,0.694387376528,3,629
2019_Oct_11,121,001,4,recog,77,FOAMING,LF,lure,-,-,-,conservative,no,m,1,1.0239018031,3,632
2019_Oct_11,121,001,4,recog,78,DECIDED,HF,lure,-,-,-,conservative,no,m,1,1.82381484479,3,635
2019_Oct_11,121,001,4,recog,79,PICTURE,HF,target,left,aqua,pleasantness,conservative,no,z,1,1.34150345487,1,636
2019_Oct_11,121,001,4,recog,80,MOMENT,HF,lure,-,-,-,conservative,no,z,0,1.21193961017,-3,633
2019_Oct_11,121,001,4,recog,81,CARRIED,HF,lure,-,-,-,liberal,no,m,1,1.20039307208,1,634
2019_Oct_11,121,001,4,recog,82,PUBLIC,HF,lure,-,-,-,conservative,no,m,1,0.894552787945,3,637
2019_Oct_11,121,001,4,recog,83,KNOWLEDGE,HF,lure,-,-,-,liberal,yes,z,0,1.16474493208,-1,636
2019_Oct_11,121,001,4,recog,84,INTEREST,HF,target,left,aqua,pleasantness,liberal,no,m,0,0.85921259473,-3,633
2019_Oct_11,121,001,4,recog,85,ROYALS,LF,lure,-,-,-,conservative,no,m,1,3.0238790737,3,636
2019_Oct_11,121,001,4,recog,86,RANGE,HF,lure,-,-,-,conservative,no,m,1,1.34144479834,3,639
2019_Oct_11,121,001,4,recog,87,HYACINTHS,LF,target,left,aqua,pleasantness,liberal,no,z,1,1.83562057143,3,642
2019_Oct_11,121,001,4,recog,88,LUMBER,LF,target,right,yellow,imageability,liberal,no,z,1,1.02373133256,3,645
2019_Oct_11,121,001,4,recog,89,MORNING,HF,lure,-,-,-,conservative,no,m,1,2.63557723892,3,648
2019_Oct_11,121,001,4,recog,90,APTLY,LF,lure,-,-,-,conservative,no,m,1,0.65905561519,3,651
2019_Oct_11,121,001,4,recog,91,EBULLIENT,LF,target,right,yellow,imageability,liberal,no,m,0,1.2591603171,-3,648
2019_Oct_11,121,001,4,recog,92,LIVED,HF,lure,-,-,-,liberal,no,m,1,1.04730465909,1,649
2019_Oct_11,121,001,4,recog,93,PAINTWORK,LF,target,left,aqua,pleasantness,liberal,no,z,1,0.882439481124,3,652
2019_Oct_11,121,001,4,recog,94,HUNDRED,HF,lure,-,-,-,liberal,no,m,1,1.11790512599,1,653
2019_Oct_11,121,001,4,recog,95,DOODLE,LF,target,left,aqua,pleasantness,liberal,no,z,1,0.917887822317,3,656
