date,subj,session,cycle,task,trial,item,wf,type,source,colour,encoding,bias,null,response,corr,rt,points,total
2019_Oct_17,122,001,0,source,0,MEMBERS,HF,target,right,aqua,imageability,liberal,no,7,1,1.95311915722,-,-
2019_Oct_17,122,001,0,source,1,SENSE,HF,target,left,yellow,pleasantness,liberal,no,1,1,1.74152406915,-,-
2019_Oct_17,122,001,0,source,2,VEGAN,LF,target,left,yellow,pleasantness,conservative,no,1,1,1.74133306742,-,-
2019_Oct_17,122,001,0,source,3,VOICE,HF,target,right,aqua,imageability,conservative,no,7,1,1.97678064203,-,-
2019_Oct_17,122,001,0,source,4,NEARLY,HF,target,right,aqua,imageability,liberal,no,7,1,1.76503781174,-,-
2019_Oct_17,122,001,0,source,5,TRIED,HF,target,left,yellow,pleasantness,liberal,yes,7,0,1.506275195,-,-
2019_Oct_17,122,001,0,source,6,JOLLITY,LF,target,left,yellow,pleasantness,liberal,yes,7,0,0.565043237512,-,-
2019_Oct_17,122,001,0,source,7,WHATEVER,HF,target,right,aqua,imageability,liberal,no,7,1,2.23598721865,-,-
2019_Oct_17,122,001,0,source,8,KITCHEN,HF,target,right,aqua,imageability,liberal,no,8,1,1.57686114871,-,-
2019_Oct_17,122,001,0,source,9,JUBILANT,LF,target,right,aqua,imageability,liberal,no,2,0,1.83567215745,-,-
2019_Oct_17,122,001,0,source,10,DEVELOPED,HF,target,left,yellow,pleasantness,conservative,no,2,1,1.67088202472,-,-
2019_Oct_17,122,001,0,source,11,LAGER,LF,target,left,yellow,pleasantness,conservative,no,1,1,1.41206441707,-,-
2019_Oct_17,122,001,0,source,12,SPACE,HF,target,left,yellow,pleasantness,liberal,no,1,1,1.57679882569,-,-
2019_Oct_17,122,001,0,source,13,TOOTHACHE,LF,target,right,aqua,imageability,liberal,no,7,1,2.612272356,-,-
2019_Oct_17,122,001,0,source,14,LIKELY,HF,target,left,yellow,pleasantness,liberal,no,2,1,1.92983930926,-,-
2019_Oct_17,122,001,0,source,15,PRACTICE,HF,target,left,yellow,pleasantness,liberal,no,9,0,2.4475386806,-,-
2019_Oct_17,122,001,0,source,16,THEORY,HF,target,right,aqua,imageability,conservative,no,7,1,2.02383855551,-,-
2019_Oct_17,122,001,0,source,17,JOVIAL,LF,target,right,aqua,imageability,liberal,no,3,0,2.70626976923,-,-
2019_Oct_17,122,001,0,source,18,BRING,HF,target,left,yellow,pleasantness,conservative,no,3,1,1.74145734686,-,-
2019_Oct_17,122,001,0,source,19,GAZELLE,LF,target,left,yellow,pleasantness,liberal,no,2,1,1.41215533536,-,-
2019_Oct_17,122,001,0,source,20,ADENOIDS,LF,target,right,aqua,imageability,liberal,no,1,0,1.64751749077,-,-
2019_Oct_17,122,001,0,source,21,TAKEN,HF,target,left,yellow,pleasantness,liberal,no,2,1,2.02382169164,-,-
2019_Oct_17,122,001,0,source,22,PUBLIC,HF,target,right,aqua,imageability,liberal,no,3,0,1.85897326856,-,-
2019_Oct_17,122,001,0,source,23,AUBURN,LF,target,right,aqua,imageability,conservative,yes,3,0,1.03532688791,-,-
2019_Oct_17,122,001,0,source,24,MISFITS,LF,target,left,yellow,pleasantness,liberal,no,2,1,2.42380864046,-,-
2019_Oct_17,122,001,0,source,25,DETACH,LF,target,right,aqua,imageability,liberal,no,2,0,1.3415114579,-,-
2019_Oct_17,122,001,0,source,26,DECIDED,HF,target,right,aqua,imageability,conservative,no,3,0,2.07083781204,-,-
2019_Oct_17,122,001,0,source,27,LULLED,LF,target,right,aqua,imageability,conservative,no,7,1,2.02393863895,-,-
2019_Oct_17,122,001,0,source,28,WAGGED,LF,target,left,yellow,pleasantness,liberal,no,2,1,1.85890691287,-,-
2019_Oct_17,122,001,0,source,29,TANGIER,LF,target,left,yellow,pleasantness,conservative,no,2,1,2.56515065307,-,-
2019_Oct_17,122,001,0,source,30,LOGGED,LF,target,right,aqua,imageability,conservative,no,2,0,2.25910246051,-,-
2019_Oct_17,122,001,0,source,31,SEVEN,HF,target,left,yellow,pleasantness,conservative,no,1,1,2.02386898381,-,-
2019_Oct_17,122,001,0,source,32,OFFER,HF,target,right,aqua,imageability,conservative,no,8,1,2.51806047826,-,-
2019_Oct_17,122,001,0,source,33,CICADAS,LF,target,left,yellow,pleasantness,conservative,no,1,1,1.67096341125,-,-
2019_Oct_17,122,001,0,source,34,BARBARIAN,LF,target,left,yellow,pleasantness,conservative,no,1,1,1.20042790253,-,-
2019_Oct_17,122,001,0,source,35,VAGABOND,LF,target,left,yellow,pleasantness,conservative,no,8,0,1.97673444967,-,-
2019_Oct_17,122,001,0,source,36,MAVIS,LF,target,right,aqua,imageability,conservative,no,2,0,1.48267749963,-,-
2019_Oct_17,122,001,0,source,37,CLEAR,HF,target,right,aqua,imageability,conservative,no,2,0,1.90598315665,-,-
2019_Oct_17,122,001,0,source,38,TOGETHER,HF,target,left,yellow,pleasantness,conservative,no,1,1,1.34151035809,-,-
2019_Oct_17,122,001,0,source,39,ABLAZE,LF,target,right,aqua,imageability,conservative,no,1,0,1.83567179084,-,-
2019_Oct_17,122,001,0,source,40,ARRIVED,HF,target,right,aqua,imageability,liberal,no,1,0,1.6003748913,-,-
2019_Oct_17,122,001,0,source,41,RIVER,HF,target,right,aqua,imageability,conservative,no,2,0,1.38833474354,-,-
2019_Oct_17,122,001,0,source,42,BLACK,HF,target,left,yellow,pleasantness,conservative,no,1,1,2.42385080015,-,-
2019_Oct_17,122,001,0,source,43,VETOED,LF,target,right,aqua,imageability,conservative,no,3,0,1.36483859804,-,-
2019_Oct_17,122,001,0,source,44,CHOICE,HF,target,left,yellow,pleasantness,conservative,no,2,1,1.5767016751,-,-
2019_Oct_17,122,001,0,source,45,RAVAGES,LF,target,left,yellow,pleasantness,liberal,no,2,1,2.04733176817,-,-
2019_Oct_17,122,001,0,source,46,TOILED,LF,target,right,aqua,imageability,liberal,no,7,1,1.78872092631,-,-
2019_Oct_17,122,001,0,source,47,CIRCUSES,LF,target,left,yellow,pleasantness,liberal,yes,7,0,1.05913648155,-,-
2019_Oct_17,122,001,0,recog,0,TAKEN,HF,target,left,yellow,pleasantness,liberal,no,z,1,1.94169498087,3,3
2019_Oct_17,122,001,0,recog,1,CRYPT,LF,lure,-,-,-,liberal,no,m,1,1.12956882734,1,4
2019_Oct_17,122,001,0,recog,2,VINEYARDS,LF,lure,-,-,-,liberal,no,m,1,1.63560902789,1,5
2019_Oct_17,122,001,0,recog,3,RADIAL,LF,lure,-,-,-,liberal,no,m,1,2.28281563677,1,6
2019_Oct_17,122,001,0,recog,4,GLOBULAR,LF,lure,-,-,-,liberal,no,m,1,1.24740809554,1,7
2019_Oct_17,122,001,0,recog,5,LOOKED,HF,lure,-,-,-,conservative,no,z,0,1.41209741161,-3,4
2019_Oct_17,122,001,0,recog,6,BEGAN,HF,lure,-,-,-,liberal,no,m,1,2.36510255436,1,5
2019_Oct_17,122,001,0,recog,7,PASSED,HF,lure,-,-,-,liberal,no,z,0,1.49439129472,-1,4
2019_Oct_17,122,001,0,recog,8,ESTRANGED,LF,lure,-,-,-,conservative,no,m,1,2.52972514815,3,7
2019_Oct_17,122,001,0,recog,9,LIKELY,HF,target,left,yellow,pleasantness,liberal,no,z,1,1.37681011715,3,10
2019_Oct_17,122,001,0,recog,10,CLEAR,HF,target,right,aqua,imageability,conservative,no,z,1,2.56517631549,1,11
2019_Oct_17,122,001,0,recog,11,OBVIOUSLY,HF,lure,-,-,-,liberal,no,z,0,2.74146137952,-1,10
2019_Oct_17,122,001,0,recog,12,VETOED,LF,target,right,aqua,imageability,conservative,no,z,1,1.45909850117,1,11
2019_Oct_17,122,001,0,recog,13,OMITTING,LF,lure,-,-,-,liberal,no,m,1,1.22385365968,1,12
2019_Oct_17,122,001,0,recog,14,VOICE,HF,target,right,aqua,imageability,conservative,no,z,1,1.65910260716,1,13
2019_Oct_17,122,001,0,recog,15,MEMBERS,HF,target,right,aqua,imageability,liberal,no,z,1,1.23570236578,3,16
2019_Oct_17,122,001,0,recog,16,ACCORDING,HF,lure,-,-,-,conservative,no,m,1,1.56521664215,3,19
2019_Oct_17,122,001,0,recog,17,LULLED,LF,target,right,aqua,imageability,conservative,no,z,1,1.01208260073,1,20
2019_Oct_17,122,001,0,recog,18,RIVER,HF,target,right,aqua,imageability,conservative,no,m,0,1.42377491271,-1,19
2019_Oct_17,122,001,0,recog,19,SEVEN,HF,target,left,yellow,pleasantness,conservative,no,z,1,1.25906323367,1,20
2019_Oct_17,122,001,0,recog,20,TWINE,LF,lure,-,-,-,conservative,no,m,1,2.00037100528,3,23
2019_Oct_17,122,001,0,recog,21,AUBURN,LF,target,right,aqua,imageability,conservative,no,z,1,1.07062884661,1,24
2019_Oct_17,122,001,0,recog,22,GALACTIC,LF,lure,-,-,-,conservative,no,m,1,3.41217513209,3,27
2019_Oct_17,122,001,0,recog,23,ALONE,HF,lure,-,-,-,liberal,no,z,0,2.42396078196,-1,26
2019_Oct_17,122,001,0,recog,24,CIRCUSES,LF,target,left,yellow,pleasantness,liberal,no,z,1,3.1768752997,3,29
2019_Oct_17,122,001,0,recog,25,GLASS,HF,lure,-,-,-,liberal,no,m,1,1.58846862806,1,30
2019_Oct_17,122,001,0,recog,26,BRING,HF,target,left,yellow,pleasantness,conservative,no,z,1,1.62385014026,1,31
2019_Oct_17,122,001,0,recog,27,DAPPER,LF,lure,-,-,-,conservative,no,m,1,1.3883505076,3,34
2019_Oct_17,122,001,0,recog,28,ARRIVED,HF,target,right,aqua,imageability,liberal,no,z,1,1.56494132104,3,37
2019_Oct_17,122,001,0,recog,29,TRIED,HF,target,left,yellow,pleasantness,liberal,no,m,0,3.04745788064,-3,34
2019_Oct_17,122,001,0,recog,30,LEMURS,LF,lure,-,-,-,conservative,no,z,0,1.600380757,-3,31
2019_Oct_17,122,001,0,recog,31,LOGGED,LF,target,right,aqua,imageability,conservative,no,z,1,1.88265564991,1,32
2019_Oct_17,122,001,0,recog,32,COUNCIL,HF,lure,-,-,-,conservative,no,z,0,1.47091457933,-3,29
2019_Oct_17,122,001,0,recog,33,NEARLY,HF,target,right,aqua,imageability,liberal,no,z,1,1.74164871519,3,32
2019_Oct_17,122,001,0,recog,34,STOOD,HF,lure,-,-,-,liberal,no,m,1,1.15303527776,1,33
2019_Oct_17,122,001,0,recog,35,WHATEVER,HF,target,right,aqua,imageability,liberal,no,z,1,1.18848497869,3,36
2019_Oct_17,122,001,0,recog,36,JUBILANT,LF,target,right,aqua,imageability,liberal,no,z,1,1.57667637928,3,39
2019_Oct_17,122,001,0,recog,37,OFFER,HF,target,right,aqua,imageability,conservative,no,z,1,1.45917732146,1,40
2019_Oct_17,122,001,0,recog,38,VAINLY,LF,lure,-,-,-,liberal,yes,z,0,1.36508422406,-1,39
2019_Oct_17,122,001,0,recog,39,ROSEBUD,LF,lure,-,-,-,conservative,no,m,1,2.80035040202,3,42
2019_Oct_17,122,001,0,recog,40,IDEAS,HF,lure,-,-,-,conservative,no,z,0,3.15334689287,-3,39
2019_Oct_17,122,001,0,recog,41,TOOTHACHE,LF,target,right,aqua,imageability,liberal,no,z,1,1.35322745263,3,42
2019_Oct_17,122,001,0,recog,42,GUILDHALL,LF,lure,-,-,-,liberal,yes,m,1,1.04736916198,1,43
2019_Oct_17,122,001,0,recog,43,WAGGED,LF,target,left,yellow,pleasantness,liberal,no,z,1,1.91796494073,3,46
2019_Oct_17,122,001,0,recog,44,GAZELLE,LF,target,left,yellow,pleasantness,liberal,no,z,1,0.953412442021,3,49
2019_Oct_17,122,001,0,recog,45,PUCKERED,LF,lure,-,-,-,liberal,no,m,1,0.859153638711,1,50
2019_Oct_17,122,001,0,recog,46,TEETERED,LF,lure,-,-,-,liberal,no,m,1,1.10591394144,1,51
2019_Oct_17,122,001,0,recog,47,ABLAZE,LF,target,right,aqua,imageability,conservative,no,m,0,2.09416861823,-1,50
2019_Oct_17,122,001,0,recog,48,VOWEL,LF,lure,-,-,-,conservative,no,m,1,2.17676935056,3,53
2019_Oct_17,122,001,0,recog,49,NUMBER,HF,lure,-,-,-,liberal,no,m,1,1.84737495436,1,54
2019_Oct_17,122,001,0,recog,50,NIGHT,HF,lure,-,-,-,conservative,no,m,1,2.71796926669,3,57
2019_Oct_17,122,001,0,recog,51,CICADAS,LF,target,left,yellow,pleasantness,conservative,no,z,1,1.03530892422,1,58
2019_Oct_17,122,001,0,recog,52,OCHRE,LF,lure,-,-,-,liberal,no,m,1,1.74131693676,1,59
2019_Oct_17,122,001,0,recog,53,EGGSHELL,LF,lure,-,-,-,conservative,no,m,1,1.16507645202,3,62
2019_Oct_17,122,001,0,recog,54,PUBLIC,HF,target,right,aqua,imageability,liberal,no,m,0,1.07086494088,-3,59
2019_Oct_17,122,001,0,recog,55,MISFITS,LF,target,left,yellow,pleasantness,liberal,no,z,1,1.24746455287,3,62
2019_Oct_17,122,001,0,recog,56,NORTH,HF,lure,-,-,-,conservative,no,m,1,0.964944033927,3,65
2019_Oct_17,122,001,0,recog,57,DECIDED,HF,target,right,aqua,imageability,conservative,no,z,1,1.09447363443,1,66
2019_Oct_17,122,001,0,recog,58,TIMES,HF,lure,-,-,-,liberal,no,m,1,1.07091993178,1,67
2019_Oct_17,122,001,0,recog,59,RAVAGES,LF,target,left,yellow,pleasantness,liberal,no,z,1,1.69451271463,3,70
2019_Oct_17,122,001,0,recog,60,BLACK,HF,target,left,yellow,pleasantness,conservative,no,z,1,1.05916067755,1,71
2019_Oct_17,122,001,0,recog,61,BUOYANCY,LF,lure,-,-,-,conservative,no,m,1,0.976951847034,3,74
2019_Oct_17,122,001,0,recog,62,CANNOT,HF,lure,-,-,-,conservative,no,m,1,1.0708418447,3,77
2019_Oct_17,122,001,0,recog,63,ADENOIDS,LF,target,right,aqua,imageability,liberal,no,z,1,0.82380292141,3,80
2019_Oct_17,122,001,0,recog,64,PRACTICE,HF,target,left,yellow,pleasantness,liberal,no,m,0,0.835621199212,-3,77
2019_Oct_17,122,001,0,recog,65,SENSE,HF,target,left,yellow,pleasantness,liberal,no,z,1,1.35314056701,3,80
2019_Oct_17,122,001,0,recog,66,ALTHOUGH,HF,lure,-,-,-,conservative,no,m,1,1.20034504957,3,83
2019_Oct_17,122,001,0,recog,67,ASHEN,LF,lure,-,-,-,liberal,no,m,1,0.941452287695,1,84
2019_Oct_17,122,001,0,recog,68,DETACH,LF,target,right,aqua,imageability,liberal,yes,m,0,1.4356962068,-3,81
2019_Oct_17,122,001,0,recog,69,REPORT,HF,lure,-,-,-,conservative,no,z,0,1.11798994326,-3,78
2019_Oct_17,122,001,0,recog,70,HAMLETS,LF,lure,-,-,-,liberal,no,z,0,1.60025537774,-1,77
2019_Oct_17,122,001,0,recog,71,MATERIAL,HF,lure,-,-,-,conservative,no,m,1,2.82389603934,3,80
2019_Oct_17,122,001,0,recog,72,VEGAN,LF,target,left,yellow,pleasantness,conservative,no,z,1,0.906215584861,1,81
2019_Oct_17,122,001,0,recog,73,QUESTION,HF,lure,-,-,-,liberal,no,m,1,1.85908398357,1,82
2019_Oct_17,122,001,0,recog,74,SPACE,HF,target,left,yellow,pleasantness,liberal,no,z,1,1.25906763294,3,85
2019_Oct_17,122,001,0,recog,75,JOLLITY,LF,target,left,yellow,pleasantness,liberal,no,z,1,1.82374059839,3,88
2019_Oct_17,122,001,0,recog,76,JOVIAL,LF,target,right,aqua,imageability,liberal,no,m,0,1.2357217959,-3,85
2019_Oct_17,122,001,0,recog,77,AREAS,HF,lure,-,-,-,liberal,no,m,1,1.87088466428,1,86
2019_Oct_17,122,001,0,recog,78,TOGETHER,HF,target,left,yellow,pleasantness,conservative,no,z,1,1.03562127253,1,87
2019_Oct_17,122,001,0,recog,79,DEVELOPED,HF,target,left,yellow,pleasantness,conservative,no,z,1,0.929749124178,1,88
2019_Oct_17,122,001,0,recog,80,SKETCHY,LF,lure,-,-,-,conservative,no,m,1,0.965067580151,3,91
2019_Oct_17,122,001,0,recog,81,BARBARIAN,LF,target,left,yellow,pleasantness,conservative,no,z,1,0.988546495173,1,92
2019_Oct_17,122,001,0,recog,82,TOILED,LF,target,right,aqua,imageability,liberal,yes,m,0,1.07097492268,-3,89
2019_Oct_17,122,001,0,recog,83,SLEEP,HF,lure,-,-,-,conservative,no,z,0,2.42388892718,-3,86
2019_Oct_17,122,001,0,recog,84,THEORY,HF,target,right,aqua,imageability,conservative,no,m,0,0.600141729882,-1,85
2019_Oct_17,122,001,0,recog,85,LAGER,LF,target,left,yellow,pleasantness,conservative,no,z,1,1.16492467713,1,86
2019_Oct_17,122,001,0,recog,86,CHOICE,HF,target,left,yellow,pleasantness,conservative,no,m,0,1.38845645674,-1,85
2019_Oct_17,122,001,0,recog,87,ECONOMIC,HF,lure,-,-,-,liberal,no,m,1,1.4355616624,1,86
2019_Oct_17,122,001,0,recog,88,PROBABLY,HF,lure,-,-,-,liberal,no,z,0,0.988334963508,-1,85
2019_Oct_17,122,001,0,recog,89,VAGABOND,LF,target,left,yellow,pleasantness,conservative,no,z,1,1.43553086749,1,86
2019_Oct_17,122,001,0,recog,90,MAVIS,LF,target,right,aqua,imageability,conservative,no,z,1,1.12950357148,1,87
2019_Oct_17,122,001,0,recog,91,KITCHEN,HF,target,right,aqua,imageability,liberal,no,m,0,0.78850719501,-3,84
2019_Oct_17,122,001,0,recog,92,MADDENED,LF,lure,-,-,-,conservative,no,m,1,1.7414661454,3,87
2019_Oct_17,122,001,0,recog,93,HERSELF,HF,lure,-,-,-,conservative,no,m,1,2.49454306961,3,90
2019_Oct_17,122,001,0,recog,94,TUCKER,LF,lure,-,-,-,conservative,no,z,0,2.14167452426,-3,87
2019_Oct_17,122,001,0,recog,95,TANGIER,LF,target,left,yellow,pleasantness,conservative,no,z,1,1.55304825562,1,88
2019_Oct_17,122,001,1,source,0,MAYBE,HF,target,right,aqua,imageability,liberal,no,7,1,1.62393592607,-,-
2019_Oct_17,122,001,1,source,1,UGLIEST,LF,target,left,yellow,pleasantness,liberal,no,7,0,1.16483192581,-,-
2019_Oct_17,122,001,1,source,2,SINCE,HF,target,left,yellow,pleasantness,conservative,no,7,0,1.45914432692,-,-
2019_Oct_17,122,001,1,source,3,NEWMARKET,LF,target,left,yellow,pleasantness,liberal,no,8,0,1.47084785704,-,-
2019_Oct_17,122,001,1,source,4,DANDELION,LF,target,left,yellow,pleasantness,liberal,no,2,1,1.72968929408,-,-
2019_Oct_17,122,001,1,source,5,APOSTLE,LF,target,right,aqua,imageability,liberal,no,9,1,2.38843116092,-,-
2019_Oct_17,122,001,1,source,6,RAPACIOUS,LF,target,left,yellow,pleasantness,liberal,no,7,0,1.29426730857,-,-
2019_Oct_17,122,001,1,source,7,UPSTART,LF,target,right,aqua,imageability,liberal,no,9,1,1.52972074887,-,-
2019_Oct_17,122,001,1,source,8,TABLE,HF,target,left,yellow,pleasantness,conservative,no,7,0,1.81210709001,-,-
2019_Oct_17,122,001,1,source,9,JARRED,LF,target,left,yellow,pleasantness,conservative,no,9,0,2.89423160114,-,-
2019_Oct_17,122,001,1,source,10,PIGLETS,LF,target,left,yellow,pleasantness,conservative,yes,7,0,1.24736043676,-,-
2019_Oct_17,122,001,1,source,11,NECESSARY,HF,target,left,yellow,pleasantness,conservative,no,8,0,1.07088767045,-,-
2019_Oct_17,122,001,1,source,12,DOTTY,LF,target,left,yellow,pleasantness,conservative,no,7,0,1.01184577325,-,-
2019_Oct_17,122,001,1,source,13,CHURCH,HF,target,left,yellow,pleasantness,liberal,no,8,0,0.94143799006,-,-
2019_Oct_17,122,001,1,source,14,MEETING,HF,target,right,aqua,imageability,conservative,no,7,1,0.964985827012,-,-
2019_Oct_17,122,001,1,source,15,DISARMED,LF,target,left,yellow,pleasantness,conservative,no,2,1,1.3181190619,-,-
2019_Oct_17,122,001,1,source,16,MOVED,HF,target,left,yellow,pleasantness,conservative,no,2,1,2.40050752935,-,-
2019_Oct_17,122,001,1,source,17,CONCERNED,HF,target,left,yellow,pleasantness,liberal,no,7,0,1.74145294759,-,-
2019_Oct_17,122,001,1,source,18,GUMMED,LF,target,right,aqua,imageability,conservative,no,9,1,1.71777166605,-,-
2019_Oct_17,122,001,1,source,19,PURCHASER,LF,target,left,yellow,pleasantness,liberal,no,1,1,2.37673862898,-,-
2019_Oct_17,122,001,1,source,20,TELEPHONE,HF,target,left,yellow,pleasantness,liberal,no,2,1,3.41215020288,-,-
2019_Oct_17,122,001,1,source,21,SPEAK,HF,target,right,aqua,imageability,liberal,no,2,0,1.10615480159,-,-
2019_Oct_17,122,001,1,source,22,GETTING,HF,target,right,aqua,imageability,conservative,no,9,1,2.70617115221,-,-
2019_Oct_17,122,001,1,source,23,EASILY,HF,target,right,aqua,imageability,conservative,no,9,1,2.47108431791,-,-
2019_Oct_17,122,001,1,source,24,OBSCURELY,LF,target,right,aqua,imageability,conservative,no,1,0,1.5649262902,-,-
2019_Oct_17,122,001,1,source,25,AVAILABLE,HF,target,right,aqua,imageability,liberal,no,7,1,1.62354769031,-,-
2019_Oct_17,122,001,1,source,26,UNOPENED,LF,target,right,aqua,imageability,conservative,no,8,1,1.7412949404,-,-
2019_Oct_17,122,001,1,source,27,ERRANT,LF,target,right,aqua,imageability,liberal,no,9,1,3.34145903325,-,-
2019_Oct_17,122,001,1,source,28,LETTER,HF,target,right,aqua,imageability,conservative,no,9,1,1.77678863404,-,-
2019_Oct_17,122,001,1,source,29,FATHER,HF,target,left,yellow,pleasantness,conservative,no,9,0,1.67072658377,-,-
2019_Oct_17,122,001,1,source,30,EITHER,HF,target,left,yellow,pleasantness,conservative,no,7,0,2.18848277905,-,-
2019_Oct_17,122,001,1,source,31,JINGLE,LF,target,left,yellow,pleasantness,liberal,no,8,0,2.02387778236,-,-
2019_Oct_17,122,001,1,source,32,PUMPKIN,LF,target,left,yellow,pleasantness,conservative,no,3,1,2.51815212976,-,-
2019_Oct_17,122,001,1,source,33,ACIDITY,LF,target,right,aqua,imageability,conservative,yes,3,0,1.3885642389,-,-
2019_Oct_17,122,001,1,source,34,IDIOCY,LF,target,right,aqua,imageability,liberal,no,2,0,3.04713893341,-,-
2019_Oct_17,122,001,1,source,35,WEEKS,HF,target,right,aqua,imageability,liberal,no,8,1,2.68272779797,-,-
2019_Oct_17,122,001,1,source,36,PARENTS,HF,target,left,yellow,pleasantness,liberal,no,7,0,3.3534943418,-,-
2019_Oct_17,122,001,1,source,37,BORAX,LF,target,right,aqua,imageability,conservative,yes,2,0,1.6471710481,-,-
2019_Oct_17,122,001,1,source,38,OUGHT,HF,target,right,aqua,imageability,conservative,no,2,0,0.917903350926,-,-
2019_Oct_17,122,001,1,source,39,BROUGHT,HF,target,left,yellow,pleasantness,liberal,no,8,0,1.10619549485,-,-
2019_Oct_17,122,001,1,source,40,VULTURE,LF,target,right,aqua,imageability,liberal,no,8,1,2.09459204817,-,-
2019_Oct_17,122,001,1,source,41,BIKINI,LF,target,right,aqua,imageability,conservative,yes,7,1,1.55328215025,-,-
2019_Oct_17,122,001,1,source,42,WALKED,HF,target,right,aqua,imageability,liberal,no,9,1,3.14149122125,-,-
2019_Oct_17,122,001,1,source,43,UNION,HF,target,right,aqua,imageability,conservative,no,7,1,2.07088070494,-,-
2019_Oct_17,122,001,1,source,44,MUSIC,HF,target,left,yellow,pleasantness,liberal,no,1,1,2.18866424902,-,-
2019_Oct_17,122,001,1,source,45,BALDING,LF,target,left,yellow,pleasantness,conservative,no,1,1,2.22394384476,-,-
2019_Oct_17,122,001,1,source,46,SOVIET,HF,target,right,aqua,imageability,liberal,no,9,1,1.32970637792,-,-
2019_Oct_17,122,001,1,source,47,BUCKED,LF,target,right,aqua,imageability,liberal,no,7,1,2.14159313772,-,-
2019_Oct_17,122,001,1,recog,0,SPEAK,HF,target,right,aqua,imageability,liberal,no,m,0,2.4354095209,-3,85
2019_Oct_17,122,001,1,recog,1,CORNER,HF,lure,-,-,-,liberal,no,m,1,3.16502219433,1,86
2019_Oct_17,122,001,1,recog,2,LEVEL,HF,lure,-,-,-,conservative,no,m,1,1.34141687355,3,89
2019_Oct_17,122,001,1,recog,3,MEETING,HF,target,right,aqua,imageability,conservative,no,z,1,1.71790474403,1,90
2019_Oct_17,122,001,1,recog,4,FATHER,HF,target,left,yellow,pleasantness,conservative,no,z,1,1.44741953365,1,91
2019_Oct_17,122,001,1,recog,5,LETTER,HF,target,right,aqua,imageability,conservative,no,z,1,1.64719451088,1,92
2019_Oct_17,122,001,1,recog,6,CHURCH,HF,target,left,yellow,pleasantness,liberal,no,m,0,1.18862978806,-3,89
2019_Oct_17,122,001,1,recog,7,MOVED,HF,target,left,yellow,pleasantness,conservative,no,z,1,1.65927931125,1,90
2019_Oct_17,122,001,1,recog,8,INCLUDING,HF,lure,-,-,-,conservative,no,z,0,2.43570610516,-3,87
2019_Oct_17,122,001,1,recog,9,CLUBBED,LF,lure,-,-,-,conservative,no,z,0,1.37674852734,-3,84
2019_Oct_17,122,001,1,recog,10,SOVIET,HF,target,right,aqua,imageability,liberal,no,z,1,1.95330685949,3,87
2019_Oct_17,122,001,1,recog,11,RAPACIOUS,LF,target,left,yellow,pleasantness,liberal,no,z,1,0.894561179943,3,90
2019_Oct_17,122,001,1,recog,12,POINT,HF,lure,-,-,-,conservative,no,z,0,2.55332907582,-3,87
2019_Oct_17,122,001,1,recog,13,JINGLE,LF,target,left,yellow,pleasantness,liberal,no,z,1,1.14148975483,3,90
2019_Oct_17,122,001,1,recog,14,ROOFED,LF,lure,-,-,-,liberal,no,z,0,1.51804764705,-1,89
2019_Oct_17,122,001,1,recog,15,CASES,HF,lure,-,-,-,conservative,no,z,0,1.2356055818,-3,86
2019_Oct_17,122,001,1,recog,16,DUPLICITY,LF,lure,-,-,-,conservative,yes,m,1,1.09445603734,3,89
2019_Oct_17,122,001,1,recog,17,INTEREST,HF,lure,-,-,-,liberal,no,m,1,2.7652552091,1,90
2019_Oct_17,122,001,1,recog,18,MOSAICS,LF,lure,-,-,-,liberal,no,m,1,0.894348915066,1,91
2019_Oct_17,122,001,1,recog,19,BUBBLED,LF,lure,-,-,-,conservative,no,m,1,1.24760606278,3,94
2019_Oct_17,122,001,1,recog,20,SALAMI,LF,lure,-,-,-,liberal,no,m,1,1.00027642093,1,95
2019_Oct_17,122,001,1,recog,21,TELEPHONE,HF,target,left,yellow,pleasantness,liberal,no,z,1,1.16508928323,3,98
2019_Oct_17,122,001,1,recog,22,LACING,LF,lure,-,-,-,liberal,no,m,1,1.49460465942,1,99
2019_Oct_17,122,001,1,recog,23,TABLE,HF,target,left,yellow,pleasantness,conservative,no,z,1,1.10594546956,1,100
2019_Oct_17,122,001,1,recog,24,UNION,HF,target,right,aqua,imageability,conservative,no,z,1,0.964998658222,1,101
2019_Oct_17,122,001,1,recog,25,MODERN,HF,lure,-,-,-,liberal,no,m,1,1.81210489038,1,102
2019_Oct_17,122,001,1,recog,26,HOURS,HF,lure,-,-,-,conservative,no,z,0,0.776543741229,-3,99
2019_Oct_17,122,001,1,recog,27,RICKETS,LF,lure,-,-,-,liberal,no,z,0,0.894244432355,-1,98
2019_Oct_17,122,001,1,recog,28,KIMONO,LF,lure,-,-,-,liberal,no,z,0,1.21213473211,-1,97
2019_Oct_17,122,001,1,recog,29,ACIDITY,LF,target,right,aqua,imageability,conservative,yes,m,0,0.870809143447,-1,96
2019_Oct_17,122,001,1,recog,30,EASILY,HF,target,right,aqua,imageability,conservative,no,z,1,1.5533100123,1,97
2019_Oct_17,122,001,1,recog,31,FEELING,HF,lure,-,-,-,conservative,no,z,0,1.43584394902,-3,94
2019_Oct_17,122,001,1,recog,32,CONCERNED,HF,target,left,yellow,pleasantness,liberal,no,z,1,1.40005403773,3,97
2019_Oct_17,122,001,1,recog,33,MUSIC,HF,target,left,yellow,pleasantness,liberal,no,z,1,1.14144759514,3,100
2019_Oct_17,122,001,1,recog,34,DISARMED,LF,target,left,yellow,pleasantness,conservative,no,z,1,0.965000491252,1,101
2019_Oct_17,122,001,1,recog,35,VALUE,HF,lure,-,-,-,liberal,no,m,1,0.953021273413,1,102
2019_Oct_17,122,001,1,recog,36,TYPHOID,LF,lure,-,-,-,conservative,no,m,1,0.870876232346,3,105
2019_Oct_17,122,001,1,recog,37,ARTIFACTS,LF,lure,-,-,-,conservative,no,m,1,0.670889356841,3,108
2019_Oct_17,122,001,1,recog,38,WALKED,HF,target,right,aqua,imageability,liberal,no,z,1,0.729739152495,3,111
2019_Oct_17,122,001,1,recog,39,PURCHASER,LF,target,left,yellow,pleasantness,liberal,no,z,1,0.847507299126,3,114
2019_Oct_17,122,001,1,recog,40,PIGLETS,LF,target,left,yellow,pleasantness,conservative,no,m,0,1.69436020653,-1,113
2019_Oct_17,122,001,1,recog,41,SOCIAL,HF,lure,-,-,-,liberal,no,z,0,1.57678782751,-1,112
2019_Oct_17,122,001,1,recog,42,PUMPKIN,LF,target,left,yellow,pleasantness,conservative,no,z,1,1.31770809657,1,113
2019_Oct_17,122,001,1,recog,43,NECESSARY,HF,target,left,yellow,pleasantness,conservative,no,z,1,2.91809141981,1,114
2019_Oct_17,122,001,1,recog,44,LATER,HF,lure,-,-,-,conservative,no,m,1,1.22386465786,3,117
2019_Oct_17,122,001,1,recog,45,SLYLY,LF,lure,-,-,-,liberal,no,m,1,0.800292844877,1,118
2019_Oct_17,122,001,1,recog,46,FINAL,HF,lure,-,-,-,conservative,no,z,0,0.917991336367,-3,115
2019_Oct_17,122,001,1,recog,47,CERTAIN,HF,lure,-,-,-,liberal,no,m,1,2.70629469844,1,116
2019_Oct_17,122,001,1,recog,48,UMBILICAL,LF,lure,-,-,-,liberal,no,m,1,1.00032811237,1,117
2019_Oct_17,122,001,1,recog,49,MOUTH,HF,lure,-,-,-,liberal,no,m,1,1.11773955136,1,118
2019_Oct_17,122,001,1,recog,50,AFRAID,HF,lure,-,-,-,liberal,no,m,1,0.835636596664,1,119
2019_Oct_17,122,001,1,recog,51,CARRIED,HF,lure,-,-,-,conservative,no,z,0,0.847373854539,-3,116
2019_Oct_17,122,001,1,recog,52,RIGGING,LF,lure,-,-,-,conservative,no,m,1,1.90619908759,3,119
2019_Oct_17,122,001,1,recog,53,HAUNCHES,LF,lure,-,-,-,conservative,no,m,1,0.824109037425,3,122
2019_Oct_17,122,001,1,recog,54,GETTING,HF,target,right,aqua,imageability,conservative,no,z,1,0.953254801439,1,123
2019_Oct_17,122,001,1,recog,55,UNOPENED,LF,target,right,aqua,imageability,conservative,no,z,1,0.882677279666,1,124
2019_Oct_17,122,001,1,recog,56,SELECTS,LF,lure,-,-,-,conservative,no,m,1,0.835404168457,3,127
2019_Oct_17,122,001,1,recog,57,UPSTART,LF,target,right,aqua,imageability,liberal,no,z,1,0.918032029634,3,130
2019_Oct_17,122,001,1,recog,58,APOSTLE,LF,target,right,aqua,imageability,liberal,no,z,1,0.741535067331,3,133
2019_Oct_17,122,001,1,recog,59,PHOBIC,LF,lure,-,-,-,conservative,no,m,1,0.682785721722,3,136
2019_Oct_17,122,001,1,recog,60,BORAX,LF,target,right,aqua,imageability,conservative,no,z,1,0.741428018377,1,137
2019_Oct_17,122,001,1,recog,61,FLUFF,LF,lure,-,-,-,liberal,no,m,1,0.823747197297,1,138
2019_Oct_17,122,001,1,recog,62,BROUGHT,HF,target,left,yellow,pleasantness,liberal,no,m,0,1.36502666692,-3,135
2019_Oct_17,122,001,1,recog,63,BIKINI,LF,target,right,aqua,imageability,conservative,no,z,1,0.988253943581,1,136
2019_Oct_17,122,001,1,recog,64,LIARS,LF,lure,-,-,-,conservative,no,m,1,0.965078944937,3,139
2019_Oct_17,122,001,1,recog,65,BEAUTIFUL,HF,lure,-,-,-,conservative,no,z,0,0.765011049505,-3,136
2019_Oct_17,122,001,1,recog,66,YOGHURT,LF,lure,-,-,-,liberal,no,m,1,1.08259193379,1,137
2019_Oct_17,122,001,1,recog,67,OUGHT,HF,target,right,aqua,imageability,conservative,no,m,0,0.706206712996,-1,136
2019_Oct_17,122,001,1,recog,68,OBSCURELY,LF,target,right,aqua,imageability,conservative,no,z,1,0.776764071438,1,137
2019_Oct_17,122,001,1,recog,69,VULTURE,LF,target,right,aqua,imageability,liberal,no,z,1,0.83559480358,3,140
2019_Oct_17,122,001,1,recog,70,SINCE,HF,target,left,yellow,pleasantness,conservative,no,z,1,1.12951420305,1,141
2019_Oct_17,122,001,1,recog,71,PARENTS,HF,target,left,yellow,pleasantness,liberal,no,z,1,0.612068523062,3,144
2019_Oct_17,122,001,1,recog,72,TOYED,LF,lure,-,-,-,liberal,no,m,1,0.623902931528,1,145
2019_Oct_17,122,001,1,recog,73,MAYBE,HF,target,right,aqua,imageability,liberal,no,m,0,0.718018758496,-3,142
2019_Oct_17,122,001,1,recog,74,WAYSIDE,LF,lure,-,-,-,liberal,no,m,1,0.847244809226,1,143
2019_Oct_17,122,001,1,recog,75,ERRANT,LF,target,right,aqua,imageability,liberal,no,z,1,0.78851636016,3,146
2019_Oct_17,122,001,1,recog,76,POUNDS,HF,lure,-,-,-,liberal,no,m,1,0.69441079816,1,147
2019_Oct_17,122,001,1,recog,77,DOTTY,LF,target,left,yellow,pleasantness,conservative,no,z,1,1.11791185618,1,148
2019_Oct_17,122,001,1,recog,78,EXPECT,HF,lure,-,-,-,liberal,no,m,1,1.62376728731,1,149
2019_Oct_17,122,001,1,recog,79,DRAFTING,LF,lure,-,-,-,conservative,no,m,1,1.270767497,3,152
2019_Oct_17,122,001,1,recog,80,WEEKS,HF,target,right,aqua,imageability,liberal,no,z,1,0.894529651827,3,155
2019_Oct_17,122,001,1,recog,81,JARRED,LF,target,left,yellow,pleasantness,conservative,no,z,1,1.63561709323,1,156
2019_Oct_17,122,001,1,recog,82,AQUARIUM,LF,lure,-,-,-,conservative,no,m,1,0.799991128135,3,159
2019_Oct_17,122,001,1,recog,83,IDIOCY,LF,target,right,aqua,imageability,liberal,no,z,1,0.83563513024,3,162
2019_Oct_17,122,001,1,recog,84,UGLIEST,LF,target,left,yellow,pleasantness,liberal,no,m,0,0.965045583791,-3,159
2019_Oct_17,122,001,1,recog,85,AVAILABLE,HF,target,right,aqua,imageability,liberal,no,m,0,0.506120853869,-3,156
2019_Oct_17,122,001,1,recog,86,GUMMED,LF,target,right,aqua,imageability,conservative,no,m,0,0.718012526194,-1,155
2019_Oct_17,122,001,1,recog,87,DANDELION,LF,target,left,yellow,pleasantness,liberal,yes,z,1,0.823786790746,3,158
2019_Oct_17,122,001,1,recog,88,NEWMARKET,LF,target,left,yellow,pleasantness,liberal,no,m,0,1.42390359142,-3,155
2019_Oct_17,122,001,1,recog,89,EITHER,HF,target,left,yellow,pleasantness,conservative,no,z,1,0.706168585971,1,156
2019_Oct_17,122,001,1,recog,90,FREEDOM,HF,lure,-,-,-,conservative,no,m,1,0.776504880992,3,159
2019_Oct_17,122,001,1,recog,91,OUTSIDE,HF,lure,-,-,-,conservative,no,m,1,1.45907210554,3,162
2019_Oct_17,122,001,1,recog,92,NEITHER,HF,lure,-,-,-,liberal,no,z,0,1.0709822548,-1,161
2019_Oct_17,122,001,1,recog,93,BUCKED,LF,target,right,aqua,imageability,liberal,yes,z,1,0.659180694234,3,164
2019_Oct_17,122,001,1,recog,94,REACHED,HF,lure,-,-,-,liberal,no,m,1,0.882557766108,1,165
2019_Oct_17,122,001,1,recog,95,BALDING,LF,target,left,yellow,pleasantness,conservative,no,m,0,1.24749314813,-1,164
2019_Oct_17,122,001,2,source,0,WASHBASIN,LF,target,right,aqua,imageability,conservative,no,7,1,2.12985844609,-,-
2019_Oct_17,122,001,2,source,1,STAFF,HF,target,left,yellow,pleasantness,conservative,no,7,0,1.07089610239,-,-
2019_Oct_17,122,001,2,source,2,TOUSLED,LF,target,right,aqua,imageability,liberal,no,7,1,1.22367108989,-,-
2019_Oct_17,122,001,2,source,3,COPIOUSLY,LF,target,left,yellow,pleasantness,liberal,no,7,0,0.765123597549,-,-
2019_Oct_17,122,001,2,source,4,WAITING,HF,target,left,yellow,pleasantness,liberal,no,3,1,0.89447429432,-,-
2019_Oct_17,122,001,2,source,5,LAYERED,LF,target,left,yellow,pleasantness,conservative,no,3,1,1.30623112896,-,-
2019_Oct_17,122,001,2,source,6,DEMEANOUR,LF,target,left,yellow,pleasantness,conservative,no,8,0,1.58824463179,-,-
2019_Oct_17,122,001,2,source,7,UNVEILED,LF,target,right,aqua,imageability,liberal,no,8,1,1.50620114058,-,-
2019_Oct_17,122,001,2,source,8,ECLECTIC,LF,target,right,aqua,imageability,liberal,no,9,1,1.153245343,-,-
2019_Oct_17,122,001,2,source,9,DIPLOMAS,LF,target,left,yellow,pleasantness,liberal,no,7,0,1.6238765359,-,-
2019_Oct_17,122,001,2,source,10,SIFTED,LF,target,right,aqua,imageability,conservative,no,9,1,2.647397244,-,-
2019_Oct_17,122,001,2,source,11,WHETHER,HF,target,left,yellow,pleasantness,liberal,yes,8,0,0.800269015487,-,-
2019_Oct_17,122,001,2,source,12,PAVILIONS,LF,target,left,yellow,pleasantness,liberal,no,7,0,1.5770070579,-,-
2019_Oct_17,122,001,2,source,13,COERCION,LF,target,left,yellow,pleasantness,liberal,no,3,1,1.7061517221,-,-
2019_Oct_17,122,001,2,source,14,SECOND,HF,target,left,yellow,pleasantness,conservative,no,2,1,2.09450589576,-,-
2019_Oct_17,122,001,2,source,15,FORCE,HF,target,left,yellow,pleasantness,liberal,no,7,0,1.45917732146,-,-
2019_Oct_17,122,001,2,source,16,FURTHER,HF,target,left,yellow,pleasantness,conservative,yes,3,1,1.6239865177,-,-
2019_Oct_17,122,001,2,source,17,VEILING,LF,target,right,aqua,imageability,conservative,no,7,1,1.11781360578,-,-
2019_Oct_17,122,001,2,source,18,SKATES,LF,target,right,aqua,imageability,conservative,no,3,0,1.71806568406,-,-
2019_Oct_17,122,001,2,source,19,POSITION,HF,target,left,yellow,pleasantness,conservative,no,3,1,1.55328105043,-,-
2019_Oct_17,122,001,2,source,20,ENTIRELY,HF,target,right,aqua,imageability,conservative,no,8,1,1.32972800767,-,-
2019_Oct_17,122,001,2,source,21,BACHELORS,LF,target,right,aqua,imageability,conservative,no,9,1,1.54151336426,-,-
2019_Oct_17,122,001,2,source,22,ROBBERIES,LF,target,left,yellow,pleasantness,conservative,no,7,0,1.12980712125,-,-
2019_Oct_17,122,001,2,source,23,QUICKLY,HF,target,right,aqua,imageability,conservative,no,9,1,2.24724568908,-,-
2019_Oct_17,122,001,2,source,24,NERVY,LF,target,right,aqua,imageability,conservative,no,9,1,2.41204608677,-,-
2019_Oct_17,122,001,2,source,25,ENGULF,LF,target,left,yellow,pleasantness,conservative,no,8,0,2.69441996331,-,-
2019_Oct_17,122,001,2,source,26,AWAITS,LF,target,left,yellow,pleasantness,liberal,no,8,0,1.37673936219,-,-
2019_Oct_17,122,001,2,source,27,HOSPITAL,HF,target,right,aqua,imageability,liberal,no,8,1,0.682800385963,-,-
2019_Oct_17,122,001,2,source,28,APPEARED,HF,target,right,aqua,imageability,conservative,yes,8,1,0.835588937884,-,-
2019_Oct_17,122,001,2,source,29,CAKED,LF,target,left,yellow,pleasantness,liberal,no,8,0,1.30617687127,-,-
2019_Oct_17,122,001,2,source,30,UNTIL,HF,target,right,aqua,imageability,conservative,no,2,0,3.44740560262,-,-
2019_Oct_17,122,001,2,source,31,HUNDRED,HF,target,left,yellow,pleasantness,liberal,no,7,0,1.69452261299,-,-
2019_Oct_17,122,001,2,source,32,RATHER,HF,target,right,aqua,imageability,liberal,no,3,0,1.81216244752,-,-
2019_Oct_17,122,001,2,source,33,LANGUAGE,HF,target,right,aqua,imageability,liberal,no,9,1,1.77667168672,-,-
2019_Oct_17,122,001,2,source,34,EXCEPT,HF,target,left,yellow,pleasantness,liberal,no,1,1,2.62396782079,-,-
2019_Oct_17,122,001,2,source,35,BOILERS,LF,target,left,yellow,pleasantness,conservative,no,3,1,1.35322195354,-,-
2019_Oct_17,122,001,2,source,36,TRADE,HF,target,left,yellow,pleasantness,conservative,no,3,1,1.43569913965,-,-
2019_Oct_17,122,001,2,source,37,VISCOUS,LF,target,right,aqua,imageability,liberal,no,9,1,1.60025611096,-,-
2019_Oct_17,122,001,2,source,38,ITSELF,HF,target,right,aqua,imageability,conservative,no,7,1,0.953281563677,-,-
2019_Oct_17,122,001,2,source,39,MILES,HF,target,right,aqua,imageability,liberal,no,3,0,1.49436049982,-,-
2019_Oct_17,122,001,2,source,40,WICKEDLY,LF,target,left,yellow,pleasantness,conservative,no,3,1,2.74148520891,-,-
2019_Oct_17,122,001,2,source,41,MIDDLE,HF,target,right,aqua,imageability,liberal,no,3,0,2.40015082171,-,-
2019_Oct_17,122,001,2,source,42,WESTERN,HF,target,right,aqua,imageability,conservative,no,7,1,2.09420197938,-,-
2019_Oct_17,122,001,2,source,43,MAJOR,HF,target,left,yellow,pleasantness,conservative,yes,3,1,1.34143886992,-,-
2019_Oct_17,122,001,2,source,44,WRANGLING,LF,target,right,aqua,imageability,liberal,no,7,1,1.00024709245,-,-
2019_Oct_17,122,001,2,source,45,HECTOR,LF,target,right,aqua,imageability,liberal,no,9,1,2.25921940783,-,-
2019_Oct_17,122,001,2,source,46,SHALL,HF,target,right,aqua,imageability,liberal,no,7,1,1.50634704977,-,-
2019_Oct_17,122,001,2,source,47,DOCTOR,HF,target,left,yellow,pleasantness,liberal,no,3,1,3.14130205255,-,-
2019_Oct_17,122,001,2,recog,0,VEILING,LF,target,right,aqua,imageability,conservative,no,z,1,1.51801538572,1,165
2019_Oct_17,122,001,2,recog,1,UNTIL,HF,target,right,aqua,imageability,conservative,no,z,1,0.870918025431,1,166
2019_Oct_17,122,001,2,recog,2,ASKED,HF,lure,-,-,-,conservative,no,m,1,1.4355799927,3,169
2019_Oct_17,122,001,2,recog,3,EIDERDOWN,LF,lure,-,-,-,conservative,yes,m,1,1.22381919872,3,172
2019_Oct_17,122,001,2,recog,4,ITSELF,HF,target,right,aqua,imageability,conservative,no,z,1,2.10618339685,1,173
2019_Oct_17,122,001,2,recog,5,HECTOR,LF,target,right,aqua,imageability,liberal,no,z,1,0.98835219399,3,176
2019_Oct_17,122,001,2,recog,6,MAJOR,HF,target,left,yellow,pleasantness,conservative,no,z,1,0.98845777652,1,177
2019_Oct_17,122,001,2,recog,7,COPIOUSLY,LF,target,left,yellow,pleasantness,liberal,no,m,0,1.29447774042,-3,174
2019_Oct_17,122,001,2,recog,8,BOOKS,HF,lure,-,-,-,liberal,no,m,1,1.14144209605,1,175
2019_Oct_17,122,001,2,recog,9,WRANGLING,LF,target,right,aqua,imageability,liberal,no,z,1,0.717977332018,3,178
2019_Oct_17,122,001,2,recog,10,WHETHER,HF,target,left,yellow,pleasantness,liberal,no,z,1,0.917860824629,3,181
2019_Oct_17,122,001,2,recog,11,WICKEDLY,LF,target,left,yellow,pleasantness,conservative,no,z,1,0.741417386803,1,182
2019_Oct_17,122,001,2,recog,12,WILDFOWL,LF,lure,-,-,-,conservative,no,m,1,0.953282663495,3,185
2019_Oct_17,122,001,2,recog,13,QUICKLY,HF,target,right,aqua,imageability,conservative,no,m,0,0.953344986516,-1,184
2019_Oct_17,122,001,2,recog,14,ROBBERIES,LF,target,left,yellow,pleasantness,conservative,no,z,1,1.45920188406,1,185
2019_Oct_17,122,001,2,recog,15,OUSTED,LF,lure,-,-,-,liberal,no,m,1,1.04734056671,1,186
2019_Oct_17,122,001,2,recog,16,HOSPITAL,HF,target,right,aqua,imageability,liberal,no,m,0,1.36493831487,-3,183
2019_Oct_17,122,001,2,recog,17,RATHER,HF,target,right,aqua,imageability,liberal,no,z,1,1.64735288468,3,186
2019_Oct_17,122,001,2,recog,18,HANDS,HF,lure,-,-,-,liberal,no,m,1,0.788558886456,1,187
2019_Oct_17,122,001,2,recog,19,ROUND,HF,lure,-,-,-,conservative,no,m,1,0.847405749262,3,190
2019_Oct_17,122,001,2,recog,20,WIZENED,LF,lure,-,-,-,conservative,no,m,1,0.812016904936,3,193
2019_Oct_17,122,001,2,recog,21,CUPID,LF,lure,-,-,-,conservative,no,m,1,0.506171078892,3,196
2019_Oct_17,122,001,2,recog,22,TRYING,HF,lure,-,-,-,liberal,no,m,1,0.941455587149,1,197
2019_Oct_17,122,001,2,recog,23,SYSTEM,HF,lure,-,-,-,liberal,no,m,1,0.459163757037,1,198
2019_Oct_17,122,001,2,recog,24,UTILIZE,LF,lure,-,-,-,conservative,no,m,1,1.16494264082,3,201
2019_Oct_17,122,001,2,recog,25,THOUSAND,HF,lure,-,-,-,conservative,no,m,1,0.612024530341,3,204
2019_Oct_17,122,001,2,recog,26,HAPPEN,HF,lure,-,-,-,conservative,no,m,1,0.694465422455,3,207
2019_Oct_17,122,001,2,recog,27,TOUSLED,LF,target,right,aqua,imageability,liberal,no,z,1,0.729787544488,3,210
2019_Oct_17,122,001,2,recog,28,GIBBERISH,LF,lure,-,-,-,liberal,no,m,1,0.84737018848,1,211
2019_Oct_17,122,001,2,recog,29,PLEASE,HF,lure,-,-,-,conservative,no,m,1,1.80046331667,3,214
2019_Oct_17,122,001,2,recog,30,DUNGEON,LF,lure,-,-,-,liberal,no,m,1,0.6121136156,1,215
2019_Oct_17,122,001,2,recog,31,ENTIRELY,HF,target,right,aqua,imageability,conservative,no,m,0,0.858893348447,-1,214
2019_Oct_17,122,001,2,recog,32,PAVILIONS,LF,target,left,yellow,pleasantness,liberal,no,m,0,0.659079144371,-3,211
2019_Oct_17,122,001,2,recog,33,STAFF,HF,target,left,yellow,pleasantness,conservative,no,z,1,1.15328273682,1,212
2019_Oct_17,122,001,2,recog,34,DOCTOR,HF,target,left,yellow,pleasantness,liberal,yes,m,0,1.24720792866,-3,209
2019_Oct_17,122,001,2,recog,35,TRADE,HF,target,left,yellow,pleasantness,conservative,no,z,1,2.00041866406,1,210
2019_Oct_17,122,001,2,recog,36,RUDIMENTS,LF,lure,-,-,-,liberal,no,z,0,0.906409519438,-1,209
2019_Oct_17,122,001,2,recog,37,SECOND,HF,target,left,yellow,pleasantness,conservative,no,z,1,0.847164889116,1,210
2019_Oct_17,122,001,2,recog,38,EXACTLY,HF,lure,-,-,-,conservative,no,z,0,1.27069124296,-3,207
2019_Oct_17,122,001,2,recog,39,MYSELF,HF,lure,-,-,-,conservative,no,m,1,2.00041866406,3,210
2019_Oct_17,122,001,2,recog,40,ENGULF,LF,target,left,yellow,pleasantness,conservative,no,m,0,0.682566124725,-1,209
2019_Oct_17,122,001,2,recog,41,RECENT,HF,lure,-,-,-,conservative,no,m,1,1.64739981024,3,212
2019_Oct_17,122,001,2,recog,42,AROUND,HF,lure,-,-,-,liberal,no,m,1,1.0709701568,1,213
2019_Oct_17,122,001,2,recog,43,MIDDLE,HF,target,right,aqua,imageability,liberal,no,m,0,0.717811992709,-3,210
2019_Oct_17,122,001,2,recog,44,UNVEILED,LF,target,right,aqua,imageability,liberal,no,z,1,0.870882464648,3,213
2019_Oct_17,122,001,2,recog,45,WHOLE,HF,lure,-,-,-,conservative,no,m,1,1.16507901826,3,216
2019_Oct_17,122,001,2,recog,46,PELTED,LF,lure,-,-,-,conservative,no,z,0,3.85925188912,-3,213
2019_Oct_17,122,001,2,recog,47,AWAITS,LF,target,left,yellow,pleasantness,liberal,no,m,0,1.21208010781,-3,210
2019_Oct_17,122,001,2,recog,48,SIZZLING,LF,lure,-,-,-,conservative,no,m,1,0.835568041342,3,213
2019_Oct_17,122,001,2,recog,49,WHITE,HF,lure,-,-,-,liberal,no,m,1,0.694352507805,1,214
2019_Oct_17,122,001,2,recog,50,SHALL,HF,target,right,aqua,imageability,liberal,no,m,0,0.988501769241,-3,211
2019_Oct_17,122,001,2,recog,51,ACQUIRES,LF,lure,-,-,-,liberal,no,z,0,2.48274642156,-1,210
2019_Oct_17,122,001,2,recog,52,APPEARED,HF,target,right,aqua,imageability,conservative,no,z,1,1.54142501221,1,211
2019_Oct_17,122,001,2,recog,53,DEMEANOUR,LF,target,left,yellow,pleasantness,conservative,yes,m,0,1.08268761796,-1,210
2019_Oct_17,122,001,2,recog,54,COERCION,LF,target,left,yellow,pleasantness,liberal,no,z,1,1.35310170677,3,213
2019_Oct_17,122,001,2,recog,55,HEIFERS,LF,lure,-,-,-,conservative,no,m,1,1.5414059487,3,216
2019_Oct_17,122,001,2,recog,56,WELCOMES,LF,lure,-,-,-,conservative,no,m,1,0.576666114313,3,219
2019_Oct_17,122,001,2,recog,57,HUNDRED,HF,target,left,yellow,pleasantness,liberal,no,m,0,1.49440559235,-3,216
2019_Oct_17,122,001,2,recog,58,MILES,HF,target,right,aqua,imageability,liberal,no,z,1,1.78862560875,3,219
2019_Oct_17,122,001,2,recog,59,JAILS,LF,lure,-,-,-,liberal,no,m,1,1.24708254941,1,220
2019_Oct_17,122,001,2,recog,60,SITTING,HF,lure,-,-,-,liberal,no,m,1,0.988632280978,1,221
2019_Oct_17,122,001,2,recog,61,EIGHT,HF,lure,-,-,-,liberal,no,m,1,1.54163984333,1,222
2019_Oct_17,122,001,2,recog,62,SIFTED,LF,target,right,aqua,imageability,conservative,no,z,1,2.07093239639,1,223
2019_Oct_17,122,001,2,recog,63,LOCAL,HF,lure,-,-,-,liberal,no,m,1,0.753145846134,1,224
2019_Oct_17,122,001,2,recog,64,LANGUAGE,HF,target,right,aqua,imageability,liberal,no,z,1,0.929742158664,3,227
2019_Oct_17,122,001,2,recog,65,WOMAN,HF,lure,-,-,-,conservative,no,m,1,0.988602952498,3,230
2019_Oct_17,122,001,2,recog,66,POSITION,HF,target,left,yellow,pleasantness,conservative,no,m,0,0.953243803259,-1,229
2019_Oct_17,122,001,2,recog,67,BACHELORS,LF,target,right,aqua,imageability,conservative,no,z,1,0.812031569176,1,230
2019_Oct_17,122,001,2,recog,68,EXCEPT,HF,target,left,yellow,pleasantness,liberal,no,z,1,1.14151688367,3,233
2019_Oct_17,122,001,2,recog,69,LADDIE,LF,lure,-,-,-,liberal,no,m,1,0.670782307888,1,234
2019_Oct_17,122,001,2,recog,70,WRITE,HF,lure,-,-,-,conservative,no,m,1,2.43547770962,3,237
2019_Oct_17,122,001,2,recog,71,LOWED,LF,lure,-,-,-,liberal,no,m,1,0.623783417971,1,238
2019_Oct_17,122,001,2,recog,72,VISCOUS,LF,target,right,aqua,imageability,liberal,no,z,1,1.12971766938,3,241
2019_Oct_17,122,001,2,recog,73,WASHBASIN,LF,target,right,aqua,imageability,conservative,no,z,1,0.705995914543,1,242
2019_Oct_17,122,001,2,recog,74,WAITING,HF,target,left,yellow,pleasantness,liberal,no,z,1,1.65919315884,3,245
2019_Oct_17,122,001,2,recog,75,ORBITAL,LF,lure,-,-,-,liberal,no,m,1,0.659065946555,1,246
2019_Oct_17,122,001,2,recog,76,ZEBRA,LF,lure,-,-,-,conservative,yes,z,0,0.953238304169,-3,243
2019_Oct_17,122,001,2,recog,77,DIPLOMAS,LF,target,left,yellow,pleasantness,liberal,no,m,0,1.30596643942,-3,240
2019_Oct_17,122,001,2,recog,78,SKATES,LF,target,right,aqua,imageability,conservative,no,m,0,0.706135224825,-1,239
2019_Oct_17,122,001,2,recog,79,BOILERS,LF,target,left,yellow,pleasantness,conservative,no,z,1,1.04736879538,1,240
2019_Oct_17,122,001,2,recog,80,ECLECTIC,LF,target,right,aqua,imageability,liberal,no,z,1,0.77689971566,3,243
2019_Oct_17,122,001,2,recog,81,WESTERN,HF,target,right,aqua,imageability,conservative,no,m,0,0.765011782717,-1,242
2019_Oct_17,122,001,2,recog,82,LAYERED,LF,target,left,yellow,pleasantness,conservative,no,m,0,0.694374870772,-1,241
2019_Oct_17,122,001,2,recog,83,BETTER,HF,lure,-,-,-,liberal,no,m,1,1.44732018342,1,242
2019_Oct_17,122,001,2,recog,84,TURNED,HF,lure,-,-,-,liberal,no,m,1,0.871063934621,1,243
2019_Oct_17,122,001,2,recog,85,FORCE,HF,target,left,yellow,pleasantness,liberal,no,m,0,1.23554252556,-3,240
2019_Oct_17,122,001,2,recog,86,CAKED,LF,target,left,yellow,pleasantness,liberal,no,m,0,0.659175928356,-3,237
2019_Oct_17,122,001,2,recog,87,ROPED,LF,lure,-,-,-,conservative,no,m,1,0.576803958172,3,240
2019_Oct_17,122,001,2,recog,88,LARGE,HF,lure,-,-,-,conservative,no,m,1,1.22382653084,3,243
2019_Oct_17,122,001,2,recog,89,NERVY,LF,target,right,aqua,imageability,conservative,no,z,1,0.729678662504,1,244
2019_Oct_17,122,001,2,recog,90,RAMBLE,LF,lure,-,-,-,liberal,no,m,1,1.35325641451,1,245
2019_Oct_17,122,001,2,recog,91,HEALTH,HF,lure,-,-,-,liberal,no,m,1,1.37681414982,1,246
2019_Oct_17,122,001,2,recog,92,GUSHED,LF,lure,-,-,-,liberal,no,m,1,0.717963034383,1,247
2019_Oct_17,122,001,2,recog,93,FURTHER,HF,target,left,yellow,pleasantness,conservative,no,m,0,0.988480872698,-1,246
2019_Oct_17,122,001,2,recog,94,PNEUMATIC,LF,lure,-,-,-,conservative,no,m,1,0.753280023932,3,249
2019_Oct_17,122,001,2,recog,95,DEDICATE,LF,lure,-,-,-,liberal,no,m,1,0.988575090442,1,250
2019_Oct_17,122,001,3,source,0,NUCLEAR,HF,target,right,aqua,imageability,conservative,no,8,1,3.49469594431,-,-
2019_Oct_17,122,001,3,source,1,CENTRAL,HF,target,right,aqua,imageability,liberal,no,2,0,1.0591331821,-,-
2019_Oct_17,122,001,3,source,2,LAUNCHER,LF,target,left,yellow,pleasantness,conservative,no,2,1,1.58871315426,-,-
2019_Oct_17,122,001,3,source,3,NAPPY,LF,target,left,yellow,pleasantness,conservative,no,2,1,1.6942971503,-,-
2019_Oct_17,122,001,3,source,4,BUSINESS,HF,target,right,aqua,imageability,liberal,no,8,1,0.729677562686,-,-
2019_Oct_17,122,001,3,source,5,DEBACLE,LF,target,left,yellow,pleasantness,conservative,no,1,1,3.40033009205,-,-
2019_Oct_17,122,001,3,source,6,NEEDED,HF,target,left,yellow,pleasantness,liberal,no,3,1,3.02368458099,-,-
2019_Oct_17,122,001,3,source,7,FLICKS,LF,target,right,aqua,imageability,conservative,no,3,0,0.953181846844,-,-
2019_Oct_17,122,001,3,source,8,SAVOURED,LF,target,right,aqua,imageability,liberal,no,7,1,1.38839816638,-,-
2019_Oct_17,122,001,3,source,9,INVOLVED,HF,target,right,aqua,imageability,liberal,no,7,1,1.4122004279,-,-
2019_Oct_17,122,001,3,source,10,LICENSING,LF,target,left,yellow,pleasantness,conservative,no,8,0,1.17652409115,-,-
2019_Oct_17,122,001,3,source,11,SOUND,HF,target,right,aqua,imageability,conservative,no,9,1,1.90627020916,-,-
2019_Oct_17,122,001,3,source,12,SMALL,HF,target,left,yellow,pleasantness,liberal,no,7,0,0.929514496334,-,-
2019_Oct_17,122,001,3,source,13,PREPARED,HF,target,right,aqua,imageability,liberal,no,7,1,0.788591147785,-,-
2019_Oct_17,122,001,3,source,14,THANK,HF,target,left,yellow,pleasantness,conservative,no,3,1,1.36507615873,-,-
2019_Oct_17,122,001,3,source,15,SULKED,LF,target,left,yellow,pleasantness,conservative,no,3,1,2.15305434128,-,-
2019_Oct_17,122,001,3,source,16,SOJOURN,LF,target,right,aqua,imageability,liberal,no,9,1,1.16498700015,-,-
2019_Oct_17,122,001,3,source,17,ENROLMENT,LF,target,right,aqua,imageability,liberal,yes,7,1,0.870916559007,-,-
2019_Oct_17,122,001,3,source,18,LEGALITY,LF,target,right,aqua,imageability,conservative,no,9,1,2.91805035993,-,-
2019_Oct_17,122,001,3,source,19,BIOLOGIST,LF,target,left,yellow,pleasantness,conservative,no,1,1,2.24737106833,-,-
2019_Oct_17,122,001,3,source,20,UNJUSTLY,LF,target,left,yellow,pleasantness,liberal,no,7,0,2.29441615061,-,-
2019_Oct_17,122,001,3,source,21,NEBULOUS,LF,target,right,aqua,imageability,liberal,no,9,1,1.31790789684,-,-
2019_Oct_17,122,001,3,source,22,SCHOOL,HF,target,left,yellow,pleasantness,liberal,no,7,0,3.22365422601,-,-
2019_Oct_17,122,001,3,source,23,KIPPERS,LF,target,right,aqua,imageability,conservative,yes,7,1,1.01213979127,-,-
2019_Oct_17,122,001,3,source,24,GARDEN,HF,target,left,yellow,pleasantness,conservative,no,9,0,2.22369235304,-,-
2019_Oct_17,122,001,3,source,25,NUANCE,LF,target,right,aqua,imageability,liberal,no,9,1,1.67073024983,-,-
2019_Oct_17,122,001,3,source,26,SORRY,HF,target,left,yellow,pleasantness,conservative,no,3,1,1.04757922722,-,-
2019_Oct_17,122,001,3,source,27,FIELD,HF,target,right,aqua,imageability,conservative,no,7,1,1.31782651031,-,-
2019_Oct_17,122,001,3,source,28,TROUBLE,HF,target,right,aqua,imageability,conservative,no,3,0,2.08273014425,-,-
2019_Oct_17,122,001,3,source,29,VOYAGES,LF,target,right,aqua,imageability,conservative,no,7,1,1.71808144812,-,-
2019_Oct_17,122,001,3,source,30,THING,HF,target,right,aqua,imageability,liberal,no,3,0,0.753067759055,-,-
2019_Oct_17,122,001,3,source,31,PUFFS,LF,target,left,yellow,pleasantness,liberal,no,7,0,2.88279642662,-,-
2019_Oct_17,122,001,3,source,32,PIECE,HF,target,left,yellow,pleasantness,conservative,no,7,0,2.17687310006,-,-
2019_Oct_17,122,001,3,source,33,RESEARCH,HF,target,left,yellow,pleasantness,conservative,yes,7,0,0.72968636123,-,-
2019_Oct_17,122,001,3,source,34,GREATER,HF,target,right,aqua,imageability,liberal,no,7,1,0.63555880287,-,-
2019_Oct_17,122,001,3,source,35,TEXTURES,LF,target,right,aqua,imageability,conservative,no,9,1,1.48261847606,-,-
2019_Oct_17,122,001,3,source,36,BEYOND,HF,target,left,yellow,pleasantness,liberal,no,2,1,2.23537828607,-,-
2019_Oct_17,122,001,3,source,37,FRONT,HF,target,right,aqua,imageability,conservative,no,9,1,2.55332430994,-,-
2019_Oct_17,122,001,3,source,38,MARKET,HF,target,right,aqua,imageability,conservative,yes,7,1,0.8473958509,-,-
2019_Oct_17,122,001,3,source,39,BLEACH,LF,target,left,yellow,pleasantness,liberal,no,3,1,1.61208502033,-,-
2019_Oct_17,122,001,3,source,40,PHYSICAL,HF,target,left,yellow,pleasantness,conservative,no,1,1,2.07090820039,-,-
2019_Oct_17,122,001,3,source,41,FULCRUM,LF,target,right,aqua,imageability,conservative,no,7,1,2.28270015588,-,-
2019_Oct_17,122,001,3,source,42,ENERGY,HF,target,left,yellow,pleasantness,liberal,no,1,1,2.85918443362,-,-
2019_Oct_17,122,001,3,source,43,LAPELS,LF,target,left,yellow,pleasantness,liberal,no,8,0,3.24742312639,-,-
2019_Oct_17,122,001,3,source,44,ORCHARDS,LF,target,right,aqua,imageability,liberal,no,9,1,1.82408594125,-,-
2019_Oct_17,122,001,3,source,45,HOTEL,HF,target,left,yellow,pleasantness,liberal,no,1,1,1.60032686591,-,-
2019_Oct_17,122,001,3,source,46,AGATE,LF,target,left,yellow,pleasantness,liberal,no,7,0,1.38834904118,-,-
2019_Oct_17,122,001,3,source,47,IRISES,LF,target,left,yellow,pleasantness,liberal,no,3,1,1.7415882252,-,-
2019_Oct_17,122,001,3,recog,0,HUSBAND,HF,lure,-,-,-,liberal,no,m,1,2.00045899072,1,251
2019_Oct_17,122,001,3,recog,1,SLOWLY,HF,lure,-,-,-,liberal,no,m,1,0.835645761815,1,252
2019_Oct_17,122,001,3,recog,2,AHEAD,HF,lure,-,-,-,liberal,no,m,1,0.635621492497,1,253
2019_Oct_17,122,001,3,recog,3,AVOCADO,LF,lure,-,-,-,conservative,no,m,1,0.953203109992,3,256
2019_Oct_17,122,001,3,recog,4,OPENED,HF,lure,-,-,-,conservative,no,m,1,1.5297405456,3,259
2019_Oct_17,122,001,3,recog,5,BOTANIST,LF,lure,-,-,-,conservative,no,m,1,0.72967536305,3,262
2019_Oct_17,122,001,3,recog,6,IRISES,LF,target,left,yellow,pleasantness,liberal,no,z,1,1.04739079174,3,265
2019_Oct_17,122,001,3,recog,7,LAUNCHER,LF,target,left,yellow,pleasantness,conservative,no,z,1,0.647450035267,1,266
2019_Oct_17,122,001,3,recog,8,HILLSIDES,LF,lure,-,-,-,conservative,no,m,1,1.17675835238,3,269
2019_Oct_17,122,001,3,recog,9,PISTONS,LF,lure,-,-,-,liberal,no,m,1,1.07101158328,1,270
2019_Oct_17,122,001,3,recog,10,ZIGZAG,LF,lure,-,-,-,conservative,no,m,1,0.5885078549,3,273
2019_Oct_17,122,001,3,recog,11,ABBOT,LF,lure,-,-,-,liberal,no,m,1,1.01199974778,1,274
2019_Oct_17,122,001,3,recog,12,CENTRAL,HF,target,right,aqua,imageability,liberal,no,m,0,0.77676113859,-3,271
2019_Oct_17,122,001,3,recog,13,BOMBARDED,LF,lure,-,-,-,conservative,no,m,1,0.718061651399,3,274
2019_Oct_17,122,001,3,recog,14,PIVOT,LF,lure,-,-,-,liberal,no,m,1,0.659028186136,1,275
2019_Oct_17,122,001,3,recog,15,PIRACY,LF,lure,-,-,-,conservative,no,m,1,1.1061188742,3,278
2019_Oct_17,122,001,3,recog,16,QUALITY,HF,lure,-,-,-,liberal,no,m,1,1.87104047184,1,279
2019_Oct_17,122,001,3,recog,17,ORDER,HF,lure,-,-,-,conservative,no,m,1,0.576732103395,3,282
2019_Oct_17,122,001,3,recog,18,POLICE,HF,lure,-,-,-,liberal,no,m,1,0.588517386656,1,283
2019_Oct_17,122,001,3,recog,19,UNSAVOURY,LF,lure,-,-,-,liberal,no,m,1,1.76504331083,1,284
2019_Oct_17,122,001,3,recog,20,THANK,HF,target,left,yellow,pleasantness,conservative,no,z,1,0.894396207241,1,285
2019_Oct_17,122,001,3,recog,21,FIELD,HF,target,right,aqua,imageability,conservative,no,z,1,1.72977288025,1,286
2019_Oct_17,122,001,3,recog,22,NAPPY,LF,target,left,yellow,pleasantness,conservative,no,z,1,0.776878819118,1,287
2019_Oct_17,122,001,3,recog,23,REQUIRED,HF,lure,-,-,-,conservative,no,z,0,1.37687353999,-3,284
2019_Oct_17,122,001,3,recog,24,TEXTURES,LF,target,right,aqua,imageability,conservative,no,z,1,0.812161347702,1,285
2019_Oct_17,122,001,3,recog,25,VIBRATE,LF,lure,-,-,-,conservative,no,m,1,0.776843258336,3,288
2019_Oct_17,122,001,3,recog,26,LAPELS,LF,target,left,yellow,pleasantness,liberal,no,z,1,0.976624834477,3,291
2019_Oct_17,122,001,3,recog,27,FOUND,HF,lure,-,-,-,conservative,no,m,1,1.67089375611,3,294
2019_Oct_17,122,001,3,recog,28,USUAL,HF,lure,-,-,-,liberal,no,m,1,1.0943801499,1,295
2019_Oct_17,122,001,3,recog,29,DULLED,LF,lure,-,-,-,conservative,no,m,1,0.717964500807,3,298
2019_Oct_17,122,001,3,recog,30,ENERGY,HF,target,left,yellow,pleasantness,liberal,no,z,1,0.753216234487,3,301
2019_Oct_17,122,001,3,recog,31,VIOLATING,LF,lure,-,-,-,liberal,no,m,1,0.741421786076,1,302
2019_Oct_17,122,001,3,recog,32,MOLARS,LF,lure,-,-,-,liberal,no,m,1,0.953465599892,1,303
2019_Oct_17,122,001,3,recog,33,SUCCESS,HF,lure,-,-,-,conservative,no,m,1,1.35308924217,3,306
2019_Oct_17,122,001,3,recog,34,LICENSING,LF,target,left,yellow,pleasantness,conservative,no,z,1,1.17678108196,1,307
2019_Oct_17,122,001,3,recog,35,DEBACLE,LF,target,left,yellow,pleasantness,conservative,no,z,1,0.765063107558,1,308
2019_Oct_17,122,001,3,recog,36,DIFFERENT,HF,lure,-,-,-,liberal,no,m,1,0.694381836286,1,309
2019_Oct_17,122,001,3,recog,37,HOTEL,HF,target,left,yellow,pleasantness,liberal,no,z,1,0.612159441351,3,312
2019_Oct_17,122,001,3,recog,38,INVOLVED,HF,target,right,aqua,imageability,liberal,no,z,1,1.04741205489,3,315
2019_Oct_17,122,001,3,recog,39,BIOLOGIST,LF,target,left,yellow,pleasantness,conservative,no,z,1,0.62388166838,1,316
2019_Oct_17,122,001,3,recog,40,SORRY,HF,target,left,yellow,pleasantness,conservative,no,z,1,1.01207086934,1,317
2019_Oct_17,122,001,3,recog,41,TUBERS,LF,lure,-,-,-,conservative,no,z,0,1.0474127881,-3,314
2019_Oct_17,122,001,3,recog,42,SMALL,HF,target,left,yellow,pleasantness,liberal,no,z,1,1.17676971717,3,317
2019_Oct_17,122,001,3,recog,43,NEEDED,HF,target,left,yellow,pleasantness,liberal,yes,m,0,0.858879050813,-3,314
2019_Oct_17,122,001,3,recog,44,LEGALITY,LF,target,right,aqua,imageability,conservative,yes,z,1,0.835575373461,1,315
2019_Oct_17,122,001,3,recog,45,KIPPERS,LF,target,right,aqua,imageability,conservative,no,z,1,2.42382257149,1,316
2019_Oct_17,122,001,3,recog,46,SUPPORT,HF,lure,-,-,-,liberal,no,m,1,0.706216244752,1,317
2019_Oct_17,122,001,3,recog,47,SCHOOL,HF,target,left,yellow,pleasantness,liberal,no,z,1,0.729781312185,3,320
2019_Oct_17,122,001,3,recog,48,ORCHARDS,LF,target,right,aqua,imageability,liberal,no,z,1,0.647268565295,3,323
2019_Oct_17,122,001,3,recog,49,FULCRUM,LF,target,right,aqua,imageability,conservative,no,z,1,0.765021314473,1,324
2019_Oct_17,122,001,3,recog,50,PIECE,HF,target,left,yellow,pleasantness,conservative,no,z,1,0.812029369541,1,325
2019_Oct_17,122,001,3,recog,51,LAWFUL,LF,lure,-,-,-,liberal,no,m,1,2.12971473653,1,326
2019_Oct_17,122,001,3,recog,52,GARDEN,HF,target,left,yellow,pleasantness,conservative,no,z,1,2.80043692104,1,327
2019_Oct_17,122,001,3,recog,53,GREATER,HF,target,right,aqua,imageability,liberal,no,m,0,1.38851841315,-3,324
2019_Oct_17,122,001,3,recog,54,CLASS,HF,lure,-,-,-,conservative,no,m,1,1.3061486426,3,327
2019_Oct_17,122,001,3,recog,55,CINDER,LF,lure,-,-,-,liberal,no,m,1,0.494438953501,1,328
2019_Oct_17,122,001,3,recog,56,SULKED,LF,target,left,yellow,pleasantness,conservative,no,m,0,0.659154298602,-1,327
2019_Oct_17,122,001,3,recog,57,SOUND,HF,target,right,aqua,imageability,conservative,no,m,0,0.529636062886,-1,326
2019_Oct_17,122,001,3,recog,58,WANTED,HF,lure,-,-,-,liberal,no,m,1,0.61184012752,1,327
2019_Oct_17,122,001,3,recog,59,RESEARCH,HF,target,left,yellow,pleasantness,conservative,no,m,0,0.564943154073,-1,326
2019_Oct_17,122,001,3,recog,60,SPOKE,HF,lure,-,-,-,conservative,yes,m,1,1.56513892168,3,329
2019_Oct_17,122,001,3,recog,61,BLEACH,LF,target,left,yellow,pleasantness,liberal,no,z,1,1.55305412131,3,332
2019_Oct_17,122,001,3,recog,62,INORGANIC,LF,lure,-,-,-,liberal,no,m,1,0.870733989216,1,333
2019_Oct_17,122,001,3,recog,63,NEBULOUS,LF,target,right,aqua,imageability,liberal,no,z,1,0.765066773618,3,336
2019_Oct_17,122,001,3,recog,64,BUSINESS,HF,target,right,aqua,imageability,liberal,no,m,0,0.847110264821,-3,333
2019_Oct_17,122,001,3,recog,65,VARIOUS,HF,lure,-,-,-,conservative,no,z,0,0.694190467951,-3,330
2019_Oct_17,122,001,3,recog,66,PHYSICAL,HF,target,left,yellow,pleasantness,conservative,no,m,0,0.670689556568,-1,329
2019_Oct_17,122,001,3,recog,67,PREPARED,HF,target,right,aqua,imageability,liberal,yes,m,0,0.49420505887,-3,326
2019_Oct_17,122,001,3,recog,68,FLICKS,LF,target,right,aqua,imageability,conservative,no,m,0,0.459132962133,-1,325
2019_Oct_17,122,001,3,recog,69,SOJOURN,LF,target,right,aqua,imageability,liberal,no,z,1,1.25921280892,3,328
2019_Oct_17,122,001,3,recog,70,NOTHING,HF,lure,-,-,-,liberal,no,m,1,0.635578599594,1,329
2019_Oct_17,122,001,3,recog,71,OTHERS,HF,lure,-,-,-,liberal,no,m,1,1.87101260978,1,330
2019_Oct_17,122,001,3,recog,72,NUCLEAR,HF,target,right,aqua,imageability,conservative,no,m,0,0.835669591205,-1,329
2019_Oct_17,122,001,3,recog,73,MARKET,HF,target,right,aqua,imageability,conservative,no,m,0,1.49460612584,-1,328
2019_Oct_17,122,001,3,recog,74,BEYOND,HF,target,left,yellow,pleasantness,liberal,no,z,1,0.91784872663,3,331
2019_Oct_17,122,001,3,recog,75,GEOLOGIST,LF,lure,-,-,-,conservative,no,m,1,0.870971916514,3,334
2019_Oct_17,122,001,3,recog,76,EFFECT,HF,lure,-,-,-,conservative,no,m,1,2.7534614939,3,337
2019_Oct_17,122,001,3,recog,77,PUFFS,LF,target,left,yellow,pleasantness,liberal,no,m,0,0.988604418922,-3,334
2019_Oct_17,122,001,3,recog,78,MASKING,LF,lure,-,-,-,conservative,no,m,1,1.91795467577,3,337
2019_Oct_17,122,001,3,recog,79,STYLED,LF,lure,-,-,-,conservative,no,m,1,0.611986769923,3,340
2019_Oct_17,122,001,3,recog,80,TODAY,HF,lure,-,-,-,conservative,no,m,1,1.37675146019,3,343
2019_Oct_17,122,001,3,recog,81,LUSCIOUS,LF,lure,-,-,-,liberal,no,m,1,0.671046264211,1,344
2019_Oct_17,122,001,3,recog,82,AGATE,LF,target,left,yellow,pleasantness,liberal,no,m,0,1.00052278016,-3,341
2019_Oct_17,122,001,3,recog,83,TROUBLE,HF,target,right,aqua,imageability,conservative,no,z,1,0.894340116522,1,342
2019_Oct_17,122,001,3,recog,84,THING,HF,target,right,aqua,imageability,liberal,no,m,0,0.659199391141,-3,339
2019_Oct_17,122,001,3,recog,85,SNEAKED,LF,lure,-,-,-,liberal,no,m,1,0.870919491855,1,340
2019_Oct_17,122,001,3,recog,86,ENROLMENT,LF,target,right,aqua,imageability,liberal,no,z,1,0.870926090763,3,343
2019_Oct_17,122,001,3,recog,87,SAVOURED,LF,target,right,aqua,imageability,liberal,no,z,1,1.00038713594,3,346
2019_Oct_17,122,001,3,recog,88,BEHIND,HF,lure,-,-,-,liberal,no,z,0,1.54133775998,-1,345
2019_Oct_17,122,001,3,recog,89,UNJUSTLY,LF,target,left,yellow,pleasantness,liberal,no,z,1,2.25907533167,3,348
2019_Oct_17,122,001,3,recog,90,DAUGHTER,HF,lure,-,-,-,conservative,no,m,1,0.706192781968,3,351
2019_Oct_17,122,001,3,recog,91,NUANCE,LF,target,right,aqua,imageability,liberal,no,z,1,0.800377164259,3,354
2019_Oct_17,122,001,3,recog,92,CREAK,LF,lure,-,-,-,liberal,no,m,1,0.635552203962,1,355
2019_Oct_17,122,001,3,recog,93,VOYAGES,LF,target,right,aqua,imageability,conservative,no,m,0,2.01218671684,-1,354
2019_Oct_17,122,001,3,recog,94,MOTHER,HF,lure,-,-,-,conservative,no,m,1,0.847327662183,3,357
2019_Oct_17,122,001,3,recog,95,FRONT,HF,target,right,aqua,imageability,conservative,no,z,1,1.44745069516,1,358
2019_Oct_17,122,001,4,source,0,CAUGHT,HF,target,right,aqua,imageability,conservative,no,7,1,1.32973717282,-,-
2019_Oct_17,122,001,4,source,1,YONDER,LF,target,left,yellow,pleasantness,conservative,no,7,0,1.51800035487,-,-
2019_Oct_17,122,001,4,source,2,MINISTER,HF,target,right,aqua,imageability,conservative,no,9,1,1.85903962424,-,-
2019_Oct_17,122,001,4,source,3,TINGLING,LF,target,right,aqua,imageability,conservative,no,3,0,1.34165040158,-,-
2019_Oct_17,122,001,4,source,4,BOASTS,LF,target,right,aqua,imageability,liberal,no,7,1,1.16513730861,-,-
2019_Oct_17,122,001,4,source,5,FRIEND,HF,target,right,aqua,imageability,liberal,no,3,0,1.55306365307,-,-
2019_Oct_17,122,001,4,source,6,EVENING,HF,target,left,yellow,pleasantness,liberal,no,2,1,2.3414381367,-,-
2019_Oct_17,122,001,4,source,7,SMIRK,LF,target,right,aqua,imageability,conservative,no,8,1,1.80036286662,-,-
2019_Oct_17,122,001,4,source,8,NEPHEWS,LF,target,left,yellow,pleasantness,conservative,no,1,1,1.65914000097,-,-
2019_Oct_17,122,001,4,source,9,TWENTY,HF,target,right,aqua,imageability,liberal,no,9,1,2.12948964045,-,-
2019_Oct_17,122,001,4,source,10,MAKES,HF,target,left,yellow,pleasantness,conservative,no,2,1,2.5180142859,-,-
2019_Oct_17,122,001,4,source,11,DEGREE,HF,target,right,aqua,imageability,conservative,no,1,0,3.3416331711,-,-
2019_Oct_17,122,001,4,source,12,CHAIR,HF,target,right,aqua,imageability,liberal,no,8,1,2.76500335078,-,-
2019_Oct_17,122,001,4,source,13,OLDER,HF,target,right,aqua,imageability,conservative,no,7,1,1.71798026487,-,-
2019_Oct_17,122,001,4,source,14,SHORT,HF,target,right,aqua,imageability,conservative,no,9,1,2.10615076892,-,-
2019_Oct_17,122,001,4,source,15,YOUNG,HF,target,left,yellow,pleasantness,conservative,no,1,1,2.23537571983,-,-
2019_Oct_17,122,001,4,source,16,DRINK,HF,target,right,aqua,imageability,liberal,no,9,1,1.47105975531,-,-
2019_Oct_17,122,001,4,source,17,PLIABLE,LF,target,left,yellow,pleasantness,liberal,no,7,0,1.3414868953,-,-
2019_Oct_17,122,001,4,source,18,BOVINE,LF,target,right,aqua,imageability,liberal,no,8,1,1.44741256813,-,-
2019_Oct_17,122,001,4,source,19,TIGHTNESS,LF,target,right,aqua,imageability,conservative,no,9,1,1.7180070271,-,-
2019_Oct_17,122,001,4,source,20,HOWEVER,HF,target,left,yellow,pleasantness,liberal,no,7,0,1.01210276406,-,-
2019_Oct_17,122,001,4,source,21,FAILINGS,LF,target,right,aqua,imageability,liberal,no,9,1,1.57655723233,-,-
2019_Oct_17,122,001,4,source,22,GIRLS,HF,target,left,yellow,pleasantness,conservative,no,1,1,1.78854825488,-,-
2019_Oct_17,122,001,4,source,23,RIDDLES,LF,target,left,yellow,pleasantness,conservative,no,1,1,1.61212314736,-,-
2019_Oct_17,122,001,4,source,24,GROUND,HF,target,left,yellow,pleasantness,liberal,no,2,1,1.60051236855,-,-
2019_Oct_17,122,001,4,source,25,COMES,HF,target,left,yellow,pleasantness,conservative,no,7,0,1.56495415225,-,-
2019_Oct_17,122,001,4,source,26,ADOPTIVE,LF,target,right,aqua,imageability,liberal,yes,7,1,0.858897381113,-,-
2019_Oct_17,122,001,4,source,27,UNBEATEN,LF,target,left,yellow,pleasantness,liberal,no,7,0,1.41215423555,-,-
2019_Oct_17,122,001,4,source,28,BASIC,HF,target,right,aqua,imageability,conservative,yes,3,0,0.953284129919,-,-
2019_Oct_17,122,001,4,source,29,FASCINATE,LF,target,left,yellow,pleasantness,liberal,no,7,0,1.10617203207,-,-
2019_Oct_17,122,001,4,source,30,PESTERED,LF,target,left,yellow,pleasantness,conservative,no,7,0,1.42394281826,-,-
2019_Oct_17,122,001,4,source,31,DIZZINESS,LF,target,right,aqua,imageability,conservative,no,9,1,1.82368157482,-,-
2019_Oct_17,122,001,4,source,32,OBESE,LF,target,right,aqua,imageability,liberal,yes,3,0,1.00043882739,-,-
2019_Oct_17,122,001,4,source,33,PIZZA,LF,target,left,yellow,pleasantness,liberal,no,2,1,2.85915363871,-,-
2019_Oct_17,122,001,4,source,34,LOUDEST,LF,target,right,aqua,imageability,conservative,no,9,1,2.49420872493,-,-
2019_Oct_17,122,001,4,source,35,MERELY,HF,target,left,yellow,pleasantness,liberal,no,2,1,2.09431232779,-,-
2019_Oct_17,122,001,4,source,36,COILING,LF,target,left,yellow,pleasantness,liberal,no,1,1,1.40024430624,-,-
2019_Oct_17,122,001,4,source,37,HIMSELF,HF,target,right,aqua,imageability,liberal,no,9,1,1.67086736048,-,-
2019_Oct_17,122,001,4,source,38,WATCH,HF,target,right,aqua,imageability,liberal,no,8,1,1.63547961597,-,-
2019_Oct_17,122,001,4,source,39,KNUCKLE,LF,target,right,aqua,imageability,conservative,no,7,1,1.30625019247,-,-
2019_Oct_17,122,001,4,source,40,ANYONE,HF,target,left,yellow,pleasantness,conservative,no,2,1,1.6353960298,-,-
2019_Oct_17,122,001,4,source,41,SIDED,LF,target,left,yellow,pleasantness,conservative,no,8,0,1.64717838022,-,-
2019_Oct_17,122,001,4,source,42,TREES,HF,target,left,yellow,pleasantness,liberal,no,8,0,1.96492277078,-,-
2019_Oct_17,122,001,4,source,43,FICKLE,LF,target,left,yellow,pleasantness,liberal,no,2,1,1.25921097589,-,-
2019_Oct_17,122,001,4,source,44,SYMBOLIZE,LF,target,right,aqua,imageability,liberal,no,9,1,1.80046588291,-,-
2019_Oct_17,122,001,4,source,45,JOCKEYS,LF,target,left,yellow,pleasantness,conservative,no,2,1,1.83568535526,-,-
2019_Oct_17,122,001,4,source,46,ADDED,HF,target,left,yellow,pleasantness,liberal,no,1,1,2.14161476748,-,-
2019_Oct_17,122,001,4,source,47,ACROSS,HF,target,left,yellow,pleasantness,conservative,yes,2,1,1.05914967937,-,-
2019_Oct_17,122,001,4,recog,0,HISTORY,HF,lure,-,-,-,conservative,no,m,1,1.23540101565,3,361
2019_Oct_17,122,001,4,recog,1,CRICKETER,LF,lure,-,-,-,liberal,no,m,1,1.75322539964,1,362
2019_Oct_17,122,001,4,recog,2,UNLESS,HF,lure,-,-,-,conservative,no,m,1,0.62397991879,3,365
2019_Oct_17,122,001,4,recog,3,EARLIER,HF,lure,-,-,-,liberal,no,m,1,0.506138084352,1,366
2019_Oct_17,122,001,4,recog,4,HAVING,HF,lure,-,-,-,liberal,no,m,1,0.43560088924,1,367
2019_Oct_17,122,001,4,recog,5,CAUGHT,HF,target,right,aqua,imageability,conservative,yes,z,1,0.776551073349,1,368
2019_Oct_17,122,001,4,recog,6,ANEMONES,LF,lure,-,-,-,liberal,no,m,1,1.7064083463,1,369
2019_Oct_17,122,001,4,recog,7,ATTACK,HF,lure,-,-,-,conservative,no,m,1,0.48265916933,3,372
2019_Oct_17,122,001,4,recog,8,HOWEVER,HF,target,left,yellow,pleasantness,liberal,no,m,0,0.71775773502,-3,369
2019_Oct_17,122,001,4,recog,9,DUGOUTS,LF,lure,-,-,-,conservative,no,m,1,0.741428751589,3,372
2019_Oct_17,122,001,4,recog,10,WEBBED,LF,lure,-,-,-,conservative,no,m,1,0.623841341719,3,375
2019_Oct_17,122,001,4,recog,11,FAILINGS,LF,target,right,aqua,imageability,liberal,no,z,1,0.647357650554,3,378
2019_Oct_17,122,001,4,recog,12,AFFABLE,LF,lure,-,-,-,liberal,no,m,1,0.565070366357,1,379
2019_Oct_17,122,001,4,recog,13,SMIRK,LF,target,right,aqua,imageability,conservative,no,z,1,0.600283606406,1,380
2019_Oct_17,122,001,4,recog,14,JOCKEYS,LF,target,left,yellow,pleasantness,conservative,no,z,1,0.529775739774,1,381
2019_Oct_17,122,001,4,recog,15,SEWED,LF,lure,-,-,-,conservative,no,m,1,0.624009613876,3,384
2019_Oct_17,122,001,4,recog,16,PIZZA,LF,target,left,yellow,pleasantness,liberal,no,z,1,0.706178484334,3,387
2019_Oct_17,122,001,4,recog,17,DRINK,HF,target,right,aqua,imageability,liberal,no,z,1,0.835360542343,3,390
2019_Oct_17,122,001,4,recog,18,CHAIR,HF,target,right,aqua,imageability,liberal,no,z,1,1.98852596524,3,393
2019_Oct_17,122,001,4,recog,19,GEARING,LF,lure,-,-,-,conservative,no,z,0,1.77658626753,-3,390
2019_Oct_17,122,001,4,recog,20,BLOOD,HF,lure,-,-,-,liberal,no,z,0,0.988637413463,-1,389
2019_Oct_17,122,001,4,recog,21,FASCINATE,LF,target,left,yellow,pleasantness,liberal,no,z,1,1.02353830519,3,392
2019_Oct_17,122,001,4,recog,22,PLACE,HF,lure,-,-,-,liberal,no,z,0,0.941292447476,-1,391
2019_Oct_17,122,001,4,recog,23,TESTIFIES,LF,lure,-,-,-,liberal,no,m,1,2.12980015573,1,392
2019_Oct_17,122,001,4,recog,24,MONEY,HF,lure,-,-,-,conservative,yes,m,1,1.03540900766,3,395
2019_Oct_17,122,001,4,recog,25,RETURN,HF,lure,-,-,-,liberal,no,m,1,2.98882181628,1,396
2019_Oct_17,122,001,4,recog,26,BASIC,HF,target,right,aqua,imageability,conservative,no,m,0,1.22389105349,-1,395
2019_Oct_17,122,001,4,recog,27,KNUCKLE,LF,target,right,aqua,imageability,conservative,no,z,1,0.765289303463,1,396
2019_Oct_17,122,001,4,recog,28,OBESE,LF,target,right,aqua,imageability,liberal,no,z,1,0.870880265012,3,399
2019_Oct_17,122,001,4,recog,29,TREES,HF,target,left,yellow,pleasantness,liberal,no,z,1,0.753168575707,3,402
2019_Oct_17,122,001,4,recog,30,UNBEATEN,LF,target,left,yellow,pleasantness,liberal,no,m,0,2.10628897938,-3,399
2019_Oct_17,122,001,4,recog,31,AXLES,LF,lure,-,-,-,conservative,no,z,0,1.5885566135,-3,396
2019_Oct_17,122,001,4,recog,32,DIZZINESS,LF,target,right,aqua,imageability,conservative,no,m,0,1.45885874084,-1,395
2019_Oct_17,122,001,4,recog,33,AMONG,HF,lure,-,-,-,conservative,no,z,0,2.44736527596,-3,392
2019_Oct_17,122,001,4,recog,34,MAKES,HF,target,left,yellow,pleasantness,conservative,no,z,1,2.48267236715,1,393
2019_Oct_17,122,001,4,recog,35,NEPHEWS,LF,target,left,yellow,pleasantness,conservative,no,z,1,1.89438044318,1,394
2019_Oct_17,122,001,4,recog,36,DAYBREAK,LF,lure,-,-,-,liberal,yes,z,0,0.494422089625,-1,393
2019_Oct_17,122,001,4,recog,37,HIMSELF,HF,target,right,aqua,imageability,liberal,no,z,1,0.365009436438,3,396
2019_Oct_17,122,001,4,recog,38,MINISTER,HF,target,right,aqua,imageability,conservative,no,z,1,0.376665674386,1,397
2019_Oct_17,122,001,4,recog,39,ADDED,HF,target,left,yellow,pleasantness,liberal,no,z,1,0.423813039736,3,400
2019_Oct_17,122,001,4,recog,40,COILING,LF,target,left,yellow,pleasantness,liberal,no,z,1,0.447315784148,3,403
2019_Oct_17,122,001,4,recog,41,RIDDLES,LF,target,left,yellow,pleasantness,conservative,no,z,1,0.764857074983,1,404
2019_Oct_17,122,001,4,recog,42,SHORT,HF,target,right,aqua,imageability,conservative,no,z,1,0.353171728518,1,405
2019_Oct_17,122,001,4,recog,43,TINGLING,LF,target,right,aqua,imageability,conservative,no,z,1,0.8589637368,1,406
2019_Oct_17,122,001,4,recog,44,FRIEND,HF,target,right,aqua,imageability,liberal,no,z,1,0.435487241378,3,409
2019_Oct_17,122,001,4,recog,45,YONDER,LF,target,left,yellow,pleasantness,conservative,no,m,0,0.835528447893,-1,408
2019_Oct_17,122,001,4,recog,46,RALLIED,LF,lure,-,-,-,liberal,no,m,1,0.953483930192,1,409
2019_Oct_17,122,001,4,recog,47,ANYONE,HF,target,left,yellow,pleasantness,conservative,no,z,1,1.04734716562,1,410
2019_Oct_17,122,001,4,recog,48,YOUNG,HF,target,left,yellow,pleasantness,conservative,no,z,1,0.917947343646,1,411
2019_Oct_17,122,001,4,recog,49,MERELY,HF,target,left,yellow,pleasantness,liberal,no,z,1,0.800322906569,3,414
2019_Oct_17,122,001,4,recog,50,PICTURE,HF,lure,-,-,-,liberal,no,m,1,0.870680464739,1,415
2019_Oct_17,122,001,4,recog,51,UNRAVEL,LF,lure,-,-,-,liberal,no,m,1,0.870923157915,1,416
2019_Oct_17,122,001,4,recog,52,MAPPED,LF,lure,-,-,-,conservative,no,m,1,0.611979437802,3,419
2019_Oct_17,122,001,4,recog,53,HONKING,LF,lure,-,-,-,conservative,no,m,1,0.682584088419,3,422
2019_Oct_17,122,001,4,recog,54,BELIEVE,HF,lure,-,-,-,liberal,no,m,1,1.03560807472,1,423
2019_Oct_17,122,001,4,recog,55,FICKLE,LF,target,left,yellow,pleasantness,liberal,no,m,0,0.906093505061,-3,420
2019_Oct_17,122,001,4,recog,56,WATCH,HF,target,right,aqua,imageability,liberal,no,z,1,1.49437333103,3,423
2019_Oct_17,122,001,4,recog,57,GNOMES,LF,lure,-,-,-,liberal,no,m,1,0.670924184412,1,424
2019_Oct_17,122,001,4,recog,58,COMES,HF,target,left,yellow,pleasantness,conservative,no,z,1,0.929756089693,1,425
2019_Oct_17,122,001,4,recog,59,OMELETTE,LF,lure,-,-,-,liberal,no,m,1,0.929687900975,1,426
2019_Oct_17,122,001,4,recog,60,MOMENT,HF,lure,-,-,-,conservative,no,m,1,0.729677929292,3,429
2019_Oct_17,122,001,4,recog,61,CLOSE,HF,lure,-,-,-,conservative,no,m,1,0.647303392865,3,432
2019_Oct_17,122,001,4,recog,62,MORNING,HF,lure,-,-,-,liberal,no,m,1,0.670884957569,1,433
2019_Oct_17,122,001,4,recog,63,RUNNING,HF,lure,-,-,-,conservative,yes,m,1,0.470887083884,3,436
2019_Oct_17,122,001,4,recog,64,EVIDENCE,HF,lure,-,-,-,liberal,no,m,1,0.541530228132,1,437
2019_Oct_17,122,001,4,recog,65,TWENTY,HF,target,right,aqua,imageability,liberal,no,m,0,0.271073979625,-3,434
2019_Oct_17,122,001,4,recog,66,BOVINE,LF,target,right,aqua,imageability,liberal,no,m,0,0.270683910835,-3,431
2019_Oct_17,122,001,4,recog,67,GIRLS,HF,target,left,yellow,pleasantness,conservative,no,m,0,0.541199182909,-1,430
2019_Oct_17,122,001,4,recog,68,SEMANTIC,LF,lure,-,-,-,conservative,no,m,1,0.894396573847,3,433
2019_Oct_17,122,001,4,recog,69,FIGURE,HF,lure,-,-,-,conservative,no,m,1,0.635890581305,3,436
2019_Oct_17,122,001,4,recog,70,PUNCTUAL,LF,lure,-,-,-,conservative,no,m,1,0.576673079828,3,439
2019_Oct_17,122,001,4,recog,71,SIDED,LF,target,left,yellow,pleasantness,conservative,no,m,0,0.706265003351,-1,438
2019_Oct_17,122,001,4,recog,72,BOASTS,LF,target,right,aqua,imageability,liberal,no,m,0,0.800425922857,-3,435
2019_Oct_17,122,001,4,recog,73,ROADWAY,LF,lure,-,-,-,conservative,no,m,1,0.670920151746,3,438
2019_Oct_17,122,001,4,recog,74,SYMBOLIZE,LF,target,right,aqua,imageability,liberal,no,z,1,0.647375614249,3,441
2019_Oct_17,122,001,4,recog,75,ADOPTIVE,LF,target,right,aqua,imageability,liberal,no,m,0,0.682694803433,-3,438
2019_Oct_17,122,001,4,recog,76,TOFFEE,LF,lure,-,-,-,liberal,no,m,1,1.15321674774,1,439
2019_Oct_17,122,001,4,recog,77,TASSELS,LF,lure,-,-,-,conservative,no,m,1,1.1530616734,3,442
2019_Oct_17,122,001,4,recog,78,PRIVATE,HF,lure,-,-,-,liberal,no,m,1,1.81203560184,1,443
2019_Oct_17,122,001,4,recog,79,ENOUGH,HF,lure,-,-,-,conservative,no,m,1,0.871112326614,3,446
2019_Oct_17,122,001,4,recog,80,IMPORTANT,HF,lure,-,-,-,liberal,no,m,1,0.953158017453,1,447
2019_Oct_17,122,001,4,recog,81,GROUND,HF,target,left,yellow,pleasantness,liberal,no,z,1,0.847420046896,3,450
2019_Oct_17,122,001,4,recog,82,BUDDIES,LF,lure,-,-,-,liberal,no,m,1,0.623758855368,1,451
2019_Oct_17,122,001,4,recog,83,PLIABLE,LF,target,left,yellow,pleasantness,liberal,no,z,1,0.906129799056,3,454
2019_Oct_17,122,001,4,recog,84,USING,HF,lure,-,-,-,liberal,no,m,1,0.635641655827,1,455
2019_Oct_17,122,001,4,recog,85,TIGHTNESS,LF,target,right,aqua,imageability,conservative,no,z,1,0.753053094814,1,456
2019_Oct_17,122,001,4,recog,86,DEGREE,HF,target,right,aqua,imageability,conservative,no,z,1,0.81202753651,1,457
2019_Oct_17,122,001,4,recog,87,PESTERED,LF,target,left,yellow,pleasantness,conservative,no,m,0,2.55302405962,-1,456
2019_Oct_17,122,001,4,recog,88,GRIEVE,LF,lure,-,-,-,conservative,no,m,1,1.76513386252,3,459
2019_Oct_17,122,001,4,recog,89,STRAIGHT,HF,lure,-,-,-,conservative,no,m,1,0.647656434449,3,462
2019_Oct_17,122,001,4,recog,90,LOUDEST,LF,target,right,aqua,imageability,conservative,no,z,1,0.65912057085,1,463
2019_Oct_17,122,001,4,recog,91,ACROSS,HF,target,left,yellow,pleasantness,conservative,no,m,0,1.12969530642,-1,462
2019_Oct_17,122,001,4,recog,92,WRONG,HF,lure,-,-,-,conservative,no,m,1,0.506210672341,3,465
2019_Oct_17,122,001,4,recog,93,OLDER,HF,target,right,aqua,imageability,conservative,no,m,0,1.64745626757,-1,464
2019_Oct_17,122,001,4,recog,94,EVENING,HF,target,left,yellow,pleasantness,liberal,no,z,1,0.976812536752,3,467
2019_Oct_17,122,001,4,recog,95,DAFFODILS,LF,lure,-,-,-,liberal,no,m,1,0.91792681371,1,468
