date,subj,session,cycle,task,trial,item,wf,type,source,colour,encoding,bias,null,response,corr,rt,points,total
2019_Oct_18,124,001,0,source,0,PUBLIC,HF,target,right,aqua,pleasantness,liberal,no,9,1,6.87080841023,-,-
2019_Oct_18,124,001,0,source,1,OFTEN,HF,target,left,yellow,imageability,liberal,no,None,-1,-1,-,-
2019_Oct_18,124,001,0,source,2,LEARN,HF,target,left,yellow,imageability,liberal,no,1,1,3.31794309102,-,-
2019_Oct_18,124,001,0,source,3,SORRY,HF,target,left,yellow,imageability,conservative,no,2,1,1.96508811009,-,-
2019_Oct_18,124,001,0,source,4,ROADWAY,LF,target,right,aqua,pleasantness,conservative,no,9,1,1.9886216494,-,-
2019_Oct_18,124,001,0,source,5,RINSING,LF,target,right,aqua,pleasantness,conservative,no,9,1,1.16499726512,-,-
2019_Oct_18,124,001,0,source,6,EQUALLED,LF,target,right,aqua,pleasantness,conservative,no,9,1,0.929734459938,-,-
2019_Oct_18,124,001,0,source,7,LEECH,LF,target,left,yellow,imageability,liberal,no,2,1,1.88272127239,-,-
2019_Oct_18,124,001,0,source,8,BOMBARDED,LF,target,left,yellow,imageability,conservative,no,2,1,1.58859400731,-,-
2019_Oct_18,124,001,0,source,9,AFRAID,HF,target,left,yellow,imageability,conservative,no,1,1,1.85919066592,-,-
2019_Oct_18,124,001,0,source,10,TIERS,LF,target,right,aqua,pleasantness,liberal,no,8,1,1.57672257164,-,-
2019_Oct_18,124,001,0,source,11,RUGGER,LF,target,right,aqua,pleasantness,liberal,yes,8,1,1.48264963757,-,-
2019_Oct_18,124,001,0,source,12,POWER,HF,target,left,yellow,imageability,conservative,no,2,1,4.94161359434,-,-
2019_Oct_18,124,001,0,source,13,REJOICED,LF,target,left,yellow,imageability,liberal,no,2,1,1.36498120778,-,-
2019_Oct_18,124,001,0,source,14,WETTER,LF,target,left,yellow,imageability,liberal,no,2,1,1.11810689058,-,-
2019_Oct_18,124,001,0,source,15,ABOVE,HF,target,left,yellow,imageability,liberal,no,1,1,2.25923883795,-,-
2019_Oct_18,124,001,0,source,16,DOUBT,HF,target,right,aqua,pleasantness,liberal,no,9,1,2.38834537512,-,-
2019_Oct_18,124,001,0,source,17,NUTSHELL,LF,target,right,aqua,pleasantness,liberal,no,9,1,1.00035304158,-,-
2019_Oct_18,124,001,0,source,18,ALMOST,HF,target,left,yellow,imageability,liberal,no,1,1,1.63558813135,-,-
2019_Oct_18,124,001,0,source,19,IMPORTANT,HF,target,left,yellow,imageability,liberal,no,2,1,1.69430264939,-,-
2019_Oct_18,124,001,0,source,20,GLUTINOUS,LF,target,left,yellow,imageability,conservative,no,3,1,3.91812661398,-,-
2019_Oct_18,124,001,0,source,21,CLEAR,HF,target,right,aqua,pleasantness,liberal,no,9,1,1.80014216981,-,-
2019_Oct_18,124,001,0,source,22,GAPED,LF,target,right,aqua,pleasantness,conservative,yes,3,0,2.27092110492,-,-
2019_Oct_18,124,001,0,source,23,WINDOW,HF,target,right,aqua,pleasantness,conservative,no,7,1,2.8944610965,-,-
2019_Oct_18,124,001,0,source,24,AEGIS,LF,target,right,aqua,pleasantness,conservative,no,9,1,2.14134677849,-,-
2019_Oct_18,124,001,0,source,25,GESTURING,LF,target,left,yellow,imageability,conservative,no,1,1,2.37697252361,-,-
2019_Oct_18,124,001,0,source,26,CAPITAL,HF,target,right,aqua,pleasantness,conservative,no,9,1,1.25925203576,-,-
2019_Oct_18,124,001,0,source,27,TYCOONS,LF,target,right,aqua,pleasantness,liberal,no,9,1,2.07088547082,-,-
2019_Oct_18,124,001,0,source,28,HUMAN,HF,target,right,aqua,pleasantness,conservative,yes,3,0,1.34145903325,-,-
2019_Oct_18,124,001,0,source,29,HELICAL,LF,target,left,yellow,imageability,liberal,no,2,1,1.84712786191,-,-
2019_Oct_18,124,001,0,source,30,TYPHOID,LF,target,left,yellow,imageability,conservative,no,2,1,3.03563007108,-,-
2019_Oct_18,124,001,0,source,31,EBONY,LF,target,right,aqua,pleasantness,liberal,no,9,1,1.38852611188,-,-
2019_Oct_18,124,001,0,source,32,IDIOCY,LF,target,right,aqua,pleasantness,liberal,yes,3,0,1.27092257135,-,-
2019_Oct_18,124,001,0,source,33,USHERS,LF,target,left,yellow,imageability,conservative,no,2,1,4.48273285714,-,-
2019_Oct_18,124,001,0,source,34,MEETING,HF,target,left,yellow,imageability,liberal,no,2,1,1.17675175348,-,-
2019_Oct_18,124,001,0,source,35,DRINK,HF,target,right,aqua,pleasantness,liberal,no,9,1,1.28246406161,-,-
2019_Oct_18,124,001,0,source,36,AVUNCULAR,LF,target,right,aqua,pleasantness,conservative,no,3,0,1.89422793508,-,-
2019_Oct_18,124,001,0,source,37,ARRIVED,HF,target,left,yellow,imageability,conservative,no,2,1,2.0471689951,-,-
2019_Oct_18,124,001,0,source,38,SERIOUS,HF,target,right,aqua,pleasantness,conservative,no,9,1,1.80028991203,-,-
2019_Oct_18,124,001,0,source,39,SIDED,LF,target,left,yellow,imageability,liberal,no,2,1,2.35338216037,-,-
2019_Oct_18,124,001,0,source,40,FATHER,HF,target,left,yellow,imageability,conservative,no,1,1,1.71801215959,-,-
2019_Oct_18,124,001,0,source,41,APART,HF,target,right,aqua,pleasantness,liberal,no,9,1,1.9531363877,-,-
2019_Oct_18,124,001,0,source,42,TORMENTS,LF,target,left,yellow,imageability,liberal,no,7,0,3.47099743229,-,-
2019_Oct_18,124,001,0,source,43,CENTRAL,HF,target,right,aqua,pleasantness,liberal,no,9,1,1.12969860587,-,-
2019_Oct_18,124,001,0,source,44,CASES,HF,target,right,aqua,pleasantness,conservative,no,9,1,1.28248202531,-,-
2019_Oct_18,124,001,0,source,45,PREPARED,HF,target,right,aqua,pleasantness,conservative,no,9,1,1.09421334417,-,-
2019_Oct_18,124,001,0,source,46,DILATED,LF,target,left,yellow,imageability,conservative,no,1,1,2.40032422635,-,-
2019_Oct_18,124,001,0,source,47,ADDED,HF,target,left,yellow,imageability,conservative,no,1,1,1.20031315485,-,-
2019_Oct_18,124,001,0,recog,0,LIMELIGHT,LF,lure,-,-,-,conservative,no,m,1,1.2827621123,3,3
2019_Oct_18,124,001,0,recog,1,BOMBARDED,LF,target,left,yellow,imageability,conservative,no,z,1,0.917917281954,1,4
2019_Oct_18,124,001,0,recog,2,RINSING,LF,target,right,aqua,pleasantness,conservative,no,z,1,0.741438283345,1,5
2019_Oct_18,124,001,0,recog,3,TORMENTS,LF,target,left,yellow,imageability,liberal,no,z,1,0.917900051472,3,8
2019_Oct_18,124,001,0,recog,4,EFFECT,HF,lure,-,-,-,liberal,no,m,1,1.09424047301,1,9
2019_Oct_18,124,001,0,recog,5,ROADWAY,LF,target,right,aqua,pleasantness,conservative,no,z,1,1.89423160114,1,10
2019_Oct_18,124,001,0,recog,6,WRONG,HF,lure,-,-,-,liberal,no,m,1,1.0471323345,1,11
2019_Oct_18,124,001,0,recog,7,DOUBT,HF,target,right,aqua,pleasantness,liberal,no,z,1,0.84737568757,3,14
2019_Oct_18,124,001,0,recog,8,APART,HF,target,right,aqua,pleasantness,liberal,no,z,1,0.6240477409,3,17
2019_Oct_18,124,001,0,recog,9,PLODDED,LF,lure,-,-,-,liberal,no,m,1,0.694465789061,1,18
2019_Oct_18,124,001,0,recog,10,NOTHING,HF,lure,-,-,-,liberal,no,m,1,0.694344442473,1,19
2019_Oct_18,124,001,0,recog,11,POWER,HF,target,left,yellow,imageability,conservative,no,z,1,0.600243646351,1,20
2019_Oct_18,124,001,0,recog,12,JADED,LF,lure,-,-,-,conservative,no,m,1,0.729619272331,3,23
2019_Oct_18,124,001,0,recog,13,GESTURING,LF,target,left,yellow,imageability,conservative,no,z,1,0.647322822983,1,24
2019_Oct_18,124,001,0,recog,14,EXPECT,HF,lure,-,-,-,conservative,no,m,1,0.659113971941,3,27
2019_Oct_18,124,001,0,recog,15,HUMAN,HF,target,right,aqua,pleasantness,conservative,no,z,1,0.623556855459,1,28
2019_Oct_18,124,001,0,recog,16,AVUNCULAR,LF,target,right,aqua,pleasantness,conservative,no,z,1,0.670586540281,1,29
2019_Oct_18,124,001,0,recog,17,RUPTURE,LF,lure,-,-,-,liberal,no,m,1,0.7181533029,1,30
2019_Oct_18,124,001,0,recog,18,TYCOONS,LF,target,right,aqua,pleasantness,liberal,no,z,1,0.623777185668,3,33
2019_Oct_18,124,001,0,recog,19,ESPECIAL,LF,lure,-,-,-,liberal,no,m,1,0.847449008771,1,34
2019_Oct_18,124,001,0,recog,20,EBONY,LF,target,right,aqua,pleasantness,liberal,no,z,1,0.611902083935,3,37
2019_Oct_18,124,001,0,recog,21,IMPORTANT,HF,target,left,yellow,imageability,liberal,no,z,1,0.788470167803,3,40
2019_Oct_18,124,001,0,recog,22,KINDEST,LF,lure,-,-,-,liberal,no,m,1,0.647409708607,1,41
2019_Oct_18,124,001,0,recog,23,TOFFEE,LF,lure,-,-,-,conservative,no,m,1,0.741555230661,3,44
2019_Oct_18,124,001,0,recog,24,FATHER,HF,target,left,yellow,imageability,conservative,no,z,1,0.576746401029,1,45
2019_Oct_18,124,001,0,recog,25,ADDED,HF,target,left,yellow,imageability,conservative,no,z,1,0.517753629033,1,46
2019_Oct_18,124,001,0,recog,26,SORRY,HF,target,left,yellow,imageability,conservative,no,m,0,1.82384324807,-1,45
2019_Oct_18,124,001,0,recog,27,OPPOSES,LF,lure,-,-,-,conservative,no,m,1,1.3179848841,3,48
2019_Oct_18,124,001,0,recog,28,FUTURE,HF,lure,-,-,-,conservative,no,m,1,0.964816088431,3,51
2019_Oct_18,124,001,0,recog,29,SERIOUS,HF,target,right,aqua,pleasantness,conservative,no,z,1,0.694138776504,1,52
2019_Oct_18,124,001,0,recog,30,BAUXITE,LF,lure,-,-,-,liberal,no,m,1,0.765065307194,1,53
2019_Oct_18,124,001,0,recog,31,GAPED,LF,target,right,aqua,pleasantness,conservative,no,z,1,1.25919447862,1,54
2019_Oct_18,124,001,0,recog,32,LONGER,HF,lure,-,-,-,liberal,no,m,1,0.765045143864,1,55
2019_Oct_18,124,001,0,recog,33,LEECH,LF,target,left,yellow,imageability,liberal,no,z,1,0.623991650182,3,58
2019_Oct_18,124,001,0,recog,34,FARAWAY,LF,lure,-,-,-,conservative,no,m,1,1.23569833312,3,61
2019_Oct_18,124,001,0,recog,35,DILATED,LF,target,left,yellow,imageability,conservative,no,z,1,0.859165736709,1,62
2019_Oct_18,124,001,0,recog,36,LOVELIEST,LF,lure,-,-,-,conservative,no,m,1,1.20039417478,3,65
2019_Oct_18,124,001,0,recog,37,DRINK,HF,target,right,aqua,pleasantness,liberal,no,z,1,0.694433527732,3,68
2019_Oct_18,124,001,0,recog,38,TUMBLER,LF,lure,-,-,-,liberal,no,m,1,0.717961567959,1,69
2019_Oct_18,124,001,0,recog,39,KNOWLEDGE,HF,lure,-,-,-,conservative,no,m,1,1.03559084423,3,72
2019_Oct_18,124,001,0,recog,40,TYPHOID,LF,target,left,yellow,imageability,conservative,no,z,1,0.68277399033,1,73
2019_Oct_18,124,001,0,recog,41,CAPITAL,HF,target,right,aqua,pleasantness,conservative,no,z,1,0.647346652374,1,74
2019_Oct_18,124,001,0,recog,42,WETTER,LF,target,left,yellow,imageability,liberal,no,z,1,0.64736168322,3,77
2019_Oct_18,124,001,0,recog,43,ANYONE,HF,lure,-,-,-,liberal,no,m,1,0.670893756113,1,78
2019_Oct_18,124,001,0,recog,44,IDIOCY,LF,target,right,aqua,pleasantness,liberal,no,z,1,0.576735402849,3,81
2019_Oct_18,124,001,0,recog,45,SEVEN,HF,lure,-,-,-,conservative,no,m,1,0.729423504724,3,84
2019_Oct_18,124,001,0,recog,46,HOURS,HF,lure,-,-,-,liberal,no,m,1,0.647370481764,1,85
2019_Oct_18,124,001,0,recog,47,RUGGER,LF,target,right,aqua,pleasantness,liberal,no,m,0,0.917988770125,-3,82
2019_Oct_18,124,001,0,recog,48,HAPPEN,HF,lure,-,-,-,liberal,no,m,1,0.541243175629,1,83
2019_Oct_18,124,001,0,recog,49,OFTEN,HF,target,left,yellow,imageability,liberal,yes,z,1,0.917860824629,3,86
2019_Oct_18,124,001,0,recog,50,SUDDENLY,HF,lure,-,-,-,conservative,no,m,1,0.659080244189,3,89
2019_Oct_18,124,001,0,recog,51,MORNING,HF,lure,-,-,-,conservative,no,m,1,0.635604262015,3,92
2019_Oct_18,124,001,0,recog,52,TICKLE,LF,lure,-,-,-,liberal,no,m,1,0.588425001943,1,93
2019_Oct_18,124,001,0,recog,53,WANTED,HF,lure,-,-,-,liberal,no,m,1,0.682657776227,1,94
2019_Oct_18,124,001,0,recog,54,ALMOST,HF,target,left,yellow,imageability,liberal,yes,z,1,0.812019837784,3,97
2019_Oct_18,124,001,0,recog,55,HELICAL,LF,target,left,yellow,imageability,liberal,no,m,0,1.30616110721,-3,94
2019_Oct_18,124,001,0,recog,56,REJOICED,LF,target,left,yellow,imageability,liberal,no,z,1,0.529689220757,3,97
2019_Oct_18,124,001,0,recog,57,BIRCHES,LF,lure,-,-,-,liberal,no,m,1,0.576758132421,1,98
2019_Oct_18,124,001,0,recog,58,GOVERNS,LF,lure,-,-,-,conservative,no,m,1,0.929781752113,3,101
2019_Oct_18,124,001,0,recog,59,HUSBAND,HF,lure,-,-,-,conservative,no,m,1,0.588592907494,3,104
2019_Oct_18,124,001,0,recog,60,EQUALLED,LF,target,right,aqua,pleasantness,conservative,no,z,1,0.541508231771,1,105
2019_Oct_18,124,001,0,recog,61,NUTSHELL,LF,target,right,aqua,pleasantness,liberal,no,z,1,0.576923838335,3,108
2019_Oct_18,124,001,0,recog,62,ARRIVED,HF,target,left,yellow,imageability,conservative,no,z,1,0.588531684291,1,109
2019_Oct_18,124,001,0,recog,63,ACORNS,LF,lure,-,-,-,liberal,no,m,1,0.600272608226,1,110
2019_Oct_18,124,001,0,recog,64,PUBLIC,HF,target,right,aqua,pleasantness,liberal,no,z,1,0.612088319786,3,113
2019_Oct_18,124,001,0,recog,65,MEETING,HF,target,left,yellow,imageability,liberal,no,z,1,0.517957095366,3,116
2019_Oct_18,124,001,0,recog,66,NEPHEWS,LF,lure,-,-,-,conservative,no,m,1,0.553165202931,3,119
2019_Oct_18,124,001,0,recog,67,RUMBLED,LF,lure,-,-,-,conservative,no,m,1,0.600030281656,3,122
2019_Oct_18,124,001,0,recog,68,AHEAD,HF,lure,-,-,-,conservative,no,m,1,0.56504617036,3,125
2019_Oct_18,124,001,0,recog,69,EASILY,HF,lure,-,-,-,liberal,no,m,1,0.588748715046,1,126
2019_Oct_18,124,001,0,recog,70,ABOVE,HF,target,left,yellow,imageability,liberal,no,z,1,0.694478986877,3,129
2019_Oct_18,124,001,0,recog,71,TIERS,LF,target,right,aqua,pleasantness,liberal,no,z,1,0.612108483116,3,132
2019_Oct_18,124,001,0,recog,72,TWENTY,HF,lure,-,-,-,liberal,no,m,1,0.55320662941,1,133
2019_Oct_18,124,001,0,recog,73,RIOTERS,LF,lure,-,-,-,liberal,no,m,1,0.600094071101,1,134
2019_Oct_18,124,001,0,recog,74,EGGSHELL,LF,lure,-,-,-,liberal,no,m,1,0.694239959761,1,135
2019_Oct_18,124,001,0,recog,75,PSEUDONYM,LF,lure,-,-,-,conservative,no,m,1,0.717944704083,3,138
2019_Oct_18,124,001,0,recog,76,LEARN,HF,target,left,yellow,imageability,liberal,no,z,1,0.647137320345,3,141
2019_Oct_18,124,001,0,recog,77,SINCE,HF,lure,-,-,-,liberal,yes,z,0,0.823865611037,-1,140
2019_Oct_18,124,001,0,recog,78,AEGIS,LF,target,right,aqua,pleasantness,conservative,no,z,1,0.682650077501,1,141
2019_Oct_18,124,001,0,recog,79,BROUGHT,HF,lure,-,-,-,conservative,yes,m,1,0.588562112589,3,144
2019_Oct_18,124,001,0,recog,80,SIDED,LF,target,left,yellow,imageability,liberal,no,z,1,0.565044703936,3,147
2019_Oct_18,124,001,0,recog,81,WINDOW,HF,target,right,aqua,pleasantness,conservative,no,z,1,0.647332721346,1,148
2019_Oct_18,124,001,0,recog,82,DINER,LF,lure,-,-,-,liberal,no,m,1,0.600348495669,1,149
2019_Oct_18,124,001,0,recog,83,CANNOT,HF,lure,-,-,-,conservative,no,m,1,0.635780599504,3,152
2019_Oct_18,124,001,0,recog,84,RABBIS,LF,lure,-,-,-,conservative,no,m,1,0.600241813321,3,155
2019_Oct_18,124,001,0,recog,85,PREPARED,HF,target,right,aqua,pleasantness,conservative,no,z,1,0.69444012664,1,156
2019_Oct_18,124,001,0,recog,86,GLUTINOUS,LF,target,left,yellow,imageability,conservative,no,z,1,0.682618549384,1,157
2019_Oct_18,124,001,0,recog,87,CASES,HF,target,right,aqua,pleasantness,conservative,no,z,1,0.576846851074,1,158
2019_Oct_18,124,001,0,recog,88,AREAS,HF,lure,-,-,-,conservative,no,m,1,0.753304586534,3,161
2019_Oct_18,124,001,0,recog,89,TOTAL,HF,lure,-,-,-,conservative,no,m,1,0.659129369394,3,164
2019_Oct_18,124,001,0,recog,90,CENTRAL,HF,target,right,aqua,pleasantness,liberal,no,z,1,0.576754832967,3,167
2019_Oct_18,124,001,0,recog,91,CLEAR,HF,target,right,aqua,pleasantness,liberal,no,z,1,0.494404492537,3,170
2019_Oct_18,124,001,0,recog,92,AFRAID,HF,target,left,yellow,imageability,conservative,no,z,1,0.647550118707,1,171
2019_Oct_18,124,001,0,recog,93,EJECTED,LF,lure,-,-,-,conservative,no,m,1,0.60028690586,3,174
2019_Oct_18,124,001,0,recog,94,USHERS,LF,target,left,yellow,imageability,conservative,no,z,1,0.623750790036,1,175
2019_Oct_18,124,001,0,recog,95,MOTHER,HF,lure,-,-,-,liberal,no,m,1,0.600331265187,1,176
2019_Oct_18,124,001,1,source,0,ABBOT,LF,target,left,yellow,imageability,conservative,no,1,1,2.90615839432,-,-
2019_Oct_18,124,001,1,source,1,PNEUMATIC,LF,target,right,aqua,pleasantness,conservative,yes,7,1,2.14150845173,-,-
2019_Oct_18,124,001,1,source,2,GLASS,HF,target,right,aqua,pleasantness,conservative,no,9,1,2.08266855444,-,-
2019_Oct_18,124,001,1,source,3,SIZZLING,LF,target,left,yellow,imageability,conservative,yes,3,1,1.31802594397,-,-
2019_Oct_18,124,001,1,source,4,EXCEPT,HF,target,right,aqua,pleasantness,liberal,yes,3,0,1.12969933908,-,-
2019_Oct_18,124,001,1,source,5,ACCORDING,HF,target,left,yellow,imageability,liberal,no,2,1,1.71781309253,-,-
2019_Oct_18,124,001,1,source,6,LAWFUL,LF,target,left,yellow,imageability,conservative,no,8,0,2.30620400011,-,-
2019_Oct_18,124,001,1,source,7,FRONT,HF,target,right,aqua,pleasantness,liberal,no,9,1,1.28274524842,-,-
2019_Oct_18,124,001,1,source,8,SUBJECT,HF,target,left,yellow,imageability,liberal,no,1,1,1.43565514693,-,-
2019_Oct_18,124,001,1,source,9,REWRITE,LF,target,right,aqua,pleasantness,conservative,no,9,1,1.20028712582,-,-
2019_Oct_18,124,001,1,source,10,TRUTH,HF,target,right,aqua,pleasantness,conservative,no,9,1,0.976731150219,-,-
2019_Oct_18,124,001,1,source,11,TAGGED,LF,target,left,yellow,imageability,liberal,no,1,1,0.800251418399,-,-
2019_Oct_18,124,001,1,source,12,HUNDRED,HF,target,left,yellow,imageability,conservative,no,1,1,0.659097474671,-,-
2019_Oct_18,124,001,1,source,13,SUNBURN,LF,target,left,yellow,imageability,conservative,no,1,1,0.776679385451,-,-
2019_Oct_18,124,001,1,source,14,ECHELONS,LF,target,right,aqua,pleasantness,liberal,no,9,1,1.14148608877,-,-
2019_Oct_18,124,001,1,source,15,MINISTER,HF,target,left,yellow,imageability,conservative,no,1,1,0.694204398979,-,-
2019_Oct_18,124,001,1,source,16,GAMBITS,LF,target,left,yellow,imageability,liberal,no,1,1,1.25926926625,-,-
2019_Oct_18,124,001,1,source,17,HATCHES,LF,target,right,aqua,pleasantness,liberal,no,2,0,1.17649732891,-,-
2019_Oct_18,124,001,1,source,18,LOCAL,HF,target,left,yellow,imageability,conservative,no,2,1,1.917981438,-,-
2019_Oct_18,124,001,1,source,19,HIVES,LF,target,left,yellow,imageability,conservative,no,1,1,2.60032466628,-,-
2019_Oct_18,124,001,1,source,20,HADJI,LF,target,right,aqua,pleasantness,conservative,no,9,1,1.15337842098,-,-
2019_Oct_18,124,001,1,source,21,FIDDLED,LF,target,left,yellow,imageability,liberal,yes,7,0,1.6004111853,-,-
2019_Oct_18,124,001,1,source,22,ROPED,LF,target,left,yellow,imageability,liberal,no,2,1,1.18850734165,-,-
2019_Oct_18,124,001,1,source,23,VOUCH,LF,target,right,aqua,pleasantness,conservative,no,8,1,1.60003871359,-,-
2019_Oct_18,124,001,1,source,24,KNUCKLE,LF,target,left,yellow,imageability,liberal,no,1,1,1.62364960678,-,-
2019_Oct_18,124,001,1,source,25,TERMS,HF,target,left,yellow,imageability,liberal,no,1,1,0.835662625691,-,-
2019_Oct_18,124,001,1,source,26,DEEPEN,LF,target,right,aqua,pleasantness,liberal,no,9,1,1.0590847901,-,-
2019_Oct_18,124,001,1,source,27,BEGAN,HF,target,left,yellow,imageability,liberal,no,1,1,1.17672755748,-,-
2019_Oct_18,124,001,1,source,28,SONAR,LF,target,right,aqua,pleasantness,conservative,no,9,1,1.09446336946,-,-
2019_Oct_18,124,001,1,source,29,FOUND,HF,target,left,yellow,imageability,liberal,no,1,1,0.694386602164,-,-
2019_Oct_18,124,001,1,source,30,WRITE,HF,target,left,yellow,imageability,conservative,no,1,1,1.01209359891,-,-
2019_Oct_18,124,001,1,source,31,CHLORIDE,LF,target,right,aqua,pleasantness,liberal,no,9,1,0.753201203641,-,-
2019_Oct_18,124,001,1,source,32,SUCCESS,HF,target,right,aqua,pleasantness,liberal,no,9,1,0.776482518026,-,-
2019_Oct_18,124,001,1,source,33,BUILDING,HF,target,left,yellow,imageability,conservative,no,1,1,0.953336187972,-,-
2019_Oct_18,124,001,1,source,34,TODAY,HF,target,left,yellow,imageability,liberal,no,1,1,0.894387408697,-,-
2019_Oct_18,124,001,1,source,35,AFTERNOON,HF,target,right,aqua,pleasantness,liberal,no,9,1,1.0589869063,-,-
2019_Oct_18,124,001,1,source,36,HEIFERS,LF,target,right,aqua,pleasantness,conservative,no,9,1,1.38861079787,-,-
2019_Oct_18,124,001,1,source,37,RUDIMENTS,LF,target,right,aqua,pleasantness,liberal,no,2,0,2.44752584939,-,-
2019_Oct_18,124,001,1,source,38,WITHIN,HF,target,right,aqua,pleasantness,conservative,no,8,1,1.47087498589,-,-
2019_Oct_18,124,001,1,source,39,KENNEL,LF,target,left,yellow,imageability,conservative,no,1,1,1.36505086292,-,-
2019_Oct_18,124,001,1,source,40,DIFFERENT,HF,target,right,aqua,pleasantness,liberal,no,9,1,1.42366969679,-,-
2019_Oct_18,124,001,1,source,41,FEELING,HF,target,right,aqua,pleasantness,liberal,no,9,1,0.882695976572,-,-
2019_Oct_18,124,001,1,source,42,INNATELY,LF,target,left,yellow,imageability,liberal,no,2,1,1.20048949234,-,-
2019_Oct_18,124,001,1,source,43,EVIDENCE,HF,target,right,aqua,pleasantness,conservative,no,8,1,3.51804948008,-,-
2019_Oct_18,124,001,1,source,44,MILES,HF,target,right,aqua,pleasantness,conservative,no,8,1,1.27089214305,-,-
2019_Oct_18,124,001,1,source,45,SIMILAR,HF,target,left,yellow,imageability,conservative,no,9,0,1.91798803691,-,-
2019_Oct_18,124,001,1,source,46,TURNED,HF,target,right,aqua,pleasantness,conservative,no,3,0,3.47092154485,-,-
2019_Oct_18,124,001,1,source,47,BOTANIST,LF,target,right,aqua,pleasantness,liberal,no,9,1,1.49439569399,-,-
2019_Oct_18,124,001,1,recog,0,GLASS,HF,target,right,aqua,pleasantness,conservative,no,z,1,0.98858535541,1,177
2019_Oct_18,124,001,1,recog,1,REWRITE,LF,target,right,aqua,pleasantness,conservative,no,z,1,0.670646663666,1,178
2019_Oct_18,124,001,1,recog,2,DURING,HF,lure,-,-,-,conservative,no,m,1,0.847608482383,3,181
2019_Oct_18,124,001,1,recog,3,LEGALITY,LF,lure,-,-,-,liberal,no,m,1,1.18831780635,1,182
2019_Oct_18,124,001,1,recog,4,HADJI,LF,target,right,aqua,pleasantness,conservative,no,z,1,0.788517826584,1,183
2019_Oct_18,124,001,1,recog,5,ENFORCING,LF,lure,-,-,-,conservative,no,m,1,0.823591756351,3,186
2019_Oct_18,124,001,1,recog,6,DIFFERENT,HF,target,right,aqua,pleasantness,liberal,no,z,1,0.776710180355,3,189
2019_Oct_18,124,001,1,recog,7,DEEPEN,LF,target,right,aqua,pleasantness,liberal,no,z,1,0.917924247468,3,192
2019_Oct_18,124,001,1,recog,8,MIGHTILY,LF,lure,-,-,-,liberal,no,m,1,0.741274777067,1,193
2019_Oct_18,124,001,1,recog,9,SAYING,HF,lure,-,-,-,conservative,no,m,1,0.788492530769,3,196
2019_Oct_18,124,001,1,recog,10,TODAY,HF,target,left,yellow,imageability,liberal,no,z,1,0.565096761989,3,199
2019_Oct_18,124,001,1,recog,11,TOGETHER,HF,lure,-,-,-,conservative,no,m,1,0.800279647061,3,202
2019_Oct_18,124,001,1,recog,12,HIVES,LF,target,left,yellow,imageability,conservative,no,z,1,0.588529851261,1,203
2019_Oct_18,124,001,1,recog,13,MERELY,HF,lure,-,-,-,conservative,no,m,1,0.694488152027,3,206
2019_Oct_18,124,001,1,recog,14,FOUND,HF,target,left,yellow,imageability,liberal,no,z,1,0.517966260516,3,209
2019_Oct_18,124,001,1,recog,15,TRIED,HF,lure,-,-,-,liberal,no,m,1,0.600324299673,1,210
2019_Oct_18,124,001,1,recog,16,BEGAN,HF,target,left,yellow,imageability,liberal,no,z,1,0.635597663107,3,213
2019_Oct_18,124,001,1,recog,17,SUNBURN,LF,target,left,yellow,imageability,conservative,no,z,1,0.600238880473,1,214
2019_Oct_18,124,001,1,recog,18,GAMBITS,LF,target,left,yellow,imageability,liberal,no,z,1,0.576562364814,3,217
2019_Oct_18,124,001,1,recog,19,PILGRIM,LF,lure,-,-,-,conservative,no,m,1,0.729705058136,3,220
2019_Oct_18,124,001,1,recog,20,TAGGED,LF,target,left,yellow,imageability,liberal,no,z,1,0.576885711311,3,223
2019_Oct_18,124,001,1,recog,21,BETTER,HF,lure,-,-,-,liberal,no,m,1,0.717938838387,1,224
2019_Oct_18,124,001,1,recog,22,SIZZLING,LF,target,left,yellow,imageability,conservative,no,z,1,0.670986140827,1,225
2019_Oct_18,124,001,1,recog,23,UNEARTHED,LF,lure,-,-,-,conservative,no,m,1,1.04705681367,3,228
2019_Oct_18,124,001,1,recog,24,GREATER,HF,lure,-,-,-,conservative,no,m,1,0.847109165004,3,231
2019_Oct_18,124,001,1,recog,25,LOCAL,HF,target,left,yellow,imageability,conservative,no,z,1,0.541203215575,1,232
2019_Oct_18,124,001,1,recog,26,INNATELY,LF,target,left,yellow,imageability,liberal,no,z,1,0.61207878803,3,235
2019_Oct_18,124,001,1,recog,27,SONAR,LF,target,right,aqua,pleasantness,conservative,no,z,1,0.682665474953,1,236
2019_Oct_18,124,001,1,recog,28,SUBJECT,HF,target,left,yellow,imageability,liberal,yes,m,0,1.09449966346,-3,233
2019_Oct_18,124,001,1,recog,29,EXACTLY,HF,lure,-,-,-,liberal,no,z,0,0.835640262725,-1,232
2019_Oct_18,124,001,1,recog,30,RELAXES,LF,lure,-,-,-,liberal,no,m,1,1.10627724799,1,233
2019_Oct_18,124,001,1,recog,31,BENIGNLY,LF,lure,-,-,-,conservative,no,m,1,1.25922893958,3,236
2019_Oct_18,124,001,1,recog,32,TERMS,HF,target,left,yellow,imageability,liberal,no,z,1,0.671025734275,3,239
2019_Oct_18,124,001,1,recog,33,MUMBLES,LF,lure,-,-,-,liberal,no,m,1,0.71773757169,1,240
2019_Oct_18,124,001,1,recog,34,KENNEL,LF,target,left,yellow,imageability,conservative,no,z,1,0.706150622277,1,241
2019_Oct_18,124,001,1,recog,35,MILES,HF,target,right,aqua,pleasantness,conservative,no,z,1,0.611964773562,1,242
2019_Oct_18,124,001,1,recog,36,WITHIN,HF,target,right,aqua,pleasantness,conservative,no,z,1,0.564791379187,1,243
2019_Oct_18,124,001,1,recog,37,ECONOMIC,HF,lure,-,-,-,liberal,no,m,1,1.31773815826,1,244
2019_Oct_18,124,001,1,recog,38,STRAIGHT,HF,lure,-,-,-,conservative,no,m,1,1.18853996959,3,247
2019_Oct_18,124,001,1,recog,39,AFTERNOON,HF,target,right,aqua,pleasantness,liberal,yes,z,1,1.09443037492,3,250
2019_Oct_18,124,001,1,recog,40,FRONT,HF,target,right,aqua,pleasantness,liberal,no,z,1,1.2120735089,3,253
2019_Oct_18,124,001,1,recog,41,RICKETS,LF,lure,-,-,-,liberal,no,m,1,0.729714589893,1,254
2019_Oct_18,124,001,1,recog,42,FONDLE,LF,lure,-,-,-,conservative,no,z,0,1.76499345242,-3,251
2019_Oct_18,124,001,1,recog,43,HEIFERS,LF,target,right,aqua,pleasantness,conservative,no,z,1,1.07081581568,1,252
2019_Oct_18,124,001,1,recog,44,BOTANIST,LF,target,right,aqua,pleasantness,liberal,no,z,1,0.976574242849,3,255
2019_Oct_18,124,001,1,recog,45,FIDDLED,LF,target,left,yellow,imageability,liberal,no,m,0,1.05919110585,-3,252
2019_Oct_18,124,001,1,recog,46,BIOLOGIST,LF,lure,-,-,-,liberal,no,m,1,1.80027744743,1,253
2019_Oct_18,124,001,1,recog,47,NEEDED,HF,lure,-,-,-,liberal,no,m,1,1.45907320535,1,254
2019_Oct_18,124,001,1,recog,48,HERSELF,HF,lure,-,-,-,liberal,no,m,1,0.812084727047,1,255
2019_Oct_18,124,001,1,recog,49,MAJOR,HF,lure,-,-,-,liberal,no,m,1,0.882694143542,1,256
2019_Oct_18,124,001,1,recog,50,STUDENT,HF,lure,-,-,-,conservative,no,m,1,0.647347752192,3,259
2019_Oct_18,124,001,1,recog,51,HUNDRED,HF,target,left,yellow,imageability,conservative,no,z,1,0.659243383861,1,260
2019_Oct_18,124,001,1,recog,52,FEELING,HF,target,right,aqua,pleasantness,liberal,no,z,1,0.800339037234,3,263
2019_Oct_18,124,001,1,recog,53,BABBLED,LF,lure,-,-,-,liberal,no,m,1,0.823819052074,1,264
2019_Oct_18,124,001,1,recog,54,KNUCKLE,LF,target,left,yellow,imageability,liberal,no,z,1,0.623592782847,3,267
2019_Oct_18,124,001,1,recog,55,SEEMED,HF,lure,-,-,-,conservative,no,m,1,0.847335360909,3,270
2019_Oct_18,124,001,1,recog,56,CHIEF,HF,lure,-,-,-,conservative,no,m,1,0.706401380785,3,273
2019_Oct_18,124,001,1,recog,57,ECHELONS,LF,target,right,aqua,pleasantness,liberal,no,z,1,0.859093515326,3,276
2019_Oct_18,124,001,1,recog,58,SOMEONE,HF,lure,-,-,-,liberal,no,m,1,0.682635779866,1,277
2019_Oct_18,124,001,1,recog,59,ROPED,LF,target,left,yellow,imageability,liberal,yes,m,0,0.976790173786,-3,274
2019_Oct_18,124,001,1,recog,60,MINISTER,HF,target,left,yellow,imageability,conservative,no,z,1,0.941299046384,1,275
2019_Oct_18,124,001,1,recog,61,GROUND,HF,lure,-,-,-,conservative,no,m,1,0.717913542572,3,278
2019_Oct_18,124,001,1,recog,62,PNEUMATIC,LF,target,right,aqua,pleasantness,conservative,no,m,0,1.44739753729,-1,277
2019_Oct_18,124,001,1,recog,63,SLIGHTLY,HF,lure,-,-,-,conservative,no,m,1,1.76492563031,3,280
2019_Oct_18,124,001,1,recog,64,WRITE,HF,target,left,yellow,imageability,conservative,no,z,1,0.623567120427,1,281
2019_Oct_18,124,001,1,recog,65,DERANGED,LF,lure,-,-,-,conservative,no,m,1,0.682719732642,3,284
2019_Oct_18,124,001,1,recog,66,CRYPT,LF,lure,-,-,-,conservative,yes,z,0,0.906180390685,-3,281
2019_Oct_18,124,001,1,recog,67,HATCHES,LF,target,right,aqua,pleasantness,liberal,no,z,1,0.917773205794,3,284
2019_Oct_18,124,001,1,recog,68,VESTIBULE,LF,lure,-,-,-,liberal,no,m,1,1.09439958002,1,285
2019_Oct_18,124,001,1,recog,69,CHLORIDE,LF,target,right,aqua,pleasantness,liberal,no,z,1,0.788548988094,3,288
2019_Oct_18,124,001,1,recog,70,EUPHEMISM,LF,lure,-,-,-,conservative,no,z,0,2.5650183083,-3,285
2019_Oct_18,124,001,1,recog,71,TRUTH,HF,target,right,aqua,pleasantness,conservative,no,z,1,2.30634734306,1,286
2019_Oct_18,124,001,1,recog,72,TURNED,HF,target,right,aqua,pleasantness,conservative,no,z,1,0.917983637641,1,287
2019_Oct_18,124,001,1,recog,73,BARBARIAN,LF,lure,-,-,-,liberal,no,m,1,0.988554193899,1,288
2019_Oct_18,124,001,1,recog,74,ALKALINE,LF,lure,-,-,-,liberal,no,m,1,0.823619618407,1,289
2019_Oct_18,124,001,1,recog,75,CHAIR,HF,lure,-,-,-,liberal,no,m,1,0.741454780616,1,290
2019_Oct_18,124,001,1,recog,76,EVIDENCE,HF,target,right,aqua,pleasantness,conservative,no,z,1,0.788543122398,1,291
2019_Oct_18,124,001,1,recog,77,SUCCESS,HF,target,right,aqua,pleasantness,liberal,no,z,1,0.96498692683,3,294
2019_Oct_18,124,001,1,recog,78,COERCION,LF,lure,-,-,-,liberal,no,m,1,1.10622738957,1,295
2019_Oct_18,124,001,1,recog,79,NEMESIS,LF,lure,-,-,-,liberal,no,m,1,0.870650403047,1,296
2019_Oct_18,124,001,1,recog,80,ABBOT,LF,target,left,yellow,imageability,conservative,no,z,1,0.71803488916,1,297
2019_Oct_18,124,001,1,recog,81,EITHER,HF,lure,-,-,-,liberal,no,m,1,1.10616360013,1,298
2019_Oct_18,124,001,1,recog,82,RESEARCH,HF,lure,-,-,-,conservative,no,m,1,0.612154308867,3,301
2019_Oct_18,124,001,1,recog,83,ACCORDING,HF,target,left,yellow,imageability,liberal,no,z,1,0.753269025752,3,304
2019_Oct_18,124,001,1,recog,84,ARGUABLE,LF,lure,-,-,-,conservative,no,m,1,0.67096194483,3,307
2019_Oct_18,124,001,1,recog,85,EXCEPT,HF,target,right,aqua,pleasantness,liberal,no,z,1,0.894414537541,3,310
2019_Oct_18,124,001,1,recog,86,VOUCH,LF,target,right,aqua,pleasantness,conservative,no,z,1,0.694406765494,1,311
2019_Oct_18,124,001,1,recog,87,SIMILAR,HF,target,left,yellow,imageability,conservative,no,z,1,1.36512161788,1,312
2019_Oct_18,124,001,1,recog,88,CARRIED,HF,lure,-,-,-,liberal,no,m,1,0.765068606648,1,313
2019_Oct_18,124,001,1,recog,89,RUDIMENTS,LF,target,right,aqua,pleasantness,liberal,no,z,1,0.682725964944,3,316
2019_Oct_18,124,001,1,recog,90,LAWFUL,LF,target,left,yellow,imageability,conservative,no,z,1,0.553260887099,1,317
2019_Oct_18,124,001,1,recog,91,BUILDING,HF,target,left,yellow,imageability,conservative,no,z,1,0.52962836416,1,318
2019_Oct_18,124,001,1,recog,92,DEDICATE,LF,lure,-,-,-,conservative,no,m,1,0.753275258054,3,321
2019_Oct_18,124,001,1,recog,93,FIXTURE,LF,lure,-,-,-,conservative,no,m,1,0.5414367436,3,324
2019_Oct_18,124,001,1,recog,94,MURPHY,LF,lure,-,-,-,conservative,no,m,1,0.447145312356,3,327
2019_Oct_18,124,001,1,recog,95,SPEAK,HF,lure,-,-,-,liberal,no,m,1,0.647083429262,1,328
2019_Oct_18,124,001,2,source,0,ELUDE,LF,target,left,yellow,imageability,liberal,no,2,1,1.576768764,-,-
2019_Oct_18,124,001,2,source,1,UNWARY,LF,target,left,yellow,imageability,liberal,no,2,1,1.35318785918,-,-
2019_Oct_18,124,001,2,source,2,WHETHER,HF,target,right,aqua,pleasantness,conservative,yes,7,1,1.92967067049,-,-
2019_Oct_18,124,001,2,source,3,ELICIT,LF,target,left,yellow,imageability,liberal,no,3,1,2.25911822457,-,-
2019_Oct_18,124,001,2,source,4,CHURCH,HF,target,left,yellow,imageability,conservative,no,1,1,1.36499000632,-,-
2019_Oct_18,124,001,2,source,5,DOCTOR,HF,target,right,aqua,pleasantness,liberal,no,9,1,1.00032921219,-,-
2019_Oct_18,124,001,2,source,6,SELECTS,LF,target,left,yellow,imageability,liberal,no,7,0,1.82389787237,-,-
2019_Oct_18,124,001,2,source,7,NATIONAL,HF,target,left,yellow,imageability,liberal,no,1,1,0.859111845627,-,-
2019_Oct_18,124,001,2,source,8,UNPACK,LF,target,right,aqua,pleasantness,conservative,no,9,1,0.964986193618,-,-
2019_Oct_18,124,001,2,source,9,BEAUTIFUL,HF,target,right,aqua,pleasantness,liberal,no,9,1,0.882605058283,-,-
2019_Oct_18,124,001,2,source,10,MOUTH,HF,target,right,aqua,pleasantness,liberal,no,9,1,0.671015102701,-,-
2019_Oct_18,124,001,2,source,11,PAWNS,LF,target,left,yellow,imageability,conservative,no,1,1,1.78860544542,-,-
2019_Oct_18,124,001,2,source,12,DEVELOPED,HF,target,left,yellow,imageability,liberal,no,1,1,0.741495107276,-,-
2019_Oct_18,124,001,2,source,13,IDEAS,HF,target,left,yellow,imageability,conservative,no,1,1,1.04730793878,-,-
2019_Oct_18,124,001,2,source,14,NUANCE,LF,target,right,aqua,pleasantness,conservative,no,9,1,0.847051974467,-,-
2019_Oct_18,124,001,2,source,15,AXIOM,LF,target,left,yellow,imageability,liberal,no,1,1,0.706203046936,-,-
2019_Oct_18,124,001,2,source,16,MISFITS,LF,target,left,yellow,imageability,conservative,no,1,1,0.741367894992,-,-
2019_Oct_18,124,001,2,source,17,SCUFFED,LF,target,left,yellow,imageability,conservative,no,1,1,1.00033617771,-,-
2019_Oct_18,124,001,2,source,18,TADPOLES,LF,target,right,aqua,pleasantness,liberal,no,9,1,1.2356055818,-,-
2019_Oct_18,124,001,2,source,19,VENDETTA,LF,target,right,aqua,pleasantness,liberal,no,9,1,0.635573100504,-,-
2019_Oct_18,124,001,2,source,20,PEPPERED,LF,target,right,aqua,pleasantness,conservative,no,9,1,0.835616066728,-,-
2019_Oct_18,124,001,2,source,21,MARKET,HF,target,left,yellow,imageability,liberal,no,1,1,0.82381575262,-,-
2019_Oct_18,124,001,2,source,22,ALREADY,HF,target,left,yellow,imageability,liberal,no,1,1,1.14155611052,-,-
2019_Oct_18,124,001,2,source,23,FAMILY,HF,target,left,yellow,imageability,conservative,no,1,1,0.694340776413,-,-
2019_Oct_18,124,001,2,source,24,BRING,HF,target,right,aqua,pleasantness,conservative,yes,7,1,1.49424391911,-,-
2019_Oct_18,124,001,2,source,25,CLASS,HF,target,right,aqua,pleasantness,conservative,no,9,1,0.929719429092,-,-
2019_Oct_18,124,001,2,source,26,BUSINESS,HF,target,right,aqua,pleasantness,conservative,no,9,1,0.847359190299,-,-
2019_Oct_18,124,001,2,source,27,ARDENTLY,LF,target,left,yellow,imageability,conservative,no,3,1,1.50592471966,-,-
2019_Oct_18,124,001,2,source,28,JUNCTURE,LF,target,right,aqua,pleasantness,liberal,no,7,1,1.18849561026,-,-
2019_Oct_18,124,001,2,source,29,VIGILANT,LF,target,right,aqua,pleasantness,conservative,no,9,1,0.823856812493,-,-
2019_Oct_18,124,001,2,source,30,APRICOT,LF,target,right,aqua,pleasantness,liberal,no,9,1,0.823785690928,-,-
2019_Oct_18,124,001,2,source,31,SENSE,HF,target,right,aqua,pleasantness,liberal,no,7,1,1.82357929175,-,-
2019_Oct_18,124,001,2,source,32,JOYFULLY,LF,target,right,aqua,pleasantness,conservative,no,9,1,0.753271225388,-,-
2019_Oct_18,124,001,2,source,33,SOUND,HF,target,right,aqua,pleasantness,liberal,no,9,1,0.706215144934,-,-
2019_Oct_18,124,001,2,source,34,ATTACK,HF,target,right,aqua,pleasantness,liberal,no,9,1,0.965107540206,-,-
2019_Oct_18,124,001,2,source,35,CINDER,LF,target,right,aqua,pleasantness,liberal,no,9,1,0.741446348678,-,-
2019_Oct_18,124,001,2,source,36,LABOUR,HF,target,left,yellow,imageability,liberal,no,1,1,1.52951105024,-,-
2019_Oct_18,124,001,2,source,37,HURDLES,LF,target,left,yellow,imageability,conservative,yes,3,1,1.17672755748,-,-
2019_Oct_18,124,001,2,source,38,AIRBED,LF,target,left,yellow,imageability,conservative,no,1,1,0.929449240466,-,-
2019_Oct_18,124,001,2,source,39,HARDLY,HF,target,left,yellow,imageability,liberal,no,3,1,0.917697684956,-,-
2019_Oct_18,124,001,2,source,40,WOBBLE,LF,target,right,aqua,pleasantness,conservative,no,9,1,1.517959295,-,-
2019_Oct_18,124,001,2,source,41,NEARLY,HF,target,right,aqua,pleasantness,conservative,yes,3,0,0.800014224313,-,-
2019_Oct_18,124,001,2,source,42,SPACE,HF,target,left,yellow,imageability,conservative,no,2,1,1.89420080624,-,-
2019_Oct_18,124,001,2,source,43,MONEY,HF,target,right,aqua,pleasantness,conservative,no,9,1,1.02378503104,-,-
2019_Oct_18,124,001,2,source,44,CEASELESS,LF,target,right,aqua,pleasantness,liberal,no,9,1,0.98833936278,-,-
2019_Oct_18,124,001,2,source,45,VALUE,HF,target,left,yellow,imageability,conservative,no,3,1,1.23564040937,-,-
2019_Oct_18,124,001,2,source,46,PIQUE,LF,target,left,yellow,imageability,liberal,no,3,1,1.60036206009,-,-
2019_Oct_18,124,001,2,source,47,TROUBLE,HF,target,left,yellow,imageability,conservative,no,7,0,1.35330004062,-,-
2019_Oct_18,124,001,2,recog,0,MACARONI,LF,lure,-,-,-,conservative,no,m,1,1.10626221715,3,331
2019_Oct_18,124,001,2,recog,1,MOUTH,HF,target,right,aqua,pleasantness,liberal,no,z,1,0.717955335657,3,334
2019_Oct_18,124,001,2,recog,2,AXIOM,LF,target,left,yellow,imageability,liberal,no,z,1,0.612003633799,3,337
2019_Oct_18,124,001,2,recog,3,DOCTOR,HF,target,right,aqua,pleasantness,liberal,no,z,1,0.529619932222,3,340
2019_Oct_18,124,001,2,recog,4,HANDS,HF,lure,-,-,-,liberal,no,z,0,0.659134135272,-1,339
2019_Oct_18,124,001,2,recog,5,SCOFFED,LF,lure,-,-,-,liberal,no,z,0,0.506214705007,-1,338
2019_Oct_18,124,001,2,recog,6,BEAUTIFUL,HF,target,right,aqua,pleasantness,liberal,no,z,1,0.71787798179,3,341
2019_Oct_18,124,001,2,recog,7,VIGILANT,LF,target,right,aqua,pleasantness,conservative,no,z,1,0.765076305374,1,342
2019_Oct_18,124,001,2,recog,8,HURDLES,LF,target,left,yellow,imageability,conservative,no,z,1,0.859030459093,1,343
2019_Oct_18,124,001,2,recog,9,ICEBOX,LF,lure,-,-,-,conservative,no,m,1,0.753291755324,3,346
2019_Oct_18,124,001,2,recog,10,CLASS,HF,target,right,aqua,pleasantness,conservative,no,z,1,0.659118371213,1,347
2019_Oct_18,124,001,2,recog,11,USING,HF,lure,-,-,-,conservative,no,m,1,0.647294594321,3,350
2019_Oct_18,124,001,2,recog,12,UNPACK,LF,target,right,aqua,pleasantness,conservative,no,z,1,0.635299245818,1,351
2019_Oct_18,124,001,2,recog,13,HARDLY,HF,target,left,yellow,imageability,liberal,no,z,1,0.541221545875,3,354
2019_Oct_18,124,001,2,recog,14,KRAALS,LF,lure,-,-,-,conservative,no,m,1,0.600267475742,3,357
2019_Oct_18,124,001,2,recog,15,ACTION,HF,lure,-,-,-,liberal,no,m,1,0.882660782396,1,358
2019_Oct_18,124,001,2,recog,16,WARDROBES,LF,lure,-,-,-,liberal,no,m,1,0.670842797878,1,359
2019_Oct_18,124,001,2,recog,17,TIMES,HF,lure,-,-,-,liberal,no,m,1,0.588556613499,1,360
2019_Oct_18,124,001,2,recog,18,TRADE,HF,lure,-,-,-,liberal,no,m,1,0.635672450732,1,361
2019_Oct_18,124,001,2,recog,19,RUNNING,HF,lure,-,-,-,liberal,no,m,1,0.55333970739,1,362
2019_Oct_18,124,001,2,recog,20,HYPNOSIS,LF,lure,-,-,-,conservative,no,m,1,0.929513396517,3,365
2019_Oct_18,124,001,2,recog,21,IDEAS,HF,target,left,yellow,imageability,conservative,no,z,1,0.588716453718,1,366
2019_Oct_18,124,001,2,recog,22,SELECTS,LF,target,left,yellow,imageability,liberal,no,z,1,0.56501134279,3,369
2019_Oct_18,124,001,2,recog,23,DIPLOMAS,LF,lure,-,-,-,conservative,no,m,1,0.647455900963,3,372
2019_Oct_18,124,001,2,recog,24,AMBIENCE,LF,lure,-,-,-,conservative,no,m,1,0.764915365338,3,375
2019_Oct_18,124,001,2,recog,25,CLUBBED,LF,lure,-,-,-,conservative,no,m,1,1.03566563186,3,378
2019_Oct_18,124,001,2,recog,26,FIGURE,HF,lure,-,-,-,conservative,no,m,1,0.812185177093,3,381
2019_Oct_18,124,001,2,recog,27,MARKET,HF,target,left,yellow,imageability,liberal,no,z,1,0.635732207511,3,384
2019_Oct_18,124,001,2,recog,28,ASKED,HF,lure,-,-,-,conservative,no,m,1,1.41202519023,3,387
2019_Oct_18,124,001,2,recog,29,LOOKED,HF,lure,-,-,-,conservative,yes,m,1,1.47105608925,3,390
2019_Oct_18,124,001,2,recog,30,WAKED,LF,lure,-,-,-,conservative,no,z,0,1.29438132304,-3,387
2019_Oct_18,124,001,2,recog,31,OLDER,HF,lure,-,-,-,conservative,yes,m,1,1.16496317076,3,390
2019_Oct_18,124,001,2,recog,32,PAWNS,LF,target,left,yellow,imageability,conservative,no,z,1,1.43561628669,1,391
2019_Oct_18,124,001,2,recog,33,TROUBLE,HF,target,left,yellow,imageability,conservative,no,z,1,0.600300103676,1,392
2019_Oct_18,124,001,2,recog,34,HEALTH,HF,lure,-,-,-,conservative,yes,m,1,0.859252988939,3,395
2019_Oct_18,124,001,2,recog,35,SOFTENING,LF,lure,-,-,-,conservative,no,z,0,0.917986937095,-3,392
2019_Oct_18,124,001,2,recog,36,CINDER,LF,target,right,aqua,pleasantness,liberal,no,z,1,2.09444870522,3,395
2019_Oct_18,124,001,2,recog,37,ALREADY,HF,target,left,yellow,imageability,liberal,no,z,1,0.623766554094,3,398
2019_Oct_18,124,001,2,recog,38,OFFER,HF,lure,-,-,-,conservative,no,m,1,0.800071048244,3,401
2019_Oct_18,124,001,2,recog,39,CHURCH,HF,target,left,yellow,imageability,conservative,no,z,1,0.553309279091,1,402
2019_Oct_18,124,001,2,recog,40,INCLUDING,HF,lure,-,-,-,liberal,no,m,1,0.658884476582,1,403
2019_Oct_18,124,001,2,recog,41,PIQUE,LF,target,left,yellow,imageability,liberal,no,z,1,0.612032962279,3,406
2019_Oct_18,124,001,2,recog,42,CEASELESS,LF,target,right,aqua,pleasantness,liberal,no,z,1,0.600116067461,3,409
2019_Oct_18,124,001,2,recog,43,BRING,HF,target,right,aqua,pleasantness,conservative,no,m,0,0.600284339618,-1,408
2019_Oct_18,124,001,2,recog,44,GIRLS,HF,lure,-,-,-,conservative,no,m,1,0.670901088233,3,411
2019_Oct_18,124,001,2,recog,45,LEFTISTS,LF,lure,-,-,-,liberal,no,m,1,0.800277080819,1,412
2019_Oct_18,124,001,2,recog,46,JUNCTURE,LF,target,right,aqua,pleasantness,liberal,no,z,1,0.612051659185,3,415
2019_Oct_18,124,001,2,recog,47,BUSINESS,HF,target,right,aqua,pleasantness,conservative,no,z,1,0.612075488576,1,416
2019_Oct_18,124,001,2,recog,48,APRICOT,LF,target,right,aqua,pleasantness,liberal,no,z,1,0.517928866704,3,419
2019_Oct_18,124,001,2,recog,49,SOUND,HF,target,right,aqua,pleasantness,liberal,no,z,1,0.588451030969,3,422
2019_Oct_18,124,001,2,recog,50,ESTRANGED,LF,lure,-,-,-,liberal,no,m,1,0.600332365005,1,423
2019_Oct_18,124,001,2,recog,51,VALUE,HF,target,left,yellow,imageability,conservative,no,z,1,0.706124959857,1,424
2019_Oct_18,124,001,2,recog,52,MONEY,HF,target,right,aqua,pleasantness,conservative,no,z,1,0.553223493286,1,425
2019_Oct_18,124,001,2,recog,53,SPOKE,HF,lure,-,-,-,liberal,no,m,1,0.659091242369,1,426
2019_Oct_18,124,001,2,recog,54,SEWED,LF,lure,-,-,-,conservative,no,m,1,0.706219910812,3,429
2019_Oct_18,124,001,2,recog,55,ROTARY,LF,lure,-,-,-,liberal,no,m,1,1.1414633592,1,430
2019_Oct_18,124,001,2,recog,56,TADPOLES,LF,target,right,aqua,pleasantness,liberal,no,z,1,0.612142944081,3,433
2019_Oct_18,124,001,2,recog,57,ARDENTLY,LF,target,left,yellow,imageability,conservative,no,z,1,0.835351743798,1,434
2019_Oct_18,124,001,2,recog,58,DEVELOPED,HF,target,left,yellow,imageability,liberal,no,z,1,0.611965506774,3,437
2019_Oct_18,124,001,2,recog,59,KITCHEN,HF,lure,-,-,-,liberal,no,m,1,0.600242913139,1,438
2019_Oct_18,124,001,2,recog,60,VENDETTA,LF,target,right,aqua,pleasantness,liberal,no,z,1,0.541458006749,3,441
2019_Oct_18,124,001,2,recog,61,TYRANTS,LF,lure,-,-,-,liberal,no,z,0,0.717943237659,-1,440
2019_Oct_18,124,001,2,recog,62,RIPEN,LF,lure,-,-,-,liberal,no,m,1,0.764993819023,1,441
2019_Oct_18,124,001,2,recog,63,UNWARY,LF,target,left,yellow,imageability,liberal,no,z,1,0.576836952712,3,444
2019_Oct_18,124,001,2,recog,64,NATIONAL,HF,target,left,yellow,imageability,liberal,no,z,1,0.576676745888,3,447
2019_Oct_18,124,001,2,recog,65,WATCH,HF,lure,-,-,-,liberal,no,m,1,0.765068973254,1,448
2019_Oct_18,124,001,2,recog,66,GIVEN,HF,lure,-,-,-,liberal,no,m,1,0.600533265096,1,449
2019_Oct_18,124,001,2,recog,67,PEPPERED,LF,target,right,aqua,pleasantness,conservative,no,z,1,0.611865423335,1,450
2019_Oct_18,124,001,2,recog,68,NEARLY,HF,target,right,aqua,pleasantness,conservative,no,z,1,0.788556320214,1,451
2019_Oct_18,124,001,2,recog,69,JOYFULLY,LF,target,right,aqua,pleasantness,conservative,no,z,1,0.517866543683,1,452
2019_Oct_18,124,001,2,recog,70,WHETHER,HF,target,right,aqua,pleasantness,conservative,no,z,1,0.588437833153,1,453
2019_Oct_18,124,001,2,recog,71,MISFITS,LF,target,left,yellow,imageability,conservative,no,z,1,0.517896238769,1,454
2019_Oct_18,124,001,2,recog,72,CRACKLE,LF,lure,-,-,-,liberal,no,m,1,0.694340409807,1,455
2019_Oct_18,124,001,2,recog,73,AIRBED,LF,target,left,yellow,imageability,conservative,no,z,1,0.494342536122,1,456
2019_Oct_18,124,001,2,recog,74,USUAL,HF,lure,-,-,-,conservative,no,m,1,0.682352393424,3,459
2019_Oct_18,124,001,2,recog,75,HOSPITAL,HF,lure,-,-,-,liberal,no,m,1,0.576733569819,1,460
2019_Oct_18,124,001,2,recog,76,NECESSARY,HF,lure,-,-,-,conservative,no,m,1,0.564942054255,3,463
2019_Oct_18,124,001,2,recog,77,SPACE,HF,target,left,yellow,imageability,conservative,no,z,1,0.55320296335,1,464
2019_Oct_18,124,001,2,recog,78,PAPER,HF,lure,-,-,-,conservative,no,m,1,0.612027829795,3,467
2019_Oct_18,124,001,2,recog,79,PHYSICAL,HF,lure,-,-,-,conservative,no,m,1,0.565015375456,3,470
2019_Oct_18,124,001,2,recog,80,LOUDEST,LF,lure,-,-,-,liberal,no,m,1,0.694453324457,1,471
2019_Oct_18,124,001,2,recog,81,HYDRAULIC,LF,lure,-,-,-,liberal,no,m,1,0.588493923872,1,472
2019_Oct_18,124,001,2,recog,82,ELUDE,LF,target,left,yellow,imageability,liberal,no,z,1,0.588581909313,3,475
2019_Oct_18,124,001,2,recog,83,NUANCE,LF,target,right,aqua,pleasantness,conservative,no,z,1,0.564991912672,1,476
2019_Oct_18,124,001,2,recog,84,ATTACK,HF,target,right,aqua,pleasantness,liberal,no,z,1,0.635520309239,3,479
2019_Oct_18,124,001,2,recog,85,RALLIED,LF,lure,-,-,-,liberal,no,m,1,0.647338953648,1,480
2019_Oct_18,124,001,2,recog,86,SCUFFED,LF,target,left,yellow,imageability,conservative,no,z,1,0.459036178147,1,481
2019_Oct_18,124,001,2,recog,87,WOBBLE,LF,target,right,aqua,pleasantness,conservative,no,z,1,0.553134041421,1,482
2019_Oct_18,124,001,2,recog,88,LABOUR,HF,target,left,yellow,imageability,liberal,no,z,1,0.541322362526,3,485
2019_Oct_18,124,001,2,recog,89,SENSE,HF,target,right,aqua,pleasantness,liberal,no,z,1,0.494152267605,3,488
2019_Oct_18,124,001,2,recog,90,FAMILY,HF,target,left,yellow,imageability,conservative,yes,m,0,0.953246369501,-1,487
2019_Oct_18,124,001,2,recog,91,NIMBLE,LF,lure,-,-,-,conservative,no,m,1,1.30618750284,3,490
2019_Oct_18,124,001,2,recog,92,SURER,LF,lure,-,-,-,liberal,no,m,1,0.753225766243,1,491
2019_Oct_18,124,001,2,recog,93,ELICIT,LF,target,left,yellow,imageability,liberal,no,z,1,0.553227892558,3,494
2019_Oct_18,124,001,2,recog,94,NAGGED,LF,lure,-,-,-,conservative,no,m,1,1.64733345456,3,497
2019_Oct_18,124,001,2,recog,95,INVOLVED,HF,lure,-,-,-,liberal,no,m,1,0.965059148213,1,498
2019_Oct_18,124,001,3,source,0,WIPERS,LF,target,left,yellow,imageability,conservative,no,2,1,2.12975689623,-,-
2019_Oct_18,124,001,3,source,1,PLUGGING,LF,target,right,aqua,pleasantness,conservative,no,9,1,1.51791860174,-,-
2019_Oct_18,124,001,3,source,2,BLACK,HF,target,right,aqua,pleasantness,conservative,no,9,1,0.84718101978,-,-
2019_Oct_18,124,001,3,source,3,NIBBLE,LF,target,right,aqua,pleasantness,conservative,no,9,1,1.71796266778,-,-
2019_Oct_18,124,001,3,source,4,CHOICE,HF,target,right,aqua,pleasantness,conservative,no,9,1,0.647284329353,-,-
2019_Oct_18,124,001,3,source,5,CLOSE,HF,target,left,yellow,imageability,liberal,no,2,1,1.24718116642,-,-
2019_Oct_18,124,001,3,source,6,LESSENED,LF,target,right,aqua,pleasantness,conservative,no,9,1,0.906180757291,-,-
2019_Oct_18,124,001,3,source,7,CUPID,LF,target,left,yellow,imageability,liberal,no,1,1,1.12973343344,-,-
2019_Oct_18,124,001,3,source,8,THOUSAND,HF,target,left,yellow,imageability,liberal,yes,3,1,1.28270528836,-,-
2019_Oct_18,124,001,3,source,9,FOLLOWED,HF,target,right,aqua,pleasantness,liberal,no,9,1,1.65892150379,-,-
2019_Oct_18,124,001,3,source,10,OCCUPANCY,LF,target,right,aqua,pleasantness,liberal,no,9,1,0.71777239926,-,-
2019_Oct_18,124,001,3,source,11,FLOOR,HF,target,right,aqua,pleasantness,liberal,no,9,1,0.612034062097,-,-
2019_Oct_18,124,001,3,source,12,PLEASE,HF,target,left,yellow,imageability,conservative,no,3,1,1.24732120992,-,-
2019_Oct_18,124,001,3,source,13,LARGE,HF,target,left,yellow,imageability,liberal,no,1,1,2.36516927666,-,-
2019_Oct_18,124,001,3,source,14,AUSPICES,LF,target,left,yellow,imageability,liberal,no,3,1,1.0004087657,-,-
2019_Oct_18,124,001,3,source,15,QUALITY,HF,target,left,yellow,imageability,conservative,no,1,1,1.55319196517,-,-
2019_Oct_18,124,001,3,source,16,RUSSET,LF,target,left,yellow,imageability,conservative,no,3,1,0.964754865228,-,-
2019_Oct_18,124,001,3,source,17,MOODILY,LF,target,right,aqua,pleasantness,liberal,no,9,1,0.812060164445,-,-
2019_Oct_18,124,001,3,source,18,TRYING,HF,target,right,aqua,pleasantness,liberal,no,9,1,0.729707990984,-,-
2019_Oct_18,124,001,3,source,19,TREES,HF,target,right,aqua,pleasantness,liberal,no,9,1,0.60029423798,-,-
2019_Oct_18,124,001,3,source,20,AFOOT,LF,target,right,aqua,pleasantness,conservative,no,9,1,0.600330165369,-,-
2019_Oct_18,124,001,3,source,21,VOICE,HF,target,right,aqua,pleasantness,liberal,yes,7,1,0.941422592608,-,-
2019_Oct_18,124,001,3,source,22,BEDLAM,LF,target,right,aqua,pleasantness,conservative,no,9,1,1.34148432906,-,-
2019_Oct_18,124,001,3,source,23,PUPPETS,LF,target,left,yellow,imageability,conservative,no,1,1,1.25896095059,-,-
2019_Oct_18,124,001,3,source,24,UNKEMPT,LF,target,right,aqua,pleasantness,liberal,no,9,1,0.788224908385,-,-
2019_Oct_18,124,001,3,source,25,VEXED,LF,target,right,aqua,pleasantness,liberal,yes,7,1,0.765157325302,-,-
2019_Oct_18,124,001,3,source,26,TIGHTNESS,LF,target,right,aqua,pleasantness,liberal,yes,3,0,0.529718549237,-,-
2019_Oct_18,124,001,3,source,27,THEORY,HF,target,left,yellow,imageability,conservative,no,1,1,1.6591114057,-,-
2019_Oct_18,124,001,3,source,28,EXUDED,LF,target,left,yellow,imageability,liberal,no,1,1,1.40014642244,-,-
2019_Oct_18,124,001,3,source,29,QUESTION,HF,target,right,aqua,pleasantness,conservative,no,9,1,0.764988686539,-,-
2019_Oct_18,124,001,3,source,30,SUMMER,HF,target,left,yellow,imageability,conservative,no,1,1,1.31787013642,-,-
2019_Oct_18,124,001,3,source,31,UNTIL,HF,target,left,yellow,imageability,conservative,no,1,1,0.612180337893,-,-
2019_Oct_18,124,001,3,source,32,TATTERS,LF,target,left,yellow,imageability,conservative,no,3,1,1.50616008071,-,-
2019_Oct_18,124,001,3,source,33,WALKED,HF,target,right,aqua,pleasantness,conservative,no,9,1,0.670862594603,-,-
2019_Oct_18,124,001,3,source,34,PICTURE,HF,target,left,yellow,imageability,liberal,no,7,0,1.40043494136,-,-
2019_Oct_18,124,001,3,source,35,TAKEN,HF,target,right,aqua,pleasantness,conservative,no,9,1,0.729759315825,-,-
2019_Oct_18,124,001,3,source,36,MOCCASINS,LF,target,left,yellow,imageability,liberal,no,1,1,0.788569884636,-,-
2019_Oct_18,124,001,3,source,37,TABLE,HF,target,right,aqua,pleasantness,conservative,no,1,0,0.929806681321,-,-
2019_Oct_18,124,001,3,source,38,EXHALED,LF,target,left,yellow,imageability,liberal,no,1,1,3.43563461699,-,-
2019_Oct_18,124,001,3,source,39,PERHAPS,HF,target,left,yellow,imageability,liberal,no,1,1,1.82382748401,-,-
2019_Oct_18,124,001,3,source,40,RANGE,HF,target,left,yellow,imageability,liberal,no,3,1,1.57654770057,-,-
2019_Oct_18,124,001,3,source,41,BUZZARD,LF,target,left,yellow,imageability,liberal,no,1,1,0.764986853509,-,-
2019_Oct_18,124,001,3,source,42,POACHED,LF,target,right,aqua,pleasantness,conservative,no,9,1,0.741491441216,-,-
2019_Oct_18,124,001,3,source,43,PIRACY,LF,target,left,yellow,imageability,conservative,no,9,0,1.00033654431,-,-
2019_Oct_18,124,001,3,source,44,SCRABBLE,LF,target,right,aqua,pleasantness,liberal,no,9,1,0.623832176569,-,-
2019_Oct_18,124,001,3,source,45,WEDGES,LF,target,left,yellow,imageability,conservative,no,1,1,0.812109289649,-,-
2019_Oct_18,124,001,3,source,46,WOMAN,HF,target,left,yellow,imageability,conservative,no,1,1,1.31797315271,-,-
2019_Oct_18,124,001,3,source,47,EIGHT,HF,target,right,aqua,pleasantness,liberal,no,9,1,0.953238670775,-,-
2019_Oct_18,124,001,3,recog,0,TREES,HF,target,right,aqua,pleasantness,liberal,no,z,1,0.729779845762,3,501
2019_Oct_18,124,001,3,recog,1,MOISTENED,LF,lure,-,-,-,liberal,no,m,1,0.753309719018,1,502
2019_Oct_18,124,001,3,recog,2,MUTATIONS,LF,lure,-,-,-,liberal,no,m,1,0.906408786226,1,503
2019_Oct_18,124,001,3,recog,3,UNKEMPT,LF,target,right,aqua,pleasantness,liberal,no,z,1,0.635613060559,3,506
2019_Oct_18,124,001,3,recog,4,WOMAN,HF,target,left,yellow,imageability,conservative,no,z,1,0.741538733391,1,507
2019_Oct_18,124,001,3,recog,5,HAVING,HF,lure,-,-,-,conservative,no,m,1,0.553215427954,3,510
2019_Oct_18,124,001,3,recog,6,CALLED,HF,lure,-,-,-,liberal,yes,z,0,1.41227154947,-1,509
2019_Oct_18,124,001,3,recog,7,TRYING,HF,target,right,aqua,pleasantness,liberal,no,m,0,1.24730984513,-3,506
2019_Oct_18,124,001,3,recog,8,EXUDED,LF,target,left,yellow,imageability,liberal,no,z,1,0.682587387873,3,509
2019_Oct_18,124,001,3,recog,9,COUNCIL,HF,lure,-,-,-,conservative,no,m,1,0.600581657088,3,512
2019_Oct_18,124,001,3,recog,10,LAXATIVE,LF,lure,-,-,-,conservative,no,m,1,0.62388716747,3,515
2019_Oct_18,124,001,3,recog,11,MOCCASINS,LF,target,left,yellow,imageability,liberal,no,z,1,0.59997859021,3,518
2019_Oct_18,124,001,3,recog,12,PARENTS,HF,lure,-,-,-,liberal,no,m,1,0.600303769736,1,519
2019_Oct_18,124,001,3,recog,13,FLOOR,HF,target,right,aqua,pleasantness,liberal,no,z,1,0.541509331589,3,522
2019_Oct_18,124,001,3,recog,14,POACHED,LF,target,right,aqua,pleasantness,conservative,no,z,1,0.976885491347,1,523
2019_Oct_18,124,001,3,recog,15,JUDICIOUS,LF,lure,-,-,-,conservative,no,m,1,0.69441446422,3,526
2019_Oct_18,124,001,3,recog,16,THANK,HF,lure,-,-,-,conservative,no,m,1,0.553186832685,3,529
2019_Oct_18,124,001,3,recog,17,EIGHT,HF,target,right,aqua,pleasantness,liberal,no,z,1,0.600293504768,3,532
2019_Oct_18,124,001,3,recog,18,HUBBUB,LF,lure,-,-,-,liberal,no,m,1,0.659102607155,1,533
2019_Oct_18,124,001,3,recog,19,QUALITY,HF,target,left,yellow,imageability,conservative,no,z,1,0.717995662318,1,534
2019_Oct_18,124,001,3,recog,20,PLEASE,HF,target,left,yellow,imageability,conservative,no,z,1,0.635624791951,1,535
2019_Oct_18,124,001,3,recog,21,UNTIL,HF,target,left,yellow,imageability,conservative,no,z,1,0.588391640797,1,536
2019_Oct_18,124,001,3,recog,22,WALKED,HF,target,right,aqua,pleasantness,conservative,no,z,1,0.612010232707,1,537
2019_Oct_18,124,001,3,recog,23,APPEARED,HF,lure,-,-,-,conservative,no,m,1,0.882720172569,3,540
2019_Oct_18,124,001,3,recog,24,LARGE,HF,target,left,yellow,imageability,liberal,no,z,1,0.635356069749,3,543
2019_Oct_18,124,001,3,recog,25,CACOPHONY,LF,lure,-,-,-,liberal,no,m,1,0.565027106848,1,544
2019_Oct_18,124,001,3,recog,26,WEDGES,LF,target,left,yellow,imageability,conservative,no,z,1,0.612008399677,1,545
2019_Oct_18,124,001,3,recog,27,WIPERS,LF,target,left,yellow,imageability,conservative,no,z,1,0.506250632395,1,546
2019_Oct_18,124,001,3,recog,28,BURGH,LF,lure,-,-,-,conservative,no,m,1,0.612072555728,3,549
2019_Oct_18,124,001,3,recog,29,VEXED,LF,target,right,aqua,pleasantness,liberal,no,z,1,0.659284077128,3,552
2019_Oct_18,124,001,3,recog,30,BLOOD,HF,lure,-,-,-,conservative,no,m,1,0.659054948374,3,555
2019_Oct_18,124,001,3,recog,31,MOMENT,HF,lure,-,-,-,liberal,no,m,1,0.576834753076,1,556
2019_Oct_18,124,001,3,recog,32,LESSENED,LF,target,right,aqua,pleasantness,conservative,no,z,1,0.63557713317,1,557
2019_Oct_18,124,001,3,recog,33,LOPSIDED,LF,lure,-,-,-,liberal,no,m,1,0.694372671135,1,558
2019_Oct_18,124,001,3,recog,34,ICILY,LF,lure,-,-,-,conservative,no,m,1,0.647131454649,3,561
2019_Oct_18,124,001,3,recog,35,FREEDOM,HF,lure,-,-,-,liberal,no,m,1,0.706101497072,1,562
2019_Oct_18,124,001,3,recog,36,RUSSET,LF,target,left,yellow,imageability,conservative,no,z,1,0.588641666092,1,563
2019_Oct_18,124,001,3,recog,37,MOODILY,LF,target,right,aqua,pleasantness,liberal,no,z,1,0.57678672769,3,566
2019_Oct_18,124,001,3,recog,38,ANIMAL,HF,lure,-,-,-,liberal,no,m,1,0.553204063168,1,567
2019_Oct_18,124,001,3,recog,39,LIZARD,LF,lure,-,-,-,conservative,yes,z,0,1.22362013166,-3,564
2019_Oct_18,124,001,3,recog,40,TAKEN,HF,target,right,aqua,pleasantness,conservative,yes,m,0,0.67082520079,-1,563
2019_Oct_18,124,001,3,recog,41,OCCUPANCY,LF,target,right,aqua,pleasantness,liberal,no,z,1,0.894448998506,3,566
2019_Oct_18,124,001,3,recog,42,WHITE,HF,lure,-,-,-,conservative,no,m,1,0.741493274246,3,569
2019_Oct_18,124,001,3,recog,43,EXHALED,LF,target,left,yellow,imageability,liberal,no,z,1,0.765010682899,3,572
2019_Oct_18,124,001,3,recog,44,PLUGGING,LF,target,right,aqua,pleasantness,conservative,no,z,1,0.859155838347,1,573
2019_Oct_18,124,001,3,recog,45,AUSPICES,LF,target,left,yellow,imageability,liberal,no,m,0,0.753249229028,-3,570
2019_Oct_18,124,001,3,recog,46,MEANS,HF,lure,-,-,-,conservative,no,m,1,1.49464168662,3,573
2019_Oct_18,124,001,3,recog,47,TAILED,LF,lure,-,-,-,liberal,no,m,1,1.04742048682,1,574
2019_Oct_18,124,001,3,recog,48,AFOOT,LF,target,right,aqua,pleasantness,conservative,no,z,1,0.6943033826,1,575
2019_Oct_18,124,001,3,recog,49,SCRABBLE,LF,target,right,aqua,pleasantness,liberal,no,z,1,0.600323566461,3,578
2019_Oct_18,124,001,3,recog,50,ALIAS,LF,lure,-,-,-,liberal,no,m,1,0.647366082492,1,579
2019_Oct_18,124,001,3,recog,51,BUZZARD,LF,target,left,yellow,imageability,liberal,no,z,1,0.529873256972,3,582
2019_Oct_18,124,001,3,recog,52,PIRACY,LF,target,left,yellow,imageability,conservative,no,z,1,0.623839875295,1,583
2019_Oct_18,124,001,3,recog,53,UNLESS,HF,lure,-,-,-,liberal,no,m,1,0.847350025149,1,584
2019_Oct_18,124,001,3,recog,54,THYROID,LF,lure,-,-,-,liberal,no,m,1,0.682686738101,1,585
2019_Oct_18,124,001,3,recog,55,BAGGY,LF,lure,-,-,-,liberal,no,m,1,0.565065600479,1,586
2019_Oct_18,124,001,3,recog,56,PERHAPS,HF,target,left,yellow,imageability,liberal,no,z,1,0.529673456699,3,589
2019_Oct_18,124,001,3,recog,57,TABLE,HF,target,right,aqua,pleasantness,conservative,no,z,1,0.659081710613,1,590
2019_Oct_18,124,001,3,recog,58,WEEKS,HF,lure,-,-,-,conservative,no,m,1,0.588442232425,3,593
2019_Oct_18,124,001,3,recog,59,RANGE,HF,target,left,yellow,imageability,liberal,no,z,1,0.564855901843,3,596
2019_Oct_18,124,001,3,recog,60,LIQUEUR,LF,lure,-,-,-,liberal,no,m,1,0.659245583498,1,597
2019_Oct_18,124,001,3,recog,61,CUDDLE,LF,lure,-,-,-,conservative,no,m,1,0.612035161915,3,600
2019_Oct_18,124,001,3,recog,62,VOICE,HF,target,right,aqua,pleasantness,liberal,no,z,1,0.564994478914,3,603
2019_Oct_18,124,001,3,recog,63,EDUCATION,HF,lure,-,-,-,liberal,no,m,1,0.541206881634,1,604
2019_Oct_18,124,001,3,recog,64,TATTERS,LF,target,left,yellow,imageability,conservative,no,z,1,0.694381836286,1,605
2019_Oct_18,124,001,3,recog,65,HISTORY,HF,lure,-,-,-,liberal,no,m,1,0.494098009916,1,606
2019_Oct_18,124,001,3,recog,66,SOAPY,LF,lure,-,-,-,conservative,no,m,1,0.717784130652,3,609
2019_Oct_18,124,001,3,recog,67,LATER,HF,lure,-,-,-,liberal,no,m,1,0.60029607101,1,610
2019_Oct_18,124,001,3,recog,68,MAYBE,HF,lure,-,-,-,liberal,no,z,0,0.906131632086,-1,609
2019_Oct_18,124,001,3,recog,69,YOUNG,HF,lure,-,-,-,liberal,no,m,1,0.576515072639,1,610
2019_Oct_18,124,001,3,recog,70,CHOICE,HF,target,right,aqua,pleasantness,conservative,no,z,1,0.482596479702,1,611
2019_Oct_18,124,001,3,recog,71,NUCLEAR,HF,lure,-,-,-,conservative,yes,m,1,1.97678100864,3,614
2019_Oct_18,124,001,3,recog,72,CLOSE,HF,target,left,yellow,imageability,liberal,no,m,0,1.2000964907,-3,611
2019_Oct_18,124,001,3,recog,73,TIGHTNESS,LF,target,right,aqua,pleasantness,liberal,no,z,1,0.753279657326,3,614
2019_Oct_18,124,001,3,recog,74,DULLED,LF,lure,-,-,-,conservative,no,m,1,0.694410064948,3,617
2019_Oct_18,124,001,3,recog,75,PUPPETS,LF,target,left,yellow,imageability,conservative,no,z,1,0.635419492588,1,618
2019_Oct_18,124,001,3,recog,76,THEORY,HF,target,left,yellow,imageability,conservative,no,z,1,0.541463139232,1,619
2019_Oct_18,124,001,3,recog,77,PICTURE,HF,target,left,yellow,imageability,liberal,no,m,0,0.64706069969,-3,616
2019_Oct_18,124,001,3,recog,78,RIVER,HF,lure,-,-,-,liberal,no,m,1,0.717764700534,1,617
2019_Oct_18,124,001,3,recog,79,REIGNING,LF,lure,-,-,-,conservative,no,m,1,0.588595473735,3,620
2019_Oct_18,124,001,3,recog,80,PRUDENTLY,LF,lure,-,-,-,liberal,no,m,1,0.729646767782,1,621
2019_Oct_18,124,001,3,recog,81,PECKED,LF,lure,-,-,-,liberal,no,m,1,0.494375897268,1,622
2019_Oct_18,124,001,3,recog,82,ENTIRELY,HF,lure,-,-,-,conservative,no,m,1,0.682715699976,3,625
2019_Oct_18,124,001,3,recog,83,NIBBLE,LF,target,right,aqua,pleasantness,conservative,no,z,1,0.600028815232,1,626
2019_Oct_18,124,001,3,recog,84,BLACK,HF,target,right,aqua,pleasantness,conservative,no,z,1,0.565006943517,1,627
2019_Oct_18,124,001,3,recog,85,MIDDLE,HF,lure,-,-,-,conservative,no,m,1,0.612184370559,3,630
2019_Oct_18,124,001,3,recog,86,BUOYANCY,LF,lure,-,-,-,conservative,no,m,1,0.706091232104,3,633
2019_Oct_18,124,001,3,recog,87,CUPID,LF,target,left,yellow,imageability,liberal,no,z,1,0.58861893652,3,636
2019_Oct_18,124,001,3,recog,88,BEDLAM,LF,target,right,aqua,pleasantness,conservative,no,z,1,0.717921241298,1,637
2019_Oct_18,124,001,3,recog,89,THOUSAND,HF,target,left,yellow,imageability,liberal,no,z,1,0.659128636182,3,640
2019_Oct_18,124,001,3,recog,90,FOLLOWED,HF,target,right,aqua,pleasantness,liberal,no,z,1,0.588348747894,3,643
2019_Oct_18,124,001,3,recog,91,YOGHURT,LF,lure,-,-,-,conservative,no,m,1,0.518064144319,3,646
2019_Oct_18,124,001,3,recog,92,SUMMER,HF,target,left,yellow,imageability,conservative,no,z,1,0.565001811034,1,647
2019_Oct_18,124,001,3,recog,93,POUNDS,HF,lure,-,-,-,conservative,no,m,1,0.788647605109,3,650
2019_Oct_18,124,001,3,recog,94,GASEOUS,LF,lure,-,-,-,conservative,no,m,1,0.506375278437,3,653
2019_Oct_18,124,001,3,recog,95,QUESTION,HF,target,right,aqua,pleasantness,conservative,no,z,1,0.647291294868,1,654
2019_Oct_18,124,001,4,source,0,NAPPY,LF,target,right,aqua,pleasantness,conservative,no,9,1,0.953280097253,-,-
2019_Oct_18,124,001,4,source,1,RAREFIED,LF,target,right,aqua,pleasantness,conservative,no,9,1,1.04734093332,-,-
2019_Oct_18,124,001,4,source,2,HOLED,LF,target,right,aqua,pleasantness,conservative,no,9,1,0.753260593814,-,-
2019_Oct_18,124,001,4,source,3,PIECE,HF,target,left,yellow,imageability,conservative,no,1,1,0.941448255029,-,-
2019_Oct_18,124,001,4,source,4,INEDIBLE,LF,target,right,aqua,pleasantness,liberal,yes,3,0,0.800355167898,-,-
2019_Oct_18,124,001,4,source,5,ITSELF,HF,target,right,aqua,pleasantness,conservative,no,9,1,0.729748317645,-,-
2019_Oct_18,124,001,4,source,6,GADGET,LF,target,left,yellow,imageability,conservative,no,1,1,0.882715773297,-,-
2019_Oct_18,124,001,4,source,7,MOGUL,LF,target,right,aqua,pleasantness,conservative,no,9,1,0.800355167898,-,-
2019_Oct_18,124,001,4,source,8,OMELETTE,LF,target,right,aqua,pleasantness,liberal,no,9,1,0.694465055849,-,-
2019_Oct_18,124,001,4,source,9,OUTSIDE,HF,target,left,yellow,imageability,conservative,no,1,1,1.54152876171,-,-
2019_Oct_18,124,001,4,source,10,SITTING,HF,target,left,yellow,imageability,liberal,no,7,0,1.35335906419,-,-
2019_Oct_18,124,001,4,source,11,AROUND,HF,target,left,yellow,imageability,liberal,no,3,1,0.823807320682,-,-
2019_Oct_18,124,001,4,source,12,ADVERSELY,LF,target,left,yellow,imageability,conservative,no,2,1,1.07083157973,-,-
2019_Oct_18,124,001,4,source,13,PORCHES,LF,target,left,yellow,imageability,liberal,yes,3,1,0.670795139098,-,-
2019_Oct_18,124,001,4,source,14,SUPPORT,HF,target,left,yellow,imageability,liberal,no,1,1,1.22382139835,-,-
2019_Oct_18,124,001,4,source,15,PRIVATE,HF,target,left,yellow,imageability,liberal,no,1,1,1.05911851786,-,-
2019_Oct_18,124,001,4,source,16,LANGUAGE,HF,target,right,aqua,pleasantness,liberal,no,9,1,0.717850119734,-,-
2019_Oct_18,124,001,4,source,17,PROBABLY,HF,target,right,aqua,pleasantness,liberal,no,3,0,0.917913615894,-,-
2019_Oct_18,124,001,4,source,18,SLACKEN,LF,target,right,aqua,pleasantness,liberal,no,9,1,1.30620473332,-,-
2019_Oct_18,124,001,4,source,19,HOWEVER,HF,target,right,aqua,pleasantness,conservative,no,8,1,1.14148535556,-,-
2019_Oct_18,124,001,4,source,20,NURTURING,LF,target,left,yellow,imageability,liberal,no,9,0,2.56489659511,-,-
2019_Oct_18,124,001,4,source,21,OBVIOUSLY,HF,target,left,yellow,imageability,liberal,no,1,1,1.54153169456,-,-
2019_Oct_18,124,001,4,source,22,PELTED,LF,target,left,yellow,imageability,liberal,no,2,1,0.988667841761,-,-
2019_Oct_18,124,001,4,source,23,NUMBER,HF,target,left,yellow,imageability,conservative,no,1,1,0.906004419802,-,-
2019_Oct_18,124,001,4,source,24,INSIDE,HF,target,right,aqua,pleasantness,conservative,no,9,1,1.21191220226,-,-
2019_Oct_18,124,001,4,source,25,MAPPED,LF,target,right,aqua,pleasantness,liberal,no,9,1,0.917919114984,-,-
2019_Oct_18,124,001,4,source,26,PULSAR,LF,target,left,yellow,imageability,conservative,no,1,1,0.800155001019,-,-
2019_Oct_18,124,001,4,source,27,DOGMAS,LF,target,left,yellow,imageability,conservative,no,1,1,0.741492541034,-,-
2019_Oct_18,124,001,4,source,28,STOOD,HF,target,right,aqua,pleasantness,conservative,no,9,1,0.823719335241,-,-
2019_Oct_18,124,001,4,source,29,MESSED,LF,target,left,yellow,imageability,liberal,no,1,1,0.741517103637,-,-
2019_Oct_18,124,001,4,source,30,SOCIAL,HF,target,right,aqua,pleasantness,liberal,yes,7,1,1.07074212787,-,-
2019_Oct_18,124,001,4,source,31,GIBBERISH,LF,target,left,yellow,imageability,liberal,no,1,1,1.02395623604,-,-
2019_Oct_18,124,001,4,source,32,WAITING,HF,target,left,yellow,imageability,conservative,no,9,0,2.88276709814,-,-
2019_Oct_18,124,001,4,source,33,LOTTERY,LF,target,left,yellow,imageability,conservative,no,1,1,1.55311937718,-,-
2019_Oct_18,124,001,4,source,34,RATHER,HF,target,right,aqua,pleasantness,liberal,no,7,1,1.31767436881,-,-
2019_Oct_18,124,001,4,source,35,TELEPHONE,HF,target,right,aqua,pleasantness,conservative,no,9,1,1.01206903631,-,-
2019_Oct_18,124,001,4,source,36,ALDER,LF,target,right,aqua,pleasantness,liberal,no,9,1,0.788452937321,-,-
2019_Oct_18,124,001,4,source,37,MOVED,HF,target,left,yellow,imageability,conservative,no,1,1,1.09439701377,-,-
2019_Oct_18,124,001,4,source,38,TALKING,HF,target,right,aqua,pleasantness,liberal,no,9,1,1.08244125872,-,-
2019_Oct_18,124,001,4,source,39,BAPTIZED,LF,target,right,aqua,pleasantness,conservative,no,9,1,1.44750092018,-,-
2019_Oct_18,124,001,4,source,40,TARIFF,LF,target,left,yellow,imageability,liberal,no,1,1,0.765027180169,-,-
2019_Oct_18,124,001,4,source,41,CUCKOO,LF,target,left,yellow,imageability,conservative,no,1,1,0.835532847165,-,-
2019_Oct_18,124,001,4,source,42,THING,HF,target,left,yellow,imageability,conservative,no,1,1,0.67093261635,-,-
2019_Oct_18,124,001,4,source,43,MYTHIC,LF,target,right,aqua,pleasantness,liberal,no,9,1,0.717918675056,-,-
2019_Oct_18,124,001,4,source,44,SLEEP,HF,target,right,aqua,pleasantness,liberal,no,9,1,1.87092682397,-,-
2019_Oct_18,124,001,4,source,45,SECOND,HF,target,left,yellow,imageability,liberal,no,1,1,0.941610661489,-,-
2019_Oct_18,124,001,4,source,46,CAUGHT,HF,target,right,aqua,pleasantness,conservative,yes,3,0,0.776563537953,-,-
2019_Oct_18,124,001,4,source,47,ERADICATE,LF,target,right,aqua,pleasantness,conservative,no,9,1,1.01203274232,-,-
2019_Oct_18,124,001,4,recog,0,FORCE,HF,lure,-,-,-,liberal,no,m,1,1.25908083076,1,655
2019_Oct_18,124,001,4,recog,1,OBVIOUSLY,HF,target,left,yellow,imageability,liberal,no,z,1,0.741312904092,3,658
2019_Oct_18,124,001,4,recog,2,GIBBERISH,LF,target,left,yellow,imageability,liberal,no,z,1,0.541478536685,3,661
2019_Oct_18,124,001,4,recog,3,SWAGGER,LF,lure,-,-,-,conservative,no,m,1,0.870817575385,3,664
2019_Oct_18,124,001,4,recog,4,REREAD,LF,lure,-,-,-,liberal,no,m,1,0.753252895088,1,665
2019_Oct_18,124,001,4,recog,5,WAGGED,LF,lure,-,-,-,liberal,yes,z,0,1.00025332475,-1,664
2019_Oct_18,124,001,4,recog,6,PORCHES,LF,target,left,yellow,imageability,liberal,no,z,1,0.741420686257,3,667
2019_Oct_18,124,001,4,recog,7,NAPPY,LF,target,right,aqua,pleasantness,conservative,no,m,0,0.65900582317,-1,666
2019_Oct_18,124,001,4,recog,8,ABLAZE,LF,lure,-,-,-,liberal,no,m,1,1.25927146588,1,667
2019_Oct_18,124,001,4,recog,9,NEITHER,HF,lure,-,-,-,conservative,no,m,1,0.800330605296,3,670
2019_Oct_18,124,001,4,recog,10,BUDDIES,LF,lure,-,-,-,liberal,no,m,1,0.823822351528,1,671
2019_Oct_18,124,001,4,recog,11,LIGHT,HF,lure,-,-,-,conservative,no,m,1,0.659152098966,3,674
2019_Oct_18,124,001,4,recog,12,NUMBER,HF,target,left,yellow,imageability,conservative,no,z,1,0.506122686899,1,675
2019_Oct_18,124,001,4,recog,13,LAUNCHER,LF,lure,-,-,-,liberal,no,m,1,0.753275258054,1,676
2019_Oct_18,124,001,4,recog,14,ELATION,LF,lure,-,-,-,liberal,no,m,1,0.694498783601,1,677
2019_Oct_18,124,001,4,recog,15,BEYOND,HF,lure,-,-,-,conservative,yes,z,0,1.05909872113,-3,674
2019_Oct_18,124,001,4,recog,16,LOTTERY,LF,target,left,yellow,imageability,conservative,no,z,1,0.541200649332,1,675
2019_Oct_18,124,001,4,recog,17,NURTURING,LF,target,left,yellow,imageability,liberal,no,z,1,0.988656110369,3,678
2019_Oct_18,124,001,4,recog,18,SUPPORT,HF,target,left,yellow,imageability,liberal,no,z,1,0.564994478913,3,681
2019_Oct_18,124,001,4,recog,19,HOWEVER,HF,target,right,aqua,pleasantness,conservative,no,z,1,0.729458698901,1,682
2019_Oct_18,124,001,4,recog,20,SOCIAL,HF,target,right,aqua,pleasantness,liberal,no,z,1,0.517740064611,3,685
2019_Oct_18,124,001,4,recog,21,LANGUAGE,HF,target,right,aqua,pleasantness,liberal,no,z,1,0.447396804075,3,688
2019_Oct_18,124,001,4,recog,22,PRIVATE,HF,target,left,yellow,imageability,liberal,no,z,1,0.517774892181,3,691
2019_Oct_18,124,001,4,recog,23,SLEEP,HF,target,right,aqua,pleasantness,liberal,no,z,1,0.564938388195,3,694
2019_Oct_18,124,001,4,recog,24,INSIDE,HF,target,right,aqua,pleasantness,conservative,yes,m,0,1.82385974534,-1,693
2019_Oct_18,124,001,4,recog,25,POINT,HF,lure,-,-,-,liberal,no,z,0,0.588486958358,-1,692
2019_Oct_18,124,001,4,recog,26,PULSAR,LF,target,left,yellow,imageability,conservative,no,z,1,0.894342316158,1,693
2019_Oct_18,124,001,4,recog,27,DEGREE,HF,lure,-,-,-,liberal,no,m,1,0.729705424742,1,694
2019_Oct_18,124,001,4,recog,28,INEDIBLE,LF,target,right,aqua,pleasantness,liberal,no,z,1,0.811748915946,3,697
2019_Oct_18,124,001,4,recog,29,OUTSIDE,HF,target,left,yellow,imageability,conservative,no,z,1,0.706168952577,1,698
2019_Oct_18,124,001,4,recog,30,EMPATHY,LF,lure,-,-,-,liberal,no,z,0,0.529656959429,-1,697
2019_Oct_18,124,001,4,recog,31,ADVERSELY,LF,target,left,yellow,imageability,conservative,no,z,1,0.482632773697,1,698
2019_Oct_18,124,001,4,recog,32,TELEPHONE,HF,target,right,aqua,pleasantness,conservative,no,z,1,0.470899181882,1,699
2019_Oct_18,124,001,4,recog,33,OCHRE,LF,lure,-,-,-,conservative,no,m,1,0.576726604304,3,702
2019_Oct_18,124,001,4,recog,34,GENERAL,HF,lure,-,-,-,conservative,no,m,1,0.729720822195,3,705
2019_Oct_18,124,001,4,recog,35,AROUND,HF,target,left,yellow,imageability,liberal,no,z,1,0.564705593381,3,708
2019_Oct_18,124,001,4,recog,36,MOGUL,LF,target,right,aqua,pleasantness,conservative,no,z,1,0.717869916458,1,709
2019_Oct_18,124,001,4,recog,37,TARIFF,LF,target,left,yellow,imageability,liberal,no,z,1,0.482610410731,3,712
2019_Oct_18,124,001,4,recog,38,ITSELF,HF,target,right,aqua,pleasantness,conservative,no,z,1,0.63571387721,1,713
2019_Oct_18,124,001,4,recog,39,WHOLE,HF,lure,-,-,-,liberal,no,m,1,0.541468271716,1,714
2019_Oct_18,124,001,4,recog,40,AQUARIUM,LF,lure,-,-,-,conservative,no,m,1,0.588561745983,3,717
2019_Oct_18,124,001,4,recog,41,PIECE,HF,target,left,yellow,imageability,conservative,no,z,1,0.494417690353,1,718
2019_Oct_18,124,001,4,recog,42,SECOND,HF,target,left,yellow,imageability,liberal,no,z,1,0.470868020372,3,721
2019_Oct_18,124,001,4,recog,43,AFIELD,LF,lure,-,-,-,liberal,no,m,1,0.729657765962,1,722
2019_Oct_18,124,001,4,recog,44,HIGHER,HF,lure,-,-,-,liberal,no,m,1,1.05911155234,1,723
2019_Oct_18,124,001,4,recog,45,INROADS,LF,lure,-,-,-,liberal,no,m,1,0.529817532859,1,724
2019_Oct_18,124,001,4,recog,46,SLACKEN,LF,target,right,aqua,pleasantness,liberal,no,z,1,0.611883020423,3,727
2019_Oct_18,124,001,4,recog,47,SCHOOL,HF,lure,-,-,-,liberal,no,m,1,0.517711102736,1,728
2019_Oct_18,124,001,4,recog,48,HOLED,LF,target,right,aqua,pleasantness,conservative,no,z,1,0.470629359862,1,729
2019_Oct_18,124,001,4,recog,49,APOSTLE,LF,lure,-,-,-,conservative,no,m,1,0.670621367851,3,732
2019_Oct_18,124,001,4,recog,50,LIKELY,HF,lure,-,-,-,liberal,no,m,1,0.906194321713,1,733
2019_Oct_18,124,001,4,recog,51,MUNCH,LF,lure,-,-,-,liberal,no,m,1,0.600512001948,1,734
2019_Oct_18,124,001,4,recog,52,WAITING,HF,target,left,yellow,imageability,conservative,no,z,1,0.694391734648,1,735
2019_Oct_18,124,001,4,recog,53,MAPPED,LF,target,right,aqua,pleasantness,liberal,no,z,1,0.494332271153,3,738
2019_Oct_18,124,001,4,recog,54,PUTTS,LF,lure,-,-,-,conservative,no,m,1,0.541470837959,3,741
2019_Oct_18,124,001,4,recog,55,MESSED,LF,target,left,yellow,imageability,liberal,no,z,1,0.447258593611,3,744
2019_Oct_18,124,001,4,recog,56,ERADICATE,LF,target,right,aqua,pleasantness,conservative,no,z,1,0.494435287441,1,745
2019_Oct_18,124,001,4,recog,57,ALDER,LF,target,right,aqua,pleasantness,liberal,no,z,1,0.588474493753,3,748
2019_Oct_18,124,001,4,recog,58,PSALMS,LF,lure,-,-,-,conservative,no,m,1,0.529391170074,3,751
2019_Oct_18,124,001,4,recog,59,INTEREST,HF,lure,-,-,-,conservative,no,m,1,0.553230825406,3,754
2019_Oct_18,124,001,4,recog,60,DAUGHTER,HF,lure,-,-,-,liberal,no,m,1,0.506106556235,1,755
2019_Oct_18,124,001,4,recog,61,FINAL,HF,lure,-,-,-,conservative,no,m,1,0.470907980426,3,758
2019_Oct_18,124,001,4,recog,62,MATERIAL,HF,lure,-,-,-,conservative,no,m,1,0.564997778368,3,761
2019_Oct_18,124,001,4,recog,63,TALKING,HF,target,right,aqua,pleasantness,liberal,no,z,1,0.588658529969,3,764
2019_Oct_18,124,001,4,recog,64,OPENED,HF,lure,-,-,-,conservative,no,m,1,0.576762531693,3,767
2019_Oct_18,124,001,4,recog,65,FUMING,LF,lure,-,-,-,conservative,no,m,1,0.459089702624,3,770
2019_Oct_18,124,001,4,recog,66,RAREFIED,LF,target,right,aqua,pleasantness,conservative,no,z,1,0.470895882428,1,771
2019_Oct_18,124,001,4,recog,67,WIRING,LF,lure,-,-,-,conservative,no,z,0,0.506198574343,-3,768
2019_Oct_18,124,001,4,recog,68,EVENING,HF,lure,-,-,-,liberal,yes,z,0,1.22362783038,-1,767
2019_Oct_18,124,001,4,recog,69,PELTED,LF,target,left,yellow,imageability,liberal,no,z,1,0.564755085192,3,770
2019_Oct_18,124,001,4,recog,70,PROBABLY,HF,target,right,aqua,pleasantness,liberal,no,z,1,0.470786267233,3,773
2019_Oct_18,124,001,4,recog,71,LOYALIST,LF,lure,-,-,-,conservative,no,m,1,0.494573497905,3,776
2019_Oct_18,124,001,4,recog,72,HOARD,LF,lure,-,-,-,conservative,no,m,1,0.694345908897,3,779
2019_Oct_18,124,001,4,recog,73,SITTING,HF,target,left,yellow,imageability,liberal,no,z,1,0.470916778971,3,782
2019_Oct_18,124,001,4,recog,74,MEMBERS,HF,lure,-,-,-,conservative,no,m,1,0.517826217022,3,785
2019_Oct_18,124,001,4,recog,75,SKETCHY,LF,lure,-,-,-,conservative,no,m,1,0.553291315397,3,788
2019_Oct_18,124,001,4,recog,76,FACILE,LF,lure,-,-,-,liberal,no,m,1,0.658912338638,1,789
2019_Oct_18,124,001,4,recog,77,CUCKOO,LF,target,left,yellow,imageability,conservative,no,z,1,0.564968816494,1,790
2019_Oct_18,124,001,4,recog,78,MAKES,HF,lure,-,-,-,conservative,no,m,1,0.671040398516,3,793
2019_Oct_18,124,001,4,recog,79,BILATERAL,LF,lure,-,-,-,conservative,no,m,1,0.506400574252,3,796
2019_Oct_18,124,001,4,recog,80,CAUGHT,HF,target,right,aqua,pleasantness,conservative,no,z,1,0.576789660538,1,797
2019_Oct_18,124,001,4,recog,81,TOWARDS,HF,lure,-,-,-,conservative,no,m,1,0.576529736879,3,800
2019_Oct_18,124,001,4,recog,82,BREAK,HF,lure,-,-,-,liberal,no,m,1,0.588506388476,1,801
2019_Oct_18,124,001,4,recog,83,GARDEN,HF,lure,-,-,-,conservative,no,m,1,0.600122299764,3,804
2019_Oct_18,124,001,4,recog,84,BAPTIZED,LF,target,right,aqua,pleasantness,conservative,no,z,1,0.612201601042,1,805
2019_Oct_18,124,001,4,recog,85,MYTHIC,LF,target,right,aqua,pleasantness,liberal,no,z,1,0.529548077445,3,808
2019_Oct_18,124,001,4,recog,86,VILLAGE,HF,lure,-,-,-,liberal,no,m,1,0.588470461088,1,809
2019_Oct_18,124,001,4,recog,87,MOVED,HF,target,left,yellow,imageability,conservative,no,z,1,0.564932155893,1,810
2019_Oct_18,124,001,4,recog,88,GADGET,LF,target,left,yellow,imageability,conservative,no,z,1,0.623908064012,1,811
2019_Oct_18,124,001,4,recog,89,DOGMAS,LF,target,left,yellow,imageability,conservative,no,z,1,0.529803601831,1,812
2019_Oct_18,124,001,4,recog,90,RATHER,HF,target,right,aqua,pleasantness,liberal,no,z,1,0.741651281434,3,815
2019_Oct_18,124,001,4,recog,91,OMELETTE,LF,target,right,aqua,pleasantness,liberal,no,z,1,0.494448485257,3,818
2019_Oct_18,124,001,4,recog,92,EARLIER,HF,lure,-,-,-,liberal,no,m,1,0.823868543885,1,819
2019_Oct_18,124,001,4,recog,93,DISARMED,LF,lure,-,-,-,liberal,no,m,1,0.647366082492,1,820
2019_Oct_18,124,001,4,recog,94,THING,HF,target,left,yellow,imageability,conservative,no,z,1,0.517995222391,1,821
2019_Oct_18,124,001,4,recog,95,STOOD,HF,target,right,aqua,pleasantness,conservative,no,z,1,0.459252109084,1,822
