date,subj,session,cycle,task,trial,item,wf,type,source,colour,encoding,bias,null,response,corr,rt,points,total
2019_Oct_22,125,001,0,source,0,ABUSING,LF,target,right,yellow,imageability,conservative,no,9,1,2.4238645562,-,-
2019_Oct_22,125,001,0,source,1,FREEDOM,HF,target,right,yellow,imageability,conservative,no,9,1,0.988325883954,-,-
2019_Oct_22,125,001,0,source,2,WHATEVER,HF,target,left,aqua,pleasantness,liberal,no,1,1,2.11798064628,-,-
2019_Oct_22,125,001,0,source,3,ANIMAL,HF,target,right,yellow,imageability,conservative,no,3,0,2.89431889503,-,-
2019_Oct_22,125,001,0,source,4,INNATELY,LF,target,right,yellow,imageability,conservative,yes,7,1,1.97680280847,-,-
2019_Oct_22,125,001,0,source,5,DRAFTING,LF,target,left,aqua,pleasantness,liberal,no,2,1,3.74128290631,-,-
2019_Oct_22,125,001,0,source,6,JELLIES,LF,target,right,yellow,imageability,liberal,no,9,1,1.34158924005,-,-
2019_Oct_22,125,001,0,source,7,SECOND,HF,target,left,aqua,pleasantness,conservative,no,7,0,2.4708825315,-,-
2019_Oct_22,125,001,0,source,8,DOWDY,LF,target,left,aqua,pleasantness,conservative,no,2,1,1.67088737066,-,-
2019_Oct_22,125,001,0,source,9,SCYTHE,LF,target,left,aqua,pleasantness,conservative,no,2,1,2.16510237031,-,-
2019_Oct_22,125,001,0,source,10,MOMENT,HF,target,right,yellow,imageability,conservative,yes,3,0,2.16500705345,-,-
2019_Oct_22,125,001,0,source,11,CALLED,HF,target,left,aqua,pleasantness,conservative,no,8,0,2.56499326916,-,-
2019_Oct_22,125,001,0,source,12,GOVERNS,LF,target,right,yellow,imageability,conservative,no,8,1,1.50620696077,-,-
2019_Oct_22,125,001,0,source,13,NEITHER,HF,target,right,yellow,imageability,conservative,no,8,1,0.706106218179,-,-
2019_Oct_22,125,001,0,source,14,LEECH,LF,target,left,aqua,pleasantness,liberal,no,1,1,2.09438312393,-,-
2019_Oct_22,125,001,0,source,15,LOOKED,HF,target,right,yellow,imageability,conservative,no,8,1,3.67095372586,-,-
2019_Oct_22,125,001,0,source,16,NUANCE,LF,target,left,aqua,pleasantness,liberal,no,7,0,2.68274368856,-,-
2019_Oct_22,125,001,0,source,17,TAILED,LF,target,left,aqua,pleasantness,liberal,no,3,1,2.72969457544,-,-
2019_Oct_22,125,001,0,source,18,WICKEDLY,LF,target,left,aqua,pleasantness,conservative,no,3,1,3.36510500985,-,-
2019_Oct_22,125,001,0,source,19,CENTRAL,HF,target,left,aqua,pleasantness,conservative,no,7,0,3.81216639098,-,-
2019_Oct_22,125,001,0,source,20,HAUNCHES,LF,target,right,yellow,imageability,liberal,no,7,1,1.41203096772,-,-
2019_Oct_22,125,001,0,source,21,ODOURS,LF,target,right,yellow,imageability,liberal,no,7,1,2.11801913963,-,-
2019_Oct_22,125,001,0,source,22,SENSE,HF,target,left,aqua,pleasantness,liberal,no,8,0,1.50614903745,-,-
2019_Oct_22,125,001,0,source,23,MYSELF,HF,target,right,yellow,imageability,liberal,no,9,1,1.52945730978,-,-
2019_Oct_22,125,001,0,source,24,FIFTIETH,LF,target,right,yellow,imageability,conservative,no,7,1,1.92974963926,-,-
2019_Oct_22,125,001,0,source,25,ANNALS,LF,target,left,aqua,pleasantness,liberal,no,2,1,3.05914411323,-,-
2019_Oct_22,125,001,0,source,26,HOTEL,HF,target,left,aqua,pleasantness,conservative,no,2,1,1.74146034232,-,-
2019_Oct_22,125,001,0,source,27,VOICE,HF,target,left,aqua,pleasantness,liberal,no,2,1,1.10617418643,-,-
2019_Oct_22,125,001,0,source,28,SITTING,HF,target,left,aqua,pleasantness,liberal,no,2,1,2.23548360843,-,-
2019_Oct_22,125,001,0,source,29,GROUND,HF,target,left,aqua,pleasantness,liberal,no,7,0,2.28260753209,-,-
2019_Oct_22,125,001,0,source,30,CANNOT,HF,target,left,aqua,pleasantness,conservative,yes,7,0,1.05908985594,-,-
2019_Oct_22,125,001,0,source,31,LIVED,HF,target,right,yellow,imageability,liberal,no,8,1,2.94155719892,-,-
2019_Oct_22,125,001,0,source,32,MAKES,HF,target,left,aqua,pleasantness,conservative,no,7,0,1.6943400847,-,-
2019_Oct_22,125,001,0,source,33,HAPPEN,HF,target,right,yellow,imageability,liberal,no,8,1,1.08276546479,-,-
2019_Oct_22,125,001,0,source,34,KICKER,LF,target,right,yellow,imageability,liberal,no,9,1,1.69437527862,-,-
2019_Oct_22,125,001,0,source,35,APTLY,LF,target,left,aqua,pleasantness,conservative,no,7,0,1.27081317015,-,-
2019_Oct_22,125,001,0,source,36,SEPULCHRE,LF,target,left,aqua,pleasantness,liberal,no,3,1,1.38852069696,-,-
2019_Oct_22,125,001,0,source,37,ENOUGH,HF,target,right,yellow,imageability,conservative,no,2,0,1.24742277868,-,-
2019_Oct_22,125,001,0,source,38,DIVAN,LF,target,right,yellow,imageability,liberal,no,8,1,1.81209966918,-,-
2019_Oct_22,125,001,0,source,39,MIDDLE,HF,target,left,aqua,pleasantness,liberal,no,2,1,1.85908318376,-,-
2019_Oct_22,125,001,0,source,40,SLACKEN,LF,target,right,yellow,imageability,liberal,no,2,0,1.08265035135,-,-
2019_Oct_22,125,001,0,source,41,WOMAN,HF,target,right,yellow,imageability,liberal,no,1,0,3.153398926,-,-
2019_Oct_22,125,001,0,source,42,EXCEPT,HF,target,right,yellow,imageability,liberal,yes,3,0,0.8003778947,-,-
2019_Oct_22,125,001,0,source,43,NOMAD,LF,target,right,yellow,imageability,conservative,no,7,1,3.10622037845,-,-
2019_Oct_22,125,001,0,source,44,AIDING,LF,target,right,yellow,imageability,conservative,no,7,1,0.800237485629,-,-
2019_Oct_22,125,001,0,source,45,OVENS,LF,target,left,aqua,pleasantness,conservative,no,3,1,2.09423721581,-,-
2019_Oct_22,125,001,0,source,46,TAMING,LF,target,left,aqua,pleasantness,conservative,no,7,0,1.01199599376,-,-
2019_Oct_22,125,001,0,source,47,AROUND,HF,target,right,yellow,imageability,liberal,no,2,0,1.90605386723,-,-
2019_Oct_22,125,001,0,recog,0,TODAY,HF,lure,-,-,-,conservative,no,m,1,1.91791421776,3,3
2019_Oct_22,125,001,0,recog,1,TREES,HF,lure,-,-,-,liberal,no,m,1,1.70617293998,1,4
2019_Oct_22,125,001,0,recog,2,BOWER,LF,lure,-,-,-,conservative,no,m,1,2.03561147967,3,7
2019_Oct_22,125,001,0,recog,3,ANOINTED,LF,lure,-,-,-,conservative,no,m,1,1.20035237911,3,10
2019_Oct_22,125,001,0,recog,4,DIVAN,LF,target,right,yellow,imageability,liberal,no,z,1,1.01203118768,3,13
2019_Oct_22,125,001,0,recog,5,GROUND,HF,target,left,aqua,pleasantness,liberal,no,z,1,2.07097183607,3,16
2019_Oct_22,125,001,0,recog,6,SADDER,LF,lure,-,-,-,liberal,no,m,1,1.24744587469,1,17
2019_Oct_22,125,001,0,recog,7,RIMMED,LF,lure,-,-,-,conservative,no,m,1,0.976560850285,3,20
2019_Oct_22,125,001,0,recog,8,ENOUGH,HF,target,right,yellow,imageability,conservative,no,z,1,1.07062282971,1,21
2019_Oct_22,125,001,0,recog,9,EMOTIVE,LF,lure,-,-,-,conservative,no,m,1,1.98873281364,3,24
2019_Oct_22,125,001,0,recog,10,DEFEATING,LF,lure,-,-,-,conservative,no,m,1,1.08269764318,3,27
2019_Oct_22,125,001,0,recog,11,GOVERNS,LF,target,right,yellow,imageability,conservative,no,z,1,0.80029394254,1,28
2019_Oct_22,125,001,0,recog,12,DEGREE,HF,lure,-,-,-,conservative,no,m,1,1.12968299078,3,31
2019_Oct_22,125,001,0,recog,13,HERSELF,HF,lure,-,-,-,liberal,no,m,1,1.09448210683,1,32
2019_Oct_22,125,001,0,recog,14,CUBED,LF,lure,-,-,-,conservative,no,m,1,0.635586404003,3,35
2019_Oct_22,125,001,0,recog,15,NERVY,LF,lure,-,-,-,conservative,no,z,0,1.05916977546,-3,32
2019_Oct_22,125,001,0,recog,16,MAKES,HF,target,left,aqua,pleasantness,conservative,no,z,1,1.96512319338,1,33
2019_Oct_22,125,001,0,recog,17,ITSELF,HF,lure,-,-,-,conservative,no,m,1,1.6944731617,3,36
2019_Oct_22,125,001,0,recog,18,MEANS,HF,lure,-,-,-,liberal,yes,m,1,1.9412019603,1,37
2019_Oct_22,125,001,0,recog,19,KICKER,LF,target,right,yellow,imageability,liberal,no,z,1,2.28265812334,3,40
2019_Oct_22,125,001,0,recog,20,HAUNCHES,LF,target,right,yellow,imageability,liberal,no,z,1,0.753251404824,3,43
2019_Oct_22,125,001,0,recog,21,LAXATIVE,LF,lure,-,-,-,liberal,no,m,1,1.0236030214,1,44
2019_Oct_22,125,001,0,recog,22,ACACIA,LF,lure,-,-,-,liberal,no,m,1,0.835560448488,1,45
2019_Oct_22,125,001,0,recog,23,ODOURS,LF,target,right,yellow,imageability,liberal,no,z,1,0.882664575561,3,48
2019_Oct_22,125,001,0,recog,24,FREEDOM,HF,target,right,yellow,imageability,conservative,no,m,0,0.870791393914,-1,47
2019_Oct_22,125,001,0,recog,25,WOMAN,HF,target,right,yellow,imageability,liberal,no,z,1,1.23552576781,3,50
2019_Oct_22,125,001,0,recog,26,SECOND,HF,target,left,aqua,pleasantness,conservative,no,z,1,1.82376645316,1,51
2019_Oct_22,125,001,0,recog,27,SNAGS,LF,lure,-,-,-,conservative,no,m,1,0.741481971915,3,54
2019_Oct_22,125,001,0,recog,28,NURTURING,LF,lure,-,-,-,conservative,no,m,1,1.47080664461,3,57
2019_Oct_22,125,001,0,recog,29,FULCRUM,LF,lure,-,-,-,liberal,no,m,1,0.588456614697,1,58
2019_Oct_22,125,001,0,recog,30,FIFTIETH,LF,target,right,yellow,imageability,conservative,no,z,1,1.11796964818,1,59
2019_Oct_22,125,001,0,recog,31,NEEDED,HF,lure,-,-,-,liberal,no,z,0,1.6470566886,-1,58
2019_Oct_22,125,001,0,recog,32,CALLED,HF,target,left,aqua,pleasantness,conservative,no,z,1,1.03561074646,1,59
2019_Oct_22,125,001,0,recog,33,FEELING,HF,lure,-,-,-,liberal,no,z,0,3.25913282185,-1,58
2019_Oct_22,125,001,0,recog,34,TWAIN,LF,lure,-,-,-,liberal,no,m,1,0.788274486169,1,59
2019_Oct_22,125,001,0,recog,35,EFFECT,HF,lure,-,-,-,conservative,no,m,1,1.6709137661,3,62
2019_Oct_22,125,001,0,recog,36,HOTEL,HF,target,left,aqua,pleasantness,conservative,no,z,1,0.717693815842,1,63
2019_Oct_22,125,001,0,recog,37,AVAILABLE,HF,lure,-,-,-,liberal,no,m,1,0.812067408085,1,64
2019_Oct_22,125,001,0,recog,38,SYSTEM,HF,lure,-,-,-,liberal,no,m,1,0.694524119565,1,65
2019_Oct_22,125,001,0,recog,39,MIDDLE,HF,target,left,aqua,pleasantness,liberal,no,z,1,1.02360705403,3,68
2019_Oct_22,125,001,0,recog,40,MATERIAL,HF,lure,-,-,-,conservative,no,m,1,0.670601420075,3,71
2019_Oct_22,125,001,0,recog,41,SITTING,HF,target,left,aqua,pleasantness,liberal,no,z,1,0.976800975458,3,74
2019_Oct_22,125,001,0,recog,42,PLACE,HF,lure,-,-,-,conservative,no,m,1,1.12965732855,3,77
2019_Oct_22,125,001,0,recog,43,DRAFTING,LF,target,left,aqua,pleasantness,liberal,no,z,1,0.906113256962,3,80
2019_Oct_22,125,001,0,recog,44,BURGH,LF,lure,-,-,-,liberal,yes,m,1,1.14146892084,1,81
2019_Oct_22,125,001,0,recog,45,POACHED,LF,lure,-,-,-,conservative,no,m,1,0.953212984796,3,84
2019_Oct_22,125,001,0,recog,46,OVENS,LF,target,left,aqua,pleasantness,conservative,no,z,1,0.670947127003,1,85
2019_Oct_22,125,001,0,recog,47,MYSELF,HF,target,right,yellow,imageability,liberal,no,z,1,1.30588904237,3,88
2019_Oct_22,125,001,0,recog,48,DOWDY,LF,target,left,aqua,pleasantness,conservative,no,z,1,1.14123356151,1,89
2019_Oct_22,125,001,0,recog,49,BAFFLING,LF,lure,-,-,-,conservative,no,m,1,0.917967008634,3,92
2019_Oct_22,125,001,0,recog,50,WHATEVER,HF,target,left,aqua,pleasantness,liberal,no,z,1,1.12968372399,3,95
2019_Oct_22,125,001,0,recog,51,HAPPEN,HF,target,right,yellow,imageability,liberal,no,z,1,0.906130120715,3,98
2019_Oct_22,125,001,0,recog,52,USING,HF,lure,-,-,-,liberal,no,m,1,0.847412733746,1,99
2019_Oct_22,125,001,0,recog,53,POINT,HF,lure,-,-,-,liberal,no,m,1,2.29447961392,1,100
2019_Oct_22,125,001,0,recog,54,TAMING,LF,target,left,aqua,pleasantness,conservative,no,z,1,0.964920095141,1,101
2019_Oct_22,125,001,0,recog,55,PENALIZED,LF,lure,-,-,-,liberal,no,m,1,3.45923481089,1,102
2019_Oct_22,125,001,0,recog,56,INNATELY,LF,target,right,yellow,imageability,conservative,no,z,1,0.811854044954,1,103
2019_Oct_22,125,001,0,recog,57,CANNOT,HF,target,left,aqua,pleasantness,conservative,no,z,1,2.22379152882,1,104
2019_Oct_22,125,001,0,recog,58,BONANZA,LF,lure,-,-,-,conservative,no,m,1,0.776811533634,3,107
2019_Oct_22,125,001,0,recog,59,TAILED,LF,target,left,aqua,pleasantness,liberal,no,z,1,0.729481212313,3,110
2019_Oct_22,125,001,0,recog,60,JELLIES,LF,target,right,yellow,imageability,liberal,no,z,1,0.694358414866,3,113
2019_Oct_22,125,001,0,recog,61,NUANCE,LF,target,left,aqua,pleasantness,liberal,no,z,1,0.635547177448,3,116
2019_Oct_22,125,001,0,recog,62,SENSE,HF,target,left,aqua,pleasantness,liberal,no,z,1,1.01209351024,3,119
2019_Oct_22,125,001,0,recog,63,VOICE,HF,target,left,aqua,pleasantness,liberal,no,z,1,0.588543866286,3,122
2019_Oct_22,125,001,0,recog,64,SCYTHE,LF,target,left,aqua,pleasantness,conservative,yes,m,0,0.506171400249,-1,121
2019_Oct_22,125,001,0,recog,65,QUESTION,HF,lure,-,-,-,conservative,no,m,1,3.36509291194,3,124
2019_Oct_22,125,001,0,recog,66,ROOFED,LF,lure,-,-,-,liberal,no,m,1,2.34154928028,1,125
2019_Oct_22,125,001,0,recog,67,APTLY,LF,target,left,aqua,pleasantness,conservative,no,z,1,1.23544364867,1,126
2019_Oct_22,125,001,0,recog,68,DORMS,LF,lure,-,-,-,liberal,no,m,1,2.75320887884,1,127
2019_Oct_22,125,001,0,recog,69,WICKEDLY,LF,target,left,aqua,pleasantness,conservative,no,z,1,1.04743700289,1,128
2019_Oct_22,125,001,0,recog,70,AROUND,HF,target,right,yellow,imageability,liberal,no,z,1,1.12974458014,3,131
2019_Oct_22,125,001,0,recog,71,SEPULCHRE,LF,target,left,aqua,pleasantness,liberal,no,z,1,2.05914228021,3,134
2019_Oct_22,125,001,0,recog,72,LIVED,HF,target,right,yellow,imageability,liberal,no,z,1,0.882433615471,3,137
2019_Oct_22,125,001,0,recog,73,SINCE,HF,lure,-,-,-,liberal,no,m,1,0.812017550034,1,138
2019_Oct_22,125,001,0,recog,74,NEITHER,HF,target,right,yellow,imageability,conservative,no,z,1,0.847433996739,1,139
2019_Oct_22,125,001,0,recog,75,ABUSING,LF,target,right,yellow,imageability,conservative,yes,m,0,0.447347698318,-1,138
2019_Oct_22,125,001,0,recog,76,ALREADY,HF,lure,-,-,-,conservative,no,z,0,4.22404705134,-3,135
2019_Oct_22,125,001,0,recog,77,AIDING,LF,target,right,yellow,imageability,conservative,no,z,1,0.953298036766,1,136
2019_Oct_22,125,001,0,recog,78,CENTRAL,HF,target,left,aqua,pleasantness,conservative,no,z,1,3.48248919253,1,137
2019_Oct_22,125,001,0,recog,79,ANIMAL,HF,target,right,yellow,imageability,conservative,no,z,1,0.753250305014,1,138
2019_Oct_22,125,001,0,recog,80,NOMAD,LF,target,right,yellow,imageability,conservative,no,z,1,1.08268591187,1,139
2019_Oct_22,125,001,0,recog,81,LEECH,LF,target,left,aqua,pleasantness,liberal,no,z,1,0.906214806081,3,142
2019_Oct_22,125,001,0,recog,82,NEPHEWS,LF,lure,-,-,-,liberal,no,m,1,0.859234590929,1,143
2019_Oct_22,125,001,0,recog,83,EXCEPT,HF,target,right,yellow,imageability,liberal,no,z,1,1.8942158795,3,146
2019_Oct_22,125,001,0,recog,84,BEHIND,HF,lure,-,-,-,conservative,no,m,1,0.812091237301,3,149
2019_Oct_22,125,001,0,recog,85,ANNALS,LF,target,left,aqua,pleasantness,liberal,no,z,1,1.21214344161,3,152
2019_Oct_22,125,001,0,recog,86,SLACKEN,LF,target,right,yellow,imageability,liberal,no,z,1,1.4591471927,3,155
2019_Oct_22,125,001,0,recog,87,KILOWATT,LF,lure,-,-,-,liberal,no,m,1,0.929821126909,1,156
2019_Oct_22,125,001,0,recog,88,SUMMER,HF,lure,-,-,-,conservative,no,m,1,0.741650609441,3,159
2019_Oct_22,125,001,0,recog,89,MEETING,HF,lure,-,-,-,conservative,no,m,1,1.29448657939,3,162
2019_Oct_22,125,001,0,recog,90,LOOKED,HF,target,right,yellow,imageability,conservative,no,z,1,0.76500727341,1,163
2019_Oct_22,125,001,0,recog,91,SOMEONE,HF,lure,-,-,-,liberal,no,z,0,2.87104654982,-1,162
2019_Oct_22,125,001,0,recog,92,MOMENT,HF,target,right,yellow,imageability,conservative,no,m,0,1.38829706893,-1,161
2019_Oct_22,125,001,0,recog,93,ALLOWED,HF,lure,-,-,-,conservative,no,m,1,1.74127154161,3,164
2019_Oct_22,125,001,0,recog,94,ANAEMIC,LF,lure,-,-,-,liberal,no,m,1,1.4474012224,1,165
2019_Oct_22,125,001,0,recog,95,WITHIN,HF,lure,-,-,-,liberal,no,z,0,1.36512627285,-1,164
2019_Oct_22,125,001,1,source,0,RECENT,HF,target,left,aqua,pleasantness,conservative,no,7,0,2.800410889,-,-
2019_Oct_22,125,001,1,source,1,INVOLVED,HF,target,left,aqua,pleasantness,conservative,no,7,0,1.72979759098,-,-
2019_Oct_22,125,001,1,source,2,CONCERNED,HF,target,right,yellow,imageability,conservative,no,7,1,1.61203177424,-,-
2019_Oct_22,125,001,1,source,3,HEDGED,LF,target,right,yellow,imageability,conservative,no,9,1,2.00031087961,-,-
2019_Oct_22,125,001,1,source,4,ENMESHED,LF,target,right,yellow,imageability,conservative,no,2,0,1.98855281141,-,-
2019_Oct_22,125,001,1,source,5,IMPORTANT,HF,target,left,aqua,pleasantness,liberal,no,3,1,1.47080371179,-,-
2019_Oct_22,125,001,1,source,6,AUDACIOUS,LF,target,left,aqua,pleasantness,conservative,no,1,1,2.48263326764,-,-
2019_Oct_22,125,001,1,source,7,BLOOD,HF,target,right,yellow,imageability,conservative,yes,7,1,1.29433883825,-,-
2019_Oct_22,125,001,1,source,8,JACKALS,LF,target,right,yellow,imageability,liberal,no,8,1,2.88270563513,-,-
2019_Oct_22,125,001,1,source,9,SUBJECT,HF,target,right,yellow,imageability,conservative,no,9,1,1.31797522055,-,-
2019_Oct_22,125,001,1,source,10,INJECT,LF,target,left,aqua,pleasantness,conservative,no,9,0,1.25938394512,-,-
2019_Oct_22,125,001,1,source,11,INACTION,LF,target,left,aqua,pleasantness,liberal,yes,7,0,0.682652770935,-,-
2019_Oct_22,125,001,1,source,12,PAGANISM,LF,target,left,aqua,pleasantness,liberal,no,2,1,3.37678022571,-,-
2019_Oct_22,125,001,1,source,13,INCLUDING,HF,target,left,aqua,pleasantness,conservative,no,1,1,1.27073838307,-,-
2019_Oct_22,125,001,1,source,14,THUDDING,LF,target,right,yellow,imageability,liberal,no,1,0,0.776764241806,-,-
2019_Oct_22,125,001,1,source,15,VARIOUS,HF,target,left,aqua,pleasantness,liberal,no,8,0,3.57699036273,-,-
2019_Oct_22,125,001,1,source,16,AEONS,LF,target,right,yellow,imageability,liberal,no,8,1,0.823802746885,-,-
2019_Oct_22,125,001,1,source,17,APOSTLE,LF,target,right,yellow,imageability,conservative,no,8,1,1.67084557788,-,-
2019_Oct_22,125,001,1,source,18,SOUND,HF,target,right,yellow,imageability,conservative,no,1,0,2.52970000117,-,-
2019_Oct_22,125,001,1,source,19,TIDILY,LF,target,left,aqua,pleasantness,conservative,no,8,0,3.21209065074,-,-
2019_Oct_22,125,001,1,source,20,ROUND,HF,target,left,aqua,pleasantness,liberal,yes,7,0,0.647361335961,-,-
2019_Oct_22,125,001,1,source,21,TEXTURES,LF,target,right,yellow,imageability,liberal,no,9,1,2.15334063607,-,-
2019_Oct_22,125,001,1,source,22,HAVING,HF,target,left,aqua,pleasantness,conservative,no,8,0,1.70594747894,-,-
2019_Oct_22,125,001,1,source,23,GORGED,LF,target,left,aqua,pleasantness,liberal,no,7,0,0.965057937988,-,-
2019_Oct_22,125,001,1,source,24,RANGE,HF,target,right,yellow,imageability,liberal,no,9,1,2.47086970038,-,-
2019_Oct_22,125,001,1,source,25,VAINLY,LF,target,right,yellow,imageability,conservative,no,3,0,2.82392739201,-,-
2019_Oct_22,125,001,1,source,26,JEALOUSLY,LF,target,left,aqua,pleasantness,liberal,no,1,1,1.0356261438,-,-
2019_Oct_22,125,001,1,source,27,PRIVATE,HF,target,right,yellow,imageability,liberal,no,2,0,2.89449486462,-,-
2019_Oct_22,125,001,1,source,28,OBVIOUSLY,HF,target,left,aqua,pleasantness,liberal,no,1,1,0.97682663769,-,-
2019_Oct_22,125,001,1,source,29,BOVINE,LF,target,left,aqua,pleasantness,conservative,no,3,1,1.31799428392,-,-
2019_Oct_22,125,001,1,source,30,INORGANIC,LF,target,right,yellow,imageability,conservative,no,9,1,1.16503601511,-,-
2019_Oct_22,125,001,1,source,31,MOUTH,HF,target,left,aqua,pleasantness,conservative,no,9,0,2.04741060745,-,-
2019_Oct_22,125,001,1,source,32,BRING,HF,target,right,yellow,imageability,liberal,no,7,1,2.58836569707,-,-
2019_Oct_22,125,001,1,source,33,MACARONI,LF,target,left,aqua,pleasantness,liberal,no,1,1,2.07066755531,-,-
2019_Oct_22,125,001,1,source,34,MORNING,HF,target,left,aqua,pleasantness,liberal,no,1,1,1.21205765644,-,-
2019_Oct_22,125,001,1,source,35,POSITION,HF,target,left,aqua,pleasantness,liberal,no,1,1,1.20014598144,-,-
2019_Oct_22,125,001,1,source,36,UNION,HF,target,right,yellow,imageability,conservative,yes,3,0,0.823835007977,-,-
2019_Oct_22,125,001,1,source,37,SMALL,HF,target,right,yellow,imageability,liberal,no,9,1,1.85915723763,-,-
2019_Oct_22,125,001,1,source,38,DEDICATE,LF,target,right,yellow,imageability,liberal,no,7,1,2.12968629021,-,-
2019_Oct_22,125,001,1,source,39,LAUNCHER,LF,target,right,yellow,imageability,conservative,no,7,1,2.67072386558,-,-
2019_Oct_22,125,001,1,source,40,HECTOR,LF,target,left,aqua,pleasantness,conservative,no,7,0,1.81187384153,-,-
2019_Oct_22,125,001,1,source,41,SHALL,HF,target,right,yellow,imageability,liberal,no,3,0,2.21210128223,-,-
2019_Oct_22,125,001,1,source,42,ANYONE,HF,target,right,yellow,imageability,liberal,no,7,1,2.10616025551,-,-
2019_Oct_22,125,001,1,source,43,INROADS,LF,target,right,yellow,imageability,liberal,no,9,1,1.5886010564,-,-
2019_Oct_22,125,001,1,source,44,TRIED,HF,target,left,aqua,pleasantness,conservative,no,2,1,3.20037070927,-,-
2019_Oct_22,125,001,1,source,45,MANDARIN,LF,target,left,aqua,pleasantness,conservative,no,1,1,1.08272367202,-,-
2019_Oct_22,125,001,1,source,46,GIMMICKS,LF,target,left,aqua,pleasantness,liberal,no,1,1,0.812127897633,-,-
2019_Oct_22,125,001,1,source,47,MEMBERS,HF,target,right,yellow,imageability,conservative,no,9,1,1.8944373079,-,-
2019_Oct_22,125,001,1,recog,0,JARRED,LF,lure,-,-,-,conservative,no,m,1,1.51787044532,3,167
2019_Oct_22,125,001,1,recog,1,PLIABLE,LF,lure,-,-,-,conservative,no,m,1,1.1650022876,3,170
2019_Oct_22,125,001,1,recog,2,GOBBLE,LF,lure,-,-,-,conservative,no,m,1,0.812099302574,3,173
2019_Oct_22,125,001,1,recog,3,MANDARIN,LF,target,left,aqua,pleasantness,conservative,no,z,1,0.776498087797,1,174
2019_Oct_22,125,001,1,recog,4,HOODLUMS,LF,lure,-,-,-,conservative,no,z,0,1.49419630288,-3,171
2019_Oct_22,125,001,1,recog,5,INJECT,LF,target,left,aqua,pleasantness,conservative,no,z,1,0.894212213463,1,172
2019_Oct_22,125,001,1,recog,6,TITAN,LF,lure,-,-,-,liberal,yes,m,1,0.835653932334,1,173
2019_Oct_22,125,001,1,recog,7,HANDS,HF,lure,-,-,-,conservative,no,m,1,1.6590680797,3,176
2019_Oct_22,125,001,1,recog,8,MUMBLES,LF,lure,-,-,-,liberal,no,m,1,0.976797676028,1,177
2019_Oct_22,125,001,1,recog,9,ORBITAL,LF,lure,-,-,-,conservative,no,m,1,1.00034827315,3,180
2019_Oct_22,125,001,1,recog,10,COMES,HF,lure,-,-,-,conservative,no,m,1,0.753303462495,3,183
2019_Oct_22,125,001,1,recog,11,BELIEVE,HF,lure,-,-,-,liberal,no,m,1,0.894371685906,1,184
2019_Oct_22,125,001,1,recog,12,TEXTURES,LF,target,right,yellow,imageability,liberal,no,z,1,1.5297025674,3,187
2019_Oct_22,125,001,1,recog,13,HEDGED,LF,target,right,yellow,imageability,conservative,no,m,0,0.96510559642,-1,186
2019_Oct_22,125,001,1,recog,14,MACARONI,LF,target,left,aqua,pleasantness,liberal,no,z,1,0.929735341733,3,189
2019_Oct_22,125,001,1,recog,15,SHIELDING,LF,lure,-,-,-,liberal,no,m,1,1.57679166373,1,190
2019_Oct_22,125,001,1,recog,16,BRING,HF,target,right,yellow,imageability,liberal,no,z,1,1.00032114451,3,193
2019_Oct_22,125,001,1,recog,17,HECTOR,LF,target,left,aqua,pleasantness,conservative,no,z,1,0.576819158983,1,194
2019_Oct_22,125,001,1,recog,18,COUNCIL,HF,lure,-,-,-,conservative,no,m,1,1.07082592795,3,197
2019_Oct_22,125,001,1,recog,19,ANYONE,HF,target,right,yellow,imageability,liberal,no,z,1,0.847359209662,3,200
2019_Oct_22,125,001,1,recog,20,AEONS,LF,target,right,yellow,imageability,liberal,no,z,1,0.89442411018,3,203
2019_Oct_22,125,001,1,recog,21,TOWARDS,HF,lure,-,-,-,liberal,no,m,1,1.05914447983,1,204
2019_Oct_22,125,001,1,recog,22,POSITION,HF,target,left,aqua,pleasantness,liberal,no,z,1,0.882626448816,3,207
2019_Oct_22,125,001,1,recog,23,AUDACIOUS,LF,target,left,aqua,pleasantness,conservative,no,z,1,1.0002650542,1,208
2019_Oct_22,125,001,1,recog,24,INCLUDING,HF,target,left,aqua,pleasantness,conservative,no,z,1,1.08269471035,1,209
2019_Oct_22,125,001,1,recog,25,BLACK,HF,lure,-,-,-,conservative,no,m,1,0.74144934422,3,212
2019_Oct_22,125,001,1,recog,26,ARCADES,LF,lure,-,-,-,conservative,no,m,1,1.01206491518,3,215
2019_Oct_22,125,001,1,recog,27,HOURS,HF,lure,-,-,-,liberal,no,m,1,0.741507634148,1,216
2019_Oct_22,125,001,1,recog,28,MORNING,HF,target,left,aqua,pleasantness,liberal,no,z,1,0.753216944112,3,219
2019_Oct_22,125,001,1,recog,29,HOSPITAL,HF,lure,-,-,-,liberal,no,m,1,0.788535874334,1,220
2019_Oct_22,125,001,1,recog,30,CUCKOO,LF,lure,-,-,-,liberal,no,m,1,0.682602912883,1,221
2019_Oct_22,125,001,1,recog,31,NORTH,HF,lure,-,-,-,conservative,no,m,1,0.753272301213,3,224
2019_Oct_22,125,001,1,recog,32,INACTION,LF,target,left,aqua,pleasantness,liberal,no,z,1,1.81176532695,3,227
2019_Oct_22,125,001,1,recog,33,VAINLY,LF,target,right,yellow,imageability,conservative,no,z,1,0.717715445438,1,228
2019_Oct_22,125,001,1,recog,34,PAGANISM,LF,target,left,aqua,pleasantness,liberal,no,z,1,1.01202495542,3,231
2019_Oct_22,125,001,1,recog,35,JACKALS,LF,target,right,yellow,imageability,liberal,yes,z,1,1.16512143368,3,234
2019_Oct_22,125,001,1,recog,36,CONCERNED,HF,target,right,yellow,imageability,conservative,no,z,1,5.22384065367,1,235
2019_Oct_22,125,001,1,recog,37,ROUND,HF,target,left,aqua,pleasantness,liberal,no,z,1,1.21214270841,3,238
2019_Oct_22,125,001,1,recog,38,ADHERE,LF,lure,-,-,-,liberal,no,m,1,1.28263979318,1,239
2019_Oct_22,125,001,1,recog,39,GIMMICKS,LF,target,left,aqua,pleasantness,liberal,no,z,1,1.11789119507,3,242
2019_Oct_22,125,001,1,recog,40,ERUDITE,LF,lure,-,-,-,conservative,no,m,1,0.800307873466,3,245
2019_Oct_22,125,001,1,recog,41,KANGAROO,LF,lure,-,-,-,conservative,no,m,1,0.953142596959,3,248
2019_Oct_22,125,001,1,recog,42,APOSTLE,LF,target,right,yellow,imageability,conservative,no,z,1,0.800414188428,1,249
2019_Oct_22,125,001,1,recog,43,NAIVELY,LF,lure,-,-,-,conservative,no,z,0,0.564968706741,-3,246
2019_Oct_22,125,001,1,recog,44,AVENGE,LF,lure,-,-,-,liberal,no,m,1,2.01204878464,1,247
2019_Oct_22,125,001,1,recog,45,MEMBERS,HF,target,right,yellow,imageability,conservative,no,z,1,0.670921464771,1,248
2019_Oct_22,125,001,1,recog,46,INROADS,LF,target,right,yellow,imageability,liberal,no,z,1,0.906308289927,3,251
2019_Oct_22,125,001,1,recog,47,ENMESHED,LF,target,right,yellow,imageability,conservative,no,m,0,1.12970572019,-1,250
2019_Oct_22,125,001,1,recog,48,PRIVATE,HF,target,right,yellow,imageability,liberal,no,z,1,0.941517239155,3,253
2019_Oct_22,125,001,1,recog,49,MILES,HF,lure,-,-,-,liberal,no,m,1,0.776777072922,1,254
2019_Oct_22,125,001,1,recog,50,BYPASS,LF,lure,-,-,-,conservative,no,m,1,0.89435005631,3,257
2019_Oct_22,125,001,1,recog,51,BOVINE,LF,target,left,aqua,pleasantness,conservative,no,z,1,0.765009106426,1,258
2019_Oct_22,125,001,1,recog,52,VARIOUS,HF,target,left,aqua,pleasantness,liberal,no,z,1,1.70619346977,3,261
2019_Oct_22,125,001,1,recog,53,UNION,HF,target,right,yellow,imageability,conservative,no,z,1,1.29437696499,1,262
2019_Oct_22,125,001,1,recog,54,BULBOUS,LF,lure,-,-,-,conservative,no,m,1,1.56508785282,3,265
2019_Oct_22,125,001,1,recog,55,HAVING,HF,target,left,aqua,pleasantness,conservative,no,z,1,1.03571192898,1,266
2019_Oct_22,125,001,1,recog,56,EITHER,HF,lure,-,-,-,liberal,no,m,1,1.56502846308,1,267
2019_Oct_22,125,001,1,recog,57,DEDICATE,LF,target,right,yellow,imageability,liberal,no,z,1,3.30621311971,3,270
2019_Oct_22,125,001,1,recog,58,OUGHT,HF,lure,-,-,-,conservative,no,m,1,1.37649317531,3,273
2019_Oct_22,125,001,1,recog,59,TRIED,HF,target,left,aqua,pleasantness,conservative,no,z,1,0.717914511039,1,274
2019_Oct_22,125,001,1,recog,60,STOOD,HF,lure,-,-,-,conservative,no,m,1,1.08266721511,3,277
2019_Oct_22,125,001,1,recog,61,BLOOD,HF,target,right,yellow,imageability,conservative,yes,m,0,0.482681292673,-1,276
2019_Oct_22,125,001,1,recog,62,OBVIOUSLY,HF,target,left,aqua,pleasantness,liberal,no,z,1,2.40035721827,3,279
2019_Oct_22,125,001,1,recog,63,LAUNCHER,LF,target,right,yellow,imageability,conservative,no,z,1,0.9648603388,1,280
2019_Oct_22,125,001,1,recog,64,EASILY,HF,lure,-,-,-,liberal,no,z,0,2.96506233723,-1,279
2019_Oct_22,125,001,1,recog,65,SUBJECT,HF,target,right,yellow,imageability,conservative,no,z,1,0.89435555536,1,280
2019_Oct_22,125,001,1,recog,66,IMPORTANT,HF,target,left,aqua,pleasantness,liberal,no,z,1,0.988459694165,3,283
2019_Oct_22,125,001,1,recog,67,TIDILY,LF,target,left,aqua,pleasantness,conservative,no,z,1,0.529503868398,1,284
2019_Oct_22,125,001,1,recog,68,LIKELY,HF,lure,-,-,-,liberal,no,z,0,0.612062202318,-1,283
2019_Oct_22,125,001,1,recog,69,UNFAILING,LF,lure,-,-,-,liberal,no,z,0,0.823597082424,-1,282
2019_Oct_22,125,001,1,recog,70,ADDED,HF,lure,-,-,-,conservative,no,m,1,2.28273914268,3,285
2019_Oct_22,125,001,1,recog,71,DECIDED,HF,lure,-,-,-,conservative,no,m,1,3.42387372129,3,288
2019_Oct_22,125,001,1,recog,72,BUSINESS,HF,lure,-,-,-,conservative,no,m,1,0.647391397433,3,291
2019_Oct_22,125,001,1,recog,73,DELEGATED,LF,lure,-,-,-,liberal,no,z,0,2.01204145257,-1,290
2019_Oct_22,125,001,1,recog,74,DRINK,HF,lure,-,-,-,liberal,no,m,1,0.447382525633,1,291
2019_Oct_22,125,001,1,recog,75,ATONEMENT,LF,lure,-,-,-,liberal,no,m,1,0.670958858309,1,292
2019_Oct_22,125,001,1,recog,76,TOKENS,LF,lure,-,-,-,conservative,no,m,1,0.694475361324,3,295
2019_Oct_22,125,001,1,recog,77,SMALL,HF,target,right,yellow,imageability,liberal,no,z,1,0.870972495953,3,298
2019_Oct_22,125,001,1,recog,78,RECENT,HF,target,left,aqua,pleasantness,conservative,no,m,0,1.24717972068,-1,297
2019_Oct_22,125,001,1,recog,79,INORGANIC,LF,target,right,yellow,imageability,conservative,no,z,1,0.776717316581,1,298
2019_Oct_22,125,001,1,recog,80,THUDDING,LF,target,right,yellow,imageability,liberal,no,z,1,0.71796326928,3,301
2019_Oct_22,125,001,1,recog,81,CUPID,LF,lure,-,-,-,liberal,no,m,1,0.89435115612,1,302
2019_Oct_22,125,001,1,recog,82,SMUDGE,LF,lure,-,-,-,liberal,no,m,1,1.62381880411,1,303
2019_Oct_22,125,001,1,recog,83,SHALL,HF,target,right,yellow,imageability,liberal,no,z,1,0.753270101593,3,306
2019_Oct_22,125,001,1,recog,84,RANGE,HF,target,right,yellow,imageability,liberal,yes,z,1,0.847349311372,3,309
2019_Oct_22,125,001,1,recog,85,WRITE,HF,lure,-,-,-,liberal,no,m,1,3.34152178504,1,310
2019_Oct_22,125,001,1,recog,86,INVOLVED,HF,target,left,aqua,pleasantness,conservative,no,z,1,0.847282956172,1,311
2019_Oct_22,125,001,1,recog,87,SIMILAR,HF,lure,-,-,-,conservative,no,m,1,1.94144611811,3,314
2019_Oct_22,125,001,1,recog,88,WHITE,HF,lure,-,-,-,liberal,no,m,1,0.765058597874,1,315
2019_Oct_22,125,001,1,recog,89,SOUND,HF,target,right,yellow,imageability,conservative,no,z,1,0.741518632247,1,316
2019_Oct_22,125,001,1,recog,90,GORGED,LF,target,left,aqua,pleasantness,liberal,no,z,1,0.717947138734,3,319
2019_Oct_22,125,001,1,recog,91,TRYING,HF,lure,-,-,-,liberal,no,z,0,0.906246333967,-1,318
2019_Oct_22,125,001,1,recog,92,AUBURN,LF,lure,-,-,-,liberal,no,m,1,1.52973116245,1,319
2019_Oct_22,125,001,1,recog,93,BEYOND,HF,lure,-,-,-,conservative,no,m,1,1.0120007596,3,322
2019_Oct_22,125,001,1,recog,94,JEALOUSLY,LF,target,left,aqua,pleasantness,liberal,no,z,1,0.612069900988,3,325
2019_Oct_22,125,001,1,recog,95,MOUTH,HF,target,left,aqua,pleasantness,conservative,no,z,1,0.647328708266,1,326
2019_Oct_22,125,001,2,source,0,PAPER,HF,target,right,yellow,imageability,liberal,no,7,1,3.70604719504,-,-
2019_Oct_22,125,001,2,source,1,HOVELS,LF,target,left,aqua,pleasantness,conservative,no,7,0,1.29421126029,-,-
2019_Oct_22,125,001,2,source,2,ZEALOTS,LF,target,left,aqua,pleasantness,conservative,no,3,1,1.9297866662,-,-
2019_Oct_22,125,001,2,source,3,BROUGHT,HF,target,left,aqua,pleasantness,liberal,yes,3,1,1.08244835292,-,-
2019_Oct_22,125,001,2,source,4,DOUBT,HF,target,left,aqua,pleasantness,liberal,no,7,0,2.10619105019,-,-
2019_Oct_22,125,001,2,source,5,DERANGED,LF,target,right,yellow,imageability,conservative,no,9,1,2.07091061331,-,-
2019_Oct_22,125,001,2,source,6,SANDAL,LF,target,right,yellow,imageability,conservative,no,8,1,1.42379416837,-,-
2019_Oct_22,125,001,2,source,7,DEPARTS,LF,target,right,yellow,imageability,liberal,no,9,1,1.3415177524,-,-
2019_Oct_22,125,001,2,source,8,CLUBBED,LF,target,right,yellow,imageability,liberal,no,9,1,0.823752522231,-,-
2019_Oct_22,125,001,2,source,9,CEASELESS,LF,target,right,yellow,imageability,liberal,no,9,1,0.953078441379,-,-
2019_Oct_22,125,001,2,source,10,WHETHER,HF,target,left,aqua,pleasantness,conservative,no,3,1,1.42380479986,-,-
2019_Oct_22,125,001,2,source,11,DAUGHTER,HF,target,left,aqua,pleasantness,liberal,no,2,1,1.75341637632,-,-
2019_Oct_22,125,001,2,source,12,GAPED,LF,target,right,yellow,imageability,conservative,no,3,0,1.49442176392,-,-
2019_Oct_22,125,001,2,source,13,AUSPICES,LF,target,left,aqua,pleasantness,conservative,no,7,0,1.40017025058,-,-
2019_Oct_22,125,001,2,source,14,GIVEN,HF,target,right,yellow,imageability,conservative,no,7,1,1.11798981136,-,-
2019_Oct_22,125,001,2,source,15,ARSENALS,LF,target,right,yellow,imageability,conservative,no,8,1,1.61209006417,-,-
2019_Oct_22,125,001,2,source,16,CORNER,HF,target,right,yellow,imageability,conservative,no,9,1,1.05913678116,-,-
2019_Oct_22,125,001,2,source,17,FAMILY,HF,target,right,yellow,imageability,conservative,no,8,1,1.90622690399,-,-
2019_Oct_22,125,001,2,source,18,REACHED,HF,target,right,yellow,imageability,liberal,yes,7,1,0.694589374956,-,-
2019_Oct_22,125,001,2,source,19,LANGUAGE,HF,target,left,aqua,pleasantness,liberal,no,7,0,1.7765648096,-,-
2019_Oct_22,125,001,2,source,20,SUPPORT,HF,target,left,aqua,pleasantness,conservative,no,3,1,1.50612997407,-,-
2019_Oct_22,125,001,2,source,21,RIVER,HF,target,left,aqua,pleasantness,conservative,no,7,0,2.35314494322,-,-
2019_Oct_22,125,001,2,source,22,KITCHEN,HF,target,right,yellow,imageability,conservative,no,7,1,2.0000769867,-,-
2019_Oct_22,125,001,2,source,23,HUDDLE,LF,target,left,aqua,pleasantness,conservative,no,2,1,2.16483071725,-,-
2019_Oct_22,125,001,2,source,24,INUNDATED,LF,target,left,aqua,pleasantness,liberal,no,3,1,2.68277741606,-,-
2019_Oct_22,125,001,2,source,25,PERHAPS,HF,target,right,yellow,imageability,conservative,no,7,1,1.0943581949,-,-
2019_Oct_22,125,001,2,source,26,TAGGED,LF,target,left,aqua,pleasantness,liberal,no,1,1,2.694616137,-,-
2019_Oct_22,125,001,2,source,27,TROUBLE,HF,target,right,yellow,imageability,liberal,no,2,0,1.85923532414,-,-
2019_Oct_22,125,001,2,source,28,UNPACK,LF,target,left,aqua,pleasantness,liberal,no,1,1,1.83563046972,-,-
2019_Oct_22,125,001,2,source,29,FRONT,HF,target,right,yellow,imageability,liberal,no,3,0,3.02381821755,-,-
2019_Oct_22,125,001,2,source,30,TELEPHONE,HF,target,right,yellow,imageability,liberal,no,7,1,0.788527442458,-,-
2019_Oct_22,125,001,2,source,31,GAUCHE,LF,target,right,yellow,imageability,liberal,no,2,0,1.56494634394,-,-
2019_Oct_22,125,001,2,source,32,FIELD,HF,target,right,yellow,imageability,conservative,no,8,1,1.42391991331,-,-
2019_Oct_22,125,001,2,source,33,UNTIL,HF,target,right,yellow,imageability,liberal,no,7,1,1.6471109459,-,-
2019_Oct_22,125,001,2,source,34,JOBLESS,LF,target,left,aqua,pleasantness,liberal,no,2,1,2.41211931912,-,-
2019_Oct_22,125,001,2,source,35,DOING,HF,target,left,aqua,pleasantness,conservative,no,3,1,1.55303540215,-,-
2019_Oct_22,125,001,2,source,36,DIFFERENT,HF,target,left,aqua,pleasantness,conservative,no,7,0,0.894417877924,-,-
2019_Oct_22,125,001,2,source,37,REBATE,LF,target,left,aqua,pleasantness,conservative,yes,7,0,0.623820637127,-,-
2019_Oct_22,125,001,2,source,38,NECESSARY,HF,target,left,aqua,pleasantness,conservative,no,7,0,3.34124023369,-,-
2019_Oct_22,125,001,2,source,39,UNOPENED,LF,target,right,yellow,imageability,conservative,no,9,1,3.02378412344,-,-
2019_Oct_22,125,001,2,source,40,KERNEL,LF,target,right,yellow,imageability,liberal,no,9,1,1.10625227294,-,-
2019_Oct_22,125,001,2,source,41,HALLMARK,LF,target,left,aqua,pleasantness,liberal,no,1,1,1.70624772706,-,-
2019_Oct_22,125,001,2,source,42,MAGGOT,LF,target,left,aqua,pleasantness,liberal,yes,7,0,0.717908645386,-,-
2019_Oct_22,125,001,2,source,43,JANGLING,LF,target,right,yellow,imageability,conservative,no,7,1,3.01192193989,-,-
2019_Oct_22,125,001,2,source,44,BUILDING,HF,target,left,aqua,pleasantness,liberal,no,8,0,1.02369247261,-,-
2019_Oct_22,125,001,2,source,45,RAMBLE,LF,target,right,yellow,imageability,liberal,no,3,0,1.16478305882,-,-
2019_Oct_22,125,001,2,source,46,KNOWLEDGE,HF,target,left,aqua,pleasantness,liberal,no,1,1,1.77685112679,-,-
2019_Oct_22,125,001,2,source,47,VANDALS,LF,target,left,aqua,pleasantness,conservative,no,1,1,0.847284422585,-,-
2019_Oct_22,125,001,2,recog,0,MASKING,LF,lure,-,-,-,liberal,no,m,1,1.44736529528,1,327
2019_Oct_22,125,001,2,recog,1,ORDER,HF,lure,-,-,-,conservative,no,z,0,1.11792492257,-3,324
2019_Oct_22,125,001,2,recog,2,CORNER,HF,target,right,yellow,imageability,conservative,no,z,1,0.894181785387,1,325
2019_Oct_22,125,001,2,recog,3,AUSPICES,LF,target,left,aqua,pleasantness,conservative,no,z,1,0.706196769198,1,326
2019_Oct_22,125,001,2,recog,4,APRICOT,LF,lure,-,-,-,conservative,no,m,1,1.05891718578,3,329
2019_Oct_22,125,001,2,recog,5,ASKED,HF,lure,-,-,-,conservative,no,m,1,1.28263392752,3,332
2019_Oct_22,125,001,2,recog,6,LONGER,HF,lure,-,-,-,liberal,no,m,1,0.718029991084,1,333
2019_Oct_22,125,001,2,recog,7,FRONT,HF,target,right,yellow,imageability,liberal,no,m,0,0.929658721639,-3,330
2019_Oct_22,125,001,2,recog,8,CEASELESS,LF,target,right,yellow,imageability,liberal,no,z,1,1.51795256446,3,333
2019_Oct_22,125,001,2,recog,9,HUDDLE,LF,target,left,aqua,pleasantness,conservative,no,z,1,0.729614655921,1,334
2019_Oct_22,125,001,2,recog,10,REFECTORY,LF,lure,-,-,-,conservative,no,m,1,1.48262226954,3,337
2019_Oct_22,125,001,2,recog,11,MIXER,LF,lure,-,-,-,conservative,no,m,1,1.68260621231,3,340
2019_Oct_22,125,001,2,recog,12,SUPPORT,HF,target,left,aqua,pleasantness,conservative,no,z,1,0.706124548345,1,341
2019_Oct_22,125,001,2,recog,13,CELLO,LF,lure,-,-,-,liberal,no,m,1,0.847153178597,1,342
2019_Oct_22,125,001,2,recog,14,ROMANCES,LF,lure,-,-,-,conservative,no,m,1,0.835611772952,3,345
2019_Oct_22,125,001,2,recog,15,MODERN,HF,lure,-,-,-,liberal,yes,m,1,0.847253627906,1,346
2019_Oct_22,125,001,2,recog,16,RESEARCH,HF,lure,-,-,-,liberal,no,m,1,2.67101861465,1,347
2019_Oct_22,125,001,2,recog,17,VANDALS,LF,target,left,aqua,pleasantness,conservative,no,z,1,0.917883056475,1,348
2019_Oct_22,125,001,2,recog,18,NECESSARY,HF,target,left,aqua,pleasantness,conservative,no,z,1,0.976477264729,1,349
2019_Oct_22,125,001,2,recog,19,POWER,HF,lure,-,-,-,liberal,no,m,1,1.31766177471,1,350
2019_Oct_22,125,001,2,recog,20,RIVER,HF,target,left,aqua,pleasantness,conservative,no,z,1,1.95335999273,1,351
2019_Oct_22,125,001,2,recog,21,TINGLING,LF,lure,-,-,-,conservative,no,z,0,0.917969941461,-3,348
2019_Oct_22,125,001,2,recog,22,WEEKS,HF,lure,-,-,-,conservative,no,m,1,0.894456371272,3,351
2019_Oct_22,125,001,2,recog,23,OUTSIDE,HF,lure,-,-,-,liberal,no,m,1,1.25912292356,1,352
2019_Oct_22,125,001,2,recog,24,THANK,HF,lure,-,-,-,conservative,no,m,1,0.74152119847,3,355
2019_Oct_22,125,001,2,recog,25,RAMBLE,LF,target,right,yellow,imageability,liberal,no,z,1,0.764991509467,3,358
2019_Oct_22,125,001,2,recog,26,DOING,HF,target,left,aqua,pleasantness,conservative,no,z,1,0.706244794233,1,359
2019_Oct_22,125,001,2,recog,27,TELEPHONE,HF,target,right,yellow,imageability,liberal,no,m,0,1.09445057894,-3,356
2019_Oct_22,125,001,2,recog,28,GAPED,LF,target,right,yellow,imageability,conservative,no,z,1,1.25908882945,1,357
2019_Oct_22,125,001,2,recog,29,TETHER,LF,lure,-,-,-,liberal,no,m,1,1.2355576623,1,358
2019_Oct_22,125,001,2,recog,30,DERANGED,LF,target,right,yellow,imageability,conservative,yes,z,1,0.976773113606,1,359
2019_Oct_22,125,001,2,recog,31,SUFFERER,LF,lure,-,-,-,liberal,no,m,1,2.17659208489,1,360
2019_Oct_22,125,001,2,recog,32,MAGGOT,LF,target,left,aqua,pleasantness,liberal,no,z,1,0.694399474437,3,363
2019_Oct_22,125,001,2,recog,33,HYENA,LF,lure,-,-,-,conservative,no,z,0,0.92972397703,-3,360
2019_Oct_22,125,001,2,recog,34,STAFF,HF,lure,-,-,-,conservative,no,m,1,0.976805374698,3,363
2019_Oct_22,125,001,2,recog,35,WHETHER,HF,target,left,aqua,pleasantness,conservative,no,m,0,0.647330174679,-1,362
2019_Oct_22,125,001,2,recog,36,UNTIL,HF,target,right,yellow,imageability,liberal,no,z,1,2.74155382617,3,365
2019_Oct_22,125,001,2,recog,37,REQUIRED,HF,lure,-,-,-,liberal,no,z,0,2.24745980561,-1,364
2019_Oct_22,125,001,2,recog,38,BYGONE,LF,lure,-,-,-,conservative,no,m,1,0.576848853852,3,367
2019_Oct_22,125,001,2,recog,39,LUGGED,LF,lure,-,-,-,conservative,no,m,1,0.588458814317,3,370
2019_Oct_22,125,001,2,recog,40,KERNEL,LF,target,right,yellow,imageability,liberal,no,z,1,1.36512443983,3,373
2019_Oct_22,125,001,2,recog,41,EARLIER,HF,lure,-,-,-,liberal,no,m,1,0.917964075808,1,374
2019_Oct_22,125,001,2,recog,42,OPPOSES,LF,lure,-,-,-,conservative,no,m,1,0.88262131637,3,377
2019_Oct_22,125,001,2,recog,43,WHOLE,HF,lure,-,-,-,liberal,no,m,1,1.7883555055,1,378
2019_Oct_22,125,001,2,recog,44,HOVELS,LF,target,left,aqua,pleasantness,conservative,no,z,1,0.612148720701,1,379
2019_Oct_22,125,001,2,recog,45,ARSENALS,LF,target,right,yellow,imageability,conservative,no,z,1,1.07090988011,1,380
2019_Oct_22,125,001,2,recog,46,SPACE,HF,lure,-,-,-,conservative,no,z,0,1.09434902982,-3,377
2019_Oct_22,125,001,2,recog,47,UNOPENED,LF,target,right,yellow,imageability,conservative,no,z,1,0.765076561437,1,378
2019_Oct_22,125,001,2,recog,48,FIELD,HF,target,right,yellow,imageability,conservative,no,z,1,1.21215443971,1,379
2019_Oct_22,125,001,2,recog,49,BUILDING,HF,target,left,aqua,pleasantness,liberal,no,z,1,0.859085749983,3,382
2019_Oct_22,125,001,2,recog,50,ZEALOTS,LF,target,left,aqua,pleasantness,conservative,no,z,1,0.988527149175,1,383
2019_Oct_22,125,001,2,recog,51,JOLLITY,LF,lure,-,-,-,liberal,no,m,1,1.82360294808,1,384
2019_Oct_22,125,001,2,recog,52,REACHED,HF,target,right,yellow,imageability,liberal,no,z,1,1.37673953274,3,387
2019_Oct_22,125,001,2,recog,53,JOBLESS,LF,target,left,aqua,pleasantness,liberal,no,z,1,0.682665602051,3,390
2019_Oct_22,125,001,2,recog,54,PONCE,LF,lure,-,-,-,conservative,no,m,1,0.800256549002,3,393
2019_Oct_22,125,001,2,recog,55,GIVEN,HF,target,right,yellow,imageability,conservative,no,z,1,1.20023359963,1,394
2019_Oct_22,125,001,2,recog,56,EVIDENCE,HF,lure,-,-,-,liberal,no,m,1,1.04734755168,1,395
2019_Oct_22,125,001,2,recog,57,EATERS,LF,lure,-,-,-,liberal,no,m,1,1.64739359705,1,396
2019_Oct_22,125,001,2,recog,58,EMIGRATED,LF,lure,-,-,-,liberal,no,m,1,0.800309706483,1,397
2019_Oct_22,125,001,2,recog,59,SQUADRONS,LF,lure,-,-,-,liberal,no,m,1,0.68267769996,1,398
2019_Oct_22,125,001,2,recog,60,PERHAPS,HF,target,right,yellow,imageability,conservative,no,z,1,0.98856637573,1,399
2019_Oct_22,125,001,2,recog,61,LIGHT,HF,lure,-,-,-,conservative,no,m,1,0.741494069825,3,402
2019_Oct_22,125,001,2,recog,62,WESTERN,HF,lure,-,-,-,conservative,no,m,1,1.12965586213,3,405
2019_Oct_22,125,001,2,recog,63,PAPER,HF,target,right,yellow,imageability,liberal,no,z,1,0.717980499636,3,408
2019_Oct_22,125,001,2,recog,64,ACCORDING,HF,lure,-,-,-,liberal,no,z,0,1.04746193191,-1,407
2019_Oct_22,125,001,2,recog,65,KITCHEN,HF,target,right,yellow,imageability,conservative,no,z,1,0.941509540485,1,408
2019_Oct_22,125,001,2,recog,66,DOUBT,HF,target,left,aqua,pleasantness,liberal,no,z,1,1.0003204113,3,411
2019_Oct_22,125,001,2,recog,67,GAUCHE,LF,target,right,yellow,imageability,liberal,no,z,1,1.17678455163,3,414
2019_Oct_22,125,001,2,recog,68,THEORY,HF,lure,-,-,-,conservative,no,m,1,0.776779272542,3,417
2019_Oct_22,125,001,2,recog,69,SANDAL,LF,target,right,yellow,imageability,conservative,no,z,1,0.659022254288,1,418
2019_Oct_22,125,001,2,recog,70,DEPARTS,LF,target,right,yellow,imageability,liberal,no,z,1,0.870894409446,3,421
2019_Oct_22,125,001,2,recog,71,KNOWLEDGE,HF,target,left,aqua,pleasantness,liberal,no,z,1,1.02385157845,3,424
2019_Oct_22,125,001,2,recog,72,HALLMARK,LF,target,left,aqua,pleasantness,liberal,no,z,1,0.670989286385,3,427
2019_Oct_22,125,001,2,recog,73,TROUBLE,HF,target,right,yellow,imageability,liberal,yes,z,1,0.835509124023,3,430
2019_Oct_22,125,001,2,recog,74,FAMILY,HF,target,right,yellow,imageability,conservative,yes,z,1,0.729640318153,1,431
2019_Oct_22,125,001,2,recog,75,JANGLING,LF,target,right,yellow,imageability,conservative,no,z,1,0.917967741841,1,432
2019_Oct_22,125,001,2,recog,76,UNLESS,HF,lure,-,-,-,conservative,no,m,1,2.37685904542,3,435
2019_Oct_22,125,001,2,recog,77,TAGGED,LF,target,left,aqua,pleasantness,liberal,no,z,1,1.05905392881,3,438
2019_Oct_22,125,001,2,recog,78,TASSELS,LF,lure,-,-,-,liberal,no,m,1,1.49422196511,1,439
2019_Oct_22,125,001,2,recog,79,COOING,LF,lure,-,-,-,liberal,no,m,1,0.847327681777,1,440
2019_Oct_22,125,001,2,recog,80,UPDATE,LF,lure,-,-,-,liberal,no,m,1,0.953181090307,1,441
2019_Oct_22,125,001,2,recog,81,INUNDATED,LF,target,left,aqua,pleasantness,liberal,no,m,0,1.00029218284,-3,438
2019_Oct_22,125,001,2,recog,82,BROUGHT,HF,target,left,aqua,pleasantness,liberal,no,z,1,2.6944398008,3,441
2019_Oct_22,125,001,2,recog,83,DIFFERENT,HF,target,left,aqua,pleasantness,conservative,no,m,0,1.23552833404,-1,440
2019_Oct_22,125,001,2,recog,84,UNPACK,LF,target,left,aqua,pleasantness,liberal,no,z,1,1.24733406067,3,443
2019_Oct_22,125,001,2,recog,85,CLUBBED,LF,target,right,yellow,imageability,liberal,no,z,1,0.97676248211,3,446
2019_Oct_22,125,001,2,recog,86,REBATE,LF,target,left,aqua,pleasantness,conservative,no,z,1,1.11795938329,1,447
2019_Oct_22,125,001,2,recog,87,DAUGHTER,HF,target,left,aqua,pleasantness,liberal,no,z,1,1.22386814892,3,450
2019_Oct_22,125,001,2,recog,88,NUMBER,HF,lure,-,-,-,conservative,no,m,1,0.764943484432,3,453
2019_Oct_22,125,001,2,recog,89,ATROCITY,LF,lure,-,-,-,conservative,no,m,1,1.28273767626,3,456
2019_Oct_22,125,001,2,recog,90,OFTEN,HF,lure,-,-,-,conservative,no,z,0,3.27094074811,-3,453
2019_Oct_22,125,001,2,recog,91,LEVEL,HF,lure,-,-,-,liberal,no,m,1,0.823879366979,1,454
2019_Oct_22,125,001,2,recog,92,BOGEY,LF,lure,-,-,-,liberal,no,m,1,0.706227197274,1,455
2019_Oct_22,125,001,2,recog,93,MUSIC,HF,lure,-,-,-,liberal,no,m,1,1.165001921,1,456
2019_Oct_22,125,001,2,recog,94,SNEAKED,LF,lure,-,-,-,conservative,no,m,1,1.76521403768,3,459
2019_Oct_22,125,001,2,recog,95,LANGUAGE,HF,target,left,aqua,pleasantness,liberal,no,z,1,0.812091603904,3,462
2019_Oct_22,125,001,3,source,0,WATCH,HF,target,right,yellow,imageability,liberal,no,7,1,1.40035208583,-,-
2019_Oct_22,125,001,3,source,1,PREPARED,HF,target,right,yellow,imageability,conservative,no,7,1,1.07087981863,-,-
2019_Oct_22,125,001,3,source,2,TABLE,HF,target,right,yellow,imageability,liberal,no,7,1,0.823766453157,-,-
2019_Oct_22,125,001,3,source,3,PHOBIC,LF,target,right,yellow,imageability,conservative,no,9,1,1.44712553671,-,-
2019_Oct_22,125,001,3,source,4,HARDLY,HF,target,left,aqua,pleasantness,conservative,yes,7,0,0.90616054879,-,-
2019_Oct_22,125,001,3,source,5,SHORT,HF,target,right,yellow,imageability,conservative,no,8,1,2.30621751895,-,-
2019_Oct_22,125,001,3,source,6,HEEDED,LF,target,right,yellow,imageability,liberal,no,2,0,1.17656972209,-,-
2019_Oct_22,125,001,3,source,7,HYDRAULIC,LF,target,right,yellow,imageability,liberal,no,9,1,1.506188264,-,-
2019_Oct_22,125,001,3,source,8,KIMONO,LF,target,left,aqua,pleasantness,liberal,yes,7,0,0.74144604479,-,-
2019_Oct_22,125,001,3,source,9,SUCCESS,HF,target,left,aqua,pleasantness,liberal,no,1,1,2.85922909188,-,-
2019_Oct_22,125,001,3,source,10,WAGGED,LF,target,left,aqua,pleasantness,conservative,no,1,1,0.988276392506,-,-
2019_Oct_22,125,001,3,source,11,SUSPEND,LF,target,left,aqua,pleasantness,liberal,no,1,1,0.964942824547,-,-
2019_Oct_22,125,001,3,source,12,DAFFODILS,LF,target,right,yellow,imageability,liberal,no,9,1,1.15298539746,-,-
2019_Oct_22,125,001,3,source,13,WINDOW,HF,target,left,aqua,pleasantness,conservative,no,8,0,2.41224763028,-,-
2019_Oct_22,125,001,3,source,14,LOVELIEST,LF,target,right,yellow,imageability,conservative,no,9,1,0.823837207598,-,-
2019_Oct_22,125,001,3,source,15,FONDLE,LF,target,right,yellow,imageability,conservative,no,3,0,1.31781281528,-,-
2019_Oct_22,125,001,3,source,16,REGAINING,LF,target,left,aqua,pleasantness,liberal,no,2,1,3.15323542092,-,-
2019_Oct_22,125,001,3,source,17,CUSTODIAN,LF,target,right,yellow,imageability,liberal,no,8,1,1.2120869847,-,-
2019_Oct_22,125,001,3,source,18,OTTOMAN,LF,target,left,aqua,pleasantness,conservative,no,1,1,1.2004289992,-,-
2019_Oct_22,125,001,3,source,19,WRONG,HF,target,left,aqua,pleasantness,liberal,no,7,0,1.30626627719,-,-
2019_Oct_22,125,001,3,source,20,PUBLIC,HF,target,right,yellow,imageability,conservative,no,8,1,1.9884640934,-,-
2019_Oct_22,125,001,3,source,21,WEBBED,LF,target,right,yellow,imageability,conservative,no,7,1,1.52949177049,-,-
2019_Oct_22,125,001,3,source,22,UGLIEST,LF,target,right,yellow,imageability,conservative,no,9,1,0.871006590061,-,-
2019_Oct_22,125,001,3,source,23,CHIEF,HF,target,right,yellow,imageability,liberal,no,9,1,0.823841606837,-,-
2019_Oct_22,125,001,3,source,24,BEGAN,HF,target,left,aqua,pleasantness,conservative,no,3,1,1.94127674738,-,-
2019_Oct_22,125,001,3,source,25,SEEMED,HF,target,right,yellow,imageability,conservative,no,8,1,1.25929486051,-,-
2019_Oct_22,125,001,3,source,26,COVER,HF,target,right,yellow,imageability,liberal,no,9,1,2.12946852784,-,-
2019_Oct_22,125,001,3,source,27,ULCER,LF,target,left,aqua,pleasantness,liberal,no,1,1,1.21212731107,-,-
2019_Oct_22,125,001,3,source,28,MARKET,HF,target,left,aqua,pleasantness,conservative,no,1,1,0.965022377467,-,-
2019_Oct_22,125,001,3,source,29,ATHEIST,LF,target,left,aqua,pleasantness,conservative,no,3,1,1.75295115671,-,-
2019_Oct_22,125,001,3,source,30,CRONE,LF,target,right,yellow,imageability,liberal,no,7,1,2.82374189073,-,-
2019_Oct_22,125,001,3,source,31,OBNOXIOUS,LF,target,left,aqua,pleasantness,conservative,yes,7,0,0.482614937472,-,-
2019_Oct_22,125,001,3,source,32,REPORT,HF,target,right,yellow,imageability,liberal,no,8,1,1.95318328993,-,-
2019_Oct_22,125,001,3,source,33,KRONOR,LF,target,left,aqua,pleasantness,liberal,no,7,0,1.74126824218,-,-
2019_Oct_22,125,001,3,source,34,WAITING,HF,target,right,yellow,imageability,liberal,no,2,0,3.36513543793,-,-
2019_Oct_22,125,001,3,source,35,GURGLE,LF,target,left,aqua,pleasantness,liberal,no,7,0,1.47094118803,-,-
2019_Oct_22,125,001,3,source,36,SCHOOL,HF,target,left,aqua,pleasantness,liberal,no,2,1,2.87085921553,-,-
2019_Oct_22,125,001,3,source,37,BAWLED,LF,target,right,yellow,imageability,liberal,no,8,1,2.61209189719,-,-
2019_Oct_22,125,001,3,source,38,ECONOMIC,HF,target,left,aqua,pleasantness,liberal,no,1,1,2.4708938962,-,-
2019_Oct_22,125,001,3,source,39,CARRIED,HF,target,left,aqua,pleasantness,conservative,no,2,1,1.77690465088,-,-
2019_Oct_22,125,001,3,source,40,IDEAS,HF,target,right,yellow,imageability,conservative,no,7,1,1.95327677377,-,-
2019_Oct_22,125,001,3,source,41,ERRANT,LF,target,left,aqua,pleasantness,conservative,no,7,0,1.17689379942,-,-
2019_Oct_22,125,001,3,source,42,HOWEVER,HF,target,right,yellow,imageability,conservative,yes,7,1,0.447121870674,-,-
2019_Oct_22,125,001,3,source,43,PORCHES,LF,target,right,yellow,imageability,conservative,no,8,1,1.27090408777,-,-
2019_Oct_22,125,001,3,source,44,USUAL,HF,target,left,aqua,pleasantness,conservative,no,3,1,1.52971503191,-,-
2019_Oct_22,125,001,3,source,45,CHURCH,HF,target,left,aqua,pleasantness,liberal,no,1,1,1.3061793922,-,-
2019_Oct_22,125,001,3,source,46,ENFORCING,LF,target,left,aqua,pleasantness,conservative,no,1,1,2.57679019732,-,-
2019_Oct_22,125,001,3,source,47,ALMOST,HF,target,left,aqua,pleasantness,liberal,no,3,1,1.02384424638,-,-
2019_Oct_22,125,001,3,recog,0,GARDEN,HF,lure,-,-,-,conservative,no,m,1,1.15327611389,3,465
2019_Oct_22,125,001,3,recog,1,FONDLE,LF,target,right,yellow,imageability,conservative,no,m,0,0.917923016236,-1,464
2019_Oct_22,125,001,3,recog,2,TOTAL,HF,lure,-,-,-,conservative,no,z,0,1.55324949849,-3,461
2019_Oct_22,125,001,3,recog,3,IDOLATRY,LF,lure,-,-,-,conservative,no,m,1,2.38852729582,3,464
2019_Oct_22,125,001,3,recog,4,AFRAID,HF,lure,-,-,-,liberal,no,m,1,1.12970205415,1,465
2019_Oct_22,125,001,3,recog,5,MAJOR,HF,lure,-,-,-,conservative,no,m,1,0.988475824711,3,468
2019_Oct_22,125,001,3,recog,6,OLDER,HF,lure,-,-,-,conservative,no,m,1,0.988303154548,3,471
2019_Oct_22,125,001,3,recog,7,HARDLY,HF,target,left,aqua,pleasantness,conservative,yes,m,0,0.459239210131,-1,470
2019_Oct_22,125,001,3,recog,8,ENFORCING,LF,target,left,aqua,pleasantness,conservative,no,z,1,5.0825455028,1,471
2019_Oct_22,125,001,3,recog,9,WEBBED,LF,target,right,yellow,imageability,conservative,no,z,1,0.859105913165,1,472
2019_Oct_22,125,001,3,recog,10,CLASS,HF,lure,-,-,-,liberal,no,m,1,0.976830670327,1,473
2019_Oct_22,125,001,3,recog,11,BAWLED,LF,target,right,yellow,imageability,liberal,no,z,1,1.14142822787,3,476
2019_Oct_22,125,001,3,recog,12,PHOBIC,LF,target,right,yellow,imageability,conservative,no,z,1,1.22376403358,1,477
2019_Oct_22,125,001,3,recog,13,GENERAL,HF,lure,-,-,-,liberal,no,m,1,1.50615160367,1,478
2019_Oct_22,125,001,3,recog,14,ULCER,LF,target,left,aqua,pleasantness,liberal,no,z,1,0.635514916356,3,481
2019_Oct_22,125,001,3,recog,15,MAUSOLEUM,LF,lure,-,-,-,conservative,no,m,1,1.2356016547,3,484
2019_Oct_22,125,001,3,recog,16,PREPARED,HF,target,right,yellow,imageability,conservative,no,z,1,1.17674202564,1,485
2019_Oct_22,125,001,3,recog,17,SUSPEND,LF,target,left,aqua,pleasantness,liberal,no,z,1,1.6474210923,3,488
2019_Oct_22,125,001,3,recog,18,TABLE,HF,target,right,yellow,imageability,liberal,no,z,1,0.694407906314,3,491
2019_Oct_22,125,001,3,recog,19,CLEAR,HF,lure,-,-,-,liberal,no,m,1,0.811878607376,1,492
2019_Oct_22,125,001,3,recog,20,MARKET,HF,target,left,aqua,pleasantness,conservative,no,z,1,0.741482338518,1,493
2019_Oct_22,125,001,3,recog,21,AVUNCULAR,LF,lure,-,-,-,liberal,no,z,0,0.83549885913,-1,492
2019_Oct_22,125,001,3,recog,22,NATIONAL,HF,lure,-,-,-,liberal,no,m,1,0.905932154923,1,493
2019_Oct_22,125,001,3,recog,23,QUICKLY,HF,lure,-,-,-,liberal,no,m,1,1.670615351,1,494
2019_Oct_22,125,001,3,recog,24,SCHOOL,HF,target,left,aqua,pleasantness,liberal,no,z,1,0.717716178644,3,497
2019_Oct_22,125,001,3,recog,25,LOCAL,HF,lure,-,-,-,conservative,no,m,1,0.988625765468,3,500
2019_Oct_22,125,001,3,recog,26,CRONE,LF,target,right,yellow,imageability,liberal,no,z,1,0.753296497032,3,503
2019_Oct_22,125,001,3,recog,27,VALUE,HF,lure,-,-,-,conservative,no,m,1,1.62378471,3,506
2019_Oct_22,125,001,3,recog,28,WATCH,HF,target,right,yellow,imageability,liberal,no,m,0,0.776782938575,-3,503
2019_Oct_22,125,001,3,recog,29,SHORT,HF,target,right,yellow,imageability,conservative,no,z,1,1.16491906865,1,504
2019_Oct_22,125,001,3,recog,30,WAGGED,LF,target,left,aqua,pleasantness,conservative,no,z,1,0.600374521949,1,505
2019_Oct_22,125,001,3,recog,31,REPORT,HF,target,right,yellow,imageability,liberal,no,z,1,3.09442161728,3,508
2019_Oct_22,125,001,3,recog,32,DAFFODILS,LF,target,right,yellow,imageability,liberal,no,z,1,0.68258714894,3,511
2019_Oct_22,125,001,3,recog,33,HEEDED,LF,target,right,yellow,imageability,liberal,no,z,1,0.529725663405,3,514
2019_Oct_22,125,001,3,recog,34,OBNOXIOUS,LF,target,left,aqua,pleasantness,conservative,no,z,1,0.870986060275,1,515
2019_Oct_22,125,001,3,recog,35,CHIEF,HF,target,right,yellow,imageability,liberal,no,z,1,0.612091897187,3,518
2019_Oct_22,125,001,3,recog,36,HYDRAULIC,LF,target,right,yellow,imageability,liberal,no,z,1,0.776839762089,3,521
2019_Oct_22,125,001,3,recog,37,AILMENT,LF,lure,-,-,-,conservative,yes,z,0,0.929754771709,-3,518
2019_Oct_22,125,001,3,recog,38,UGLIEST,LF,target,right,yellow,imageability,conservative,no,z,1,4.15337363037,1,519
2019_Oct_22,125,001,3,recog,39,AEGIS,LF,lure,-,-,-,liberal,no,m,1,1.29453900366,1,520
2019_Oct_22,125,001,3,recog,40,VETOED,LF,lure,-,-,-,liberal,no,m,1,1.24735532367,1,521
2019_Oct_22,125,001,3,recog,41,KRONOR,LF,target,left,aqua,pleasantness,liberal,no,z,1,1.27085862896,3,524
2019_Oct_22,125,001,3,recog,42,ATHEIST,LF,target,left,aqua,pleasantness,conservative,no,z,1,1.40029232949,1,525
2019_Oct_22,125,001,3,recog,43,REGAINING,LF,target,left,aqua,pleasantness,liberal,no,z,1,1.83562203785,3,528
2019_Oct_22,125,001,3,recog,44,EVOCATION,LF,lure,-,-,-,liberal,no,m,1,0.953177424275,1,529
2019_Oct_22,125,001,3,recog,45,SEEMED,HF,target,right,yellow,imageability,conservative,no,z,1,0.694238902184,1,530
2019_Oct_22,125,001,3,recog,46,HOWEVER,HF,target,right,yellow,imageability,conservative,no,z,1,0.6473103781,1,531
2019_Oct_22,125,001,3,recog,47,GOUGED,LF,lure,-,-,-,liberal,no,m,1,1.15315476819,1,532
2019_Oct_22,125,001,3,recog,48,USUAL,HF,target,left,aqua,pleasantness,conservative,no,m,0,1.6355424116,-1,531
2019_Oct_22,125,001,3,recog,49,UNBEATEN,LF,lure,-,-,-,conservative,no,z,0,1.10613495988,-3,528
2019_Oct_22,125,001,3,recog,50,AXLES,LF,lure,-,-,-,conservative,no,m,1,1.58848740938,3,531
2019_Oct_22,125,001,3,recog,51,PUBLIC,HF,target,right,yellow,imageability,conservative,no,z,1,0.906105924896,1,532
2019_Oct_22,125,001,3,recog,52,SIBLINGS,LF,lure,-,-,-,conservative,no,m,1,1.48263290103,3,535
2019_Oct_22,125,001,3,recog,53,EIGHT,HF,lure,-,-,-,conservative,no,m,1,0.753262769527,3,538
2019_Oct_22,125,001,3,recog,54,WAITING,HF,target,right,yellow,imageability,liberal,no,z,1,2.44743788273,3,541
2019_Oct_22,125,001,3,recog,55,TIERS,LF,lure,-,-,-,liberal,no,m,1,0.741510566974,1,542
2019_Oct_22,125,001,3,recog,56,ECONOMIC,HF,target,left,aqua,pleasantness,liberal,no,z,1,0.718034756927,3,545
2019_Oct_22,125,001,3,recog,57,WALKED,HF,lure,-,-,-,liberal,no,m,1,0.94146151545,1,546
2019_Oct_22,125,001,3,recog,58,MOVED,HF,lure,-,-,-,liberal,no,m,1,0.894493031604,1,547
2019_Oct_22,125,001,3,recog,59,ENSCONCED,LF,lure,-,-,-,conservative,yes,z,0,0.917954910725,-3,544
2019_Oct_22,125,001,3,recog,60,WINDOW,HF,target,left,aqua,pleasantness,conservative,no,m,0,3.92950951409,-1,543
2019_Oct_22,125,001,3,recog,61,KIMONO,LF,target,left,aqua,pleasantness,liberal,no,z,1,2.40029122968,3,546
2019_Oct_22,125,001,3,recog,62,PORCHES,LF,target,right,yellow,imageability,conservative,no,z,1,0.7649951755,1,547
2019_Oct_22,125,001,3,recog,63,AGILITY,LF,lure,-,-,-,conservative,no,m,1,0.964972152812,3,550
2019_Oct_22,125,001,3,recog,64,LIQUEUR,LF,lure,-,-,-,liberal,no,m,1,0.776759109359,1,551
2019_Oct_22,125,001,3,recog,65,CHAIR,HF,lure,-,-,-,liberal,no,m,1,2.25910202717,1,552
2019_Oct_22,125,001,3,recog,66,CARRIED,HF,target,left,aqua,pleasantness,conservative,no,z,1,1.1061367929,1,553
2019_Oct_22,125,001,3,recog,67,GIBBERISH,LF,lure,-,-,-,liberal,no,m,1,1.77675471012,1,554
2019_Oct_22,125,001,3,recog,68,YOUNG,HF,lure,-,-,-,conservative,no,m,1,0.647327241853,3,557
2019_Oct_22,125,001,3,recog,69,PIECE,HF,lure,-,-,-,conservative,no,m,1,0.765038801295,3,560
2019_Oct_22,125,001,3,recog,70,UMBILICAL,LF,lure,-,-,-,liberal,no,m,1,1.00037870123,1,561
2019_Oct_22,125,001,3,recog,71,OTTOMAN,LF,target,left,aqua,pleasantness,conservative,no,z,1,0.800043552474,1,562
2019_Oct_22,125,001,3,recog,72,COVER,HF,target,right,yellow,imageability,liberal,no,m,0,2.56503249572,-3,559
2019_Oct_22,125,001,3,recog,73,UNGAINLY,LF,lure,-,-,-,conservative,no,m,1,1.90617814575,3,562
2019_Oct_22,125,001,3,recog,74,NOTHING,HF,lure,-,-,-,conservative,no,m,1,0.811863943244,3,565
2019_Oct_22,125,001,3,recog,75,CUSTODIAN,LF,target,right,yellow,imageability,liberal,no,z,1,0.859156504423,3,568
2019_Oct_22,125,001,3,recog,76,GURGLE,LF,target,left,aqua,pleasantness,liberal,no,m,0,1.2356122862,-3,565
2019_Oct_22,125,001,3,recog,77,DEVELOPED,HF,lure,-,-,-,conservative,no,m,1,1.8474625918,3,568
2019_Oct_22,125,001,3,recog,78,PHYSICAL,HF,lure,-,-,-,liberal,no,m,1,0.988546212548,1,569
2019_Oct_22,125,001,3,recog,79,AUGMENT,LF,lure,-,-,-,conservative,no,m,1,0.929732408906,3,572
2019_Oct_22,125,001,3,recog,80,USELESSLY,LF,lure,-,-,-,conservative,no,m,1,1.81212129877,3,575
2019_Oct_22,125,001,3,recog,81,ERADICATE,LF,lure,-,-,-,conservative,no,m,1,1.64734520542,3,578
2019_Oct_22,125,001,3,recog,82,SUCCESS,HF,target,left,aqua,pleasantness,liberal,no,z,1,0.882409053049,3,581
2019_Oct_22,125,001,3,recog,83,IDEAS,HF,target,right,yellow,imageability,conservative,no,z,1,1.85910591316,1,582
2019_Oct_22,125,001,3,recog,84,LOVELIEST,LF,target,right,yellow,imageability,conservative,yes,z,1,0.929425195327,1,583
2019_Oct_22,125,001,3,recog,85,ALMOST,HF,target,left,aqua,pleasantness,liberal,no,z,1,2.02385047864,3,586
2019_Oct_22,125,001,3,recog,86,RUNNING,HF,lure,-,-,-,liberal,no,m,1,1.18859724373,1,587
2019_Oct_22,125,001,3,recog,87,BOILERS,LF,lure,-,-,-,liberal,no,m,1,1.29420466143,1,588
2019_Oct_22,125,001,3,recog,88,CHURCH,HF,target,left,aqua,pleasantness,liberal,no,z,1,0.659080910819,3,591
2019_Oct_22,125,001,3,recog,89,PILGRIM,LF,lure,-,-,-,liberal,no,m,1,1.03562871003,1,592
2019_Oct_22,125,001,3,recog,90,VECTORS,LF,lure,-,-,-,liberal,no,z,0,1.03536915488,-1,591
2019_Oct_22,125,001,3,recog,91,ERRANT,LF,target,left,aqua,pleasantness,conservative,no,m,0,1.44734439889,-1,590
2019_Oct_22,125,001,3,recog,92,BEGAN,HF,target,left,aqua,pleasantness,conservative,no,m,0,1.09422401809,-1,589
2019_Oct_22,125,001,3,recog,93,SERIOUS,HF,lure,-,-,-,conservative,no,z,0,1.43554527111,-3,586
2019_Oct_22,125,001,3,recog,94,THING,HF,lure,-,-,-,liberal,no,z,0,3.10619068358,-1,585
2019_Oct_22,125,001,3,recog,95,WRONG,HF,target,left,aqua,pleasantness,liberal,no,z,1,1.72970594015,3,588
2019_Oct_22,125,001,4,source,0,TOGETHER,HF,target,left,aqua,pleasantness,liberal,no,7,0,2.37667867659,-,-
2019_Oct_22,125,001,4,source,1,LIMELIGHT,LF,target,left,aqua,pleasantness,liberal,no,2,1,1.65917292825,-,-
2019_Oct_22,125,001,4,source,2,UNRAVEL,LF,target,right,yellow,imageability,conservative,no,9,1,1.34145982907,-,-
2019_Oct_22,125,001,4,source,3,FUMING,LF,target,left,aqua,pleasantness,liberal,no,8,0,1.83570085756,-,-
2019_Oct_22,125,001,4,source,4,DUSTER,LF,target,right,yellow,imageability,conservative,no,8,1,1.09442711633,-,-
2019_Oct_22,125,001,4,source,5,DIPLOMAS,LF,target,left,aqua,pleasantness,liberal,no,1,1,1.25912182375,-,-
2019_Oct_22,125,001,4,source,6,FRIEND,HF,target,left,aqua,pleasantness,liberal,no,2,1,1.8943603212,-,-
2019_Oct_22,125,001,4,source,7,HUMAN,HF,target,left,aqua,pleasantness,conservative,no,1,1,1.29437109934,-,-
2019_Oct_22,125,001,4,source,8,POUNDS,HF,target,right,yellow,imageability,conservative,no,9,1,0.906134153352,-,-
2019_Oct_22,125,001,4,source,9,SEABED,LF,target,left,aqua,pleasantness,liberal,no,7,0,1.21182559654,-,-
2019_Oct_22,125,001,4,source,10,HURDLES,LF,target,left,aqua,pleasantness,conservative,no,2,1,1.57678139884,-,-
2019_Oct_22,125,001,4,source,11,DAGGERS,LF,target,right,yellow,imageability,liberal,no,8,1,1.22387034854,-,-
2019_Oct_22,125,001,4,source,12,PEGGED,LF,target,right,yellow,imageability,liberal,no,8,1,1.51799582365,-,-
2019_Oct_22,125,001,4,source,13,ATTACK,HF,target,right,yellow,imageability,liberal,no,8,1,1.08237576547,-,-
2019_Oct_22,125,001,4,source,14,INTEREST,HF,target,right,yellow,imageability,conservative,no,8,1,1.44743165048,-,-
2019_Oct_22,125,001,4,source,15,INDEED,HF,target,left,aqua,pleasantness,liberal,no,3,1,1.85914770594,-,-
2019_Oct_22,125,001,4,source,16,OFFER,HF,target,left,aqua,pleasantness,conservative,no,2,1,1.47092322447,-,-
2019_Oct_22,125,001,4,source,17,UNABATED,LF,target,left,aqua,pleasantness,conservative,no,3,1,1.7764768248,-,-
2019_Oct_22,125,001,4,source,18,ALTHOUGH,HF,target,left,aqua,pleasantness,liberal,no,1,1,1.96500734673,-,-
2019_Oct_22,125,001,4,source,19,LATER,HF,target,right,yellow,imageability,liberal,no,3,0,1.11774748657,-,-
2019_Oct_22,125,001,4,source,20,ACTION,HF,target,right,yellow,imageability,liberal,no,7,1,1.16502025117,-,-
2019_Oct_22,125,001,4,source,21,WARDROBES,LF,target,left,aqua,pleasantness,conservative,no,1,1,1.05914887907,-,-
2019_Oct_22,125,001,4,source,22,MOGUL,LF,target,right,yellow,imageability,liberal,no,9,1,0.92965102297,-,-
2019_Oct_22,125,001,4,source,23,OMITTING,LF,target,left,aqua,pleasantness,liberal,no,7,0,1.08258179653,-,-
2019_Oct_22,125,001,4,source,24,JASMINE,LF,target,right,yellow,imageability,liberal,no,9,1,1.08261772366,-,-
2019_Oct_22,125,001,4,source,25,AGGRAVATE,LF,target,right,yellow,imageability,conservative,yes,7,1,0.882742662068,-,-
2019_Oct_22,125,001,4,source,26,ACROSS,HF,target,left,aqua,pleasantness,liberal,no,2,1,2.08268077943,-,-
2019_Oct_22,125,001,4,source,27,SORRY,HF,target,left,aqua,pleasantness,conservative,yes,7,0,0.823865802656,-,-
2019_Oct_22,125,001,4,source,28,LOUDEST,LF,target,right,yellow,imageability,conservative,no,9,1,2.31801041447,-,-
2019_Oct_22,125,001,4,source,29,LARGE,HF,target,right,yellow,imageability,conservative,no,9,1,0.847294320874,-,-
2019_Oct_22,125,001,4,source,30,AMALGAM,LF,target,left,aqua,pleasantness,liberal,no,7,0,0.976680362967,-,-
2019_Oct_22,125,001,4,source,31,EDUCATION,HF,target,left,aqua,pleasantness,liberal,no,1,1,1.70596800873,-,-
2019_Oct_22,125,001,4,source,32,OPENED,HF,target,right,yellow,imageability,conservative,no,8,1,2.00036660332,-,-
2019_Oct_22,125,001,4,source,33,SPEAK,HF,target,right,yellow,imageability,liberal,yes,7,1,0.776769740855,-,-
2019_Oct_22,125,001,4,source,34,LEARN,HF,target,right,yellow,imageability,liberal,no,3,0,3.03545127402,-,-
2019_Oct_22,125,001,4,source,35,VILLAGE,HF,target,left,aqua,pleasantness,conservative,no,2,1,3.7885432064,-,-
2019_Oct_22,125,001,4,source,36,MINISTER,HF,target,right,yellow,imageability,conservative,no,1,0,1.36501335902,-,-
2019_Oct_22,125,001,4,source,37,SOVIET,HF,target,left,aqua,pleasantness,conservative,no,1,1,0.87087717909,-,-
2019_Oct_22,125,001,4,source,38,APART,HF,target,left,aqua,pleasantness,conservative,no,1,1,2.10622661071,-,-
2019_Oct_22,125,001,4,source,39,PUCKERED,LF,target,right,yellow,imageability,liberal,no,8,1,1.72963738533,-,-
2019_Oct_22,125,001,4,source,40,DROLL,LF,target,right,yellow,imageability,conservative,no,7,1,2.00005352408,-,-
2019_Oct_22,125,001,4,source,41,GASEOUS,LF,target,left,aqua,pleasantness,conservative,no,7,0,1.31798585204,-,-
2019_Oct_22,125,001,4,source,42,DUNGEON,LF,target,right,yellow,imageability,liberal,no,3,0,3.44717942739,-,-
2019_Oct_22,125,001,4,source,43,RIGGING,LF,target,right,yellow,imageability,conservative,yes,3,0,0.894191317074,-,-
2019_Oct_22,125,001,4,source,44,GREATER,HF,target,right,yellow,imageability,conservative,no,3,0,4.52973959433,-,-
2019_Oct_22,125,001,4,source,45,PLUGGING,LF,target,left,aqua,pleasantness,conservative,no,7,0,1.17669436721,-,-
2019_Oct_22,125,001,4,source,46,INSIDE,HF,target,right,yellow,imageability,liberal,no,8,1,1.41209365688,-,-
2019_Oct_22,125,001,4,source,47,PALATABLE,LF,target,left,aqua,pleasantness,conservative,no,1,1,1.12971781809,-,-
2019_Oct_22,125,001,4,recog,0,ALTHOUGH,HF,target,left,aqua,pleasantness,liberal,no,z,1,0.764939085193,3,591
2019_Oct_22,125,001,4,recog,1,OFFER,HF,target,left,aqua,pleasantness,conservative,yes,z,1,1.08273613653,1,592
2019_Oct_22,125,001,4,recog,2,HURDLES,LF,target,left,aqua,pleasantness,conservative,no,z,1,0.706281454565,1,593
2019_Oct_22,125,001,4,recog,3,ENERGY,HF,lure,-,-,-,conservative,no,m,1,3.17689379942,3,596
2019_Oct_22,125,001,4,recog,4,LARGE,HF,target,right,yellow,imageability,conservative,no,z,1,0.576684615565,1,597
2019_Oct_22,125,001,4,recog,5,NIGHT,HF,lure,-,-,-,liberal,no,m,1,1.08268591187,1,598
2019_Oct_22,125,001,4,recog,6,LEARN,HF,target,right,yellow,imageability,liberal,no,z,1,0.90625989829,3,601
2019_Oct_22,125,001,4,recog,7,TWENTY,HF,lure,-,-,-,conservative,no,m,1,0.788541373384,3,604
2019_Oct_22,125,001,4,recog,8,ACTION,HF,target,right,yellow,imageability,liberal,no,z,1,1.25914162033,3,607
2019_Oct_22,125,001,4,recog,9,WARDROBES,LF,target,left,aqua,pleasantness,conservative,no,z,1,0.647259786842,1,608
2019_Oct_22,125,001,4,recog,10,GETTING,HF,lure,-,-,-,conservative,no,z,0,1.16513133197,-3,605
2019_Oct_22,125,001,4,recog,11,SORRY,HF,target,left,aqua,pleasantness,conservative,no,z,1,0.706200068628,1,606
2019_Oct_22,125,001,4,recog,12,BOOKS,HF,lure,-,-,-,liberal,no,m,1,0.682733057061,1,607
2019_Oct_22,125,001,4,recog,13,OMITTING,LF,target,left,aqua,pleasantness,liberal,no,z,1,0.788490048919,3,610
2019_Oct_22,125,001,4,recog,14,HUMAN,HF,target,left,aqua,pleasantness,conservative,no,z,1,0.682441607424,1,611
2019_Oct_22,125,001,4,recog,15,LIMELIGHT,LF,target,left,aqua,pleasantness,liberal,no,z,1,0.694259065367,3,614
2019_Oct_22,125,001,4,recog,16,PUCKERED,LF,target,right,yellow,imageability,liberal,no,z,1,0.764956682152,3,617
2019_Oct_22,125,001,4,recog,17,LATER,HF,target,right,yellow,imageability,liberal,no,z,1,0.764909756927,3,620
2019_Oct_22,125,001,4,recog,18,APART,HF,target,left,aqua,pleasantness,conservative,yes,z,1,1.29440116081,1,621
2019_Oct_22,125,001,4,recog,19,ACROSS,HF,target,left,aqua,pleasantness,liberal,no,z,1,2.52966590706,3,624
2019_Oct_22,125,001,4,recog,20,HIMSELF,HF,lure,-,-,-,conservative,no,m,1,1.47087409962,3,627
2019_Oct_22,125,001,4,recog,21,DUSTER,LF,target,right,yellow,imageability,conservative,no,z,1,0.600339328031,1,628
2019_Oct_22,125,001,4,recog,22,FRIEND,HF,target,left,aqua,pleasantness,liberal,no,z,1,0.635509050703,3,631
2019_Oct_22,125,001,4,recog,23,SLIGHTLY,HF,lure,-,-,-,liberal,no,z,0,1.16505361207,-1,630
2019_Oct_22,125,001,4,recog,24,FURTHER,HF,lure,-,-,-,liberal,no,m,1,1.18858551242,1,631
2019_Oct_22,125,001,4,recog,25,ORCHARDS,LF,lure,-,-,-,liberal,no,m,1,1.02387284144,1,632
2019_Oct_22,125,001,4,recog,26,BECAME,HF,lure,-,-,-,conservative,no,m,1,0.859031492691,3,635
2019_Oct_22,125,001,4,recog,27,SLEEP,HF,lure,-,-,-,conservative,no,m,1,0.800306773656,3,638
2019_Oct_22,125,001,4,recog,28,IRATE,LF,lure,-,-,-,liberal,no,m,1,0.635669622956,1,639
2019_Oct_22,125,001,4,recog,29,FOLLOWED,HF,lure,-,-,-,liberal,no,z,0,2.4238418268,-1,638
2019_Oct_22,125,001,4,recog,30,RELAXES,LF,lure,-,-,-,liberal,no,m,1,0.812013150794,1,639
2019_Oct_22,125,001,4,recog,31,NUTSHELL,LF,lure,-,-,-,conservative,no,m,1,0.941534102907,3,642
2019_Oct_22,125,001,4,recog,32,INSIDE,HF,target,right,yellow,imageability,liberal,no,z,1,0.694410105933,3,645
2019_Oct_22,125,001,4,recog,33,PEGGED,LF,target,right,yellow,imageability,liberal,no,z,1,0.717898380493,3,648
2019_Oct_22,125,001,4,recog,34,SPEAK,HF,target,right,yellow,imageability,liberal,no,z,1,1.27084176521,3,651
2019_Oct_22,125,001,4,recog,35,INTEREST,HF,target,right,yellow,imageability,conservative,no,z,1,0.682629674925,1,652
2019_Oct_22,125,001,4,recog,36,OCHRE,LF,lure,-,-,-,liberal,no,m,1,0.741490403792,1,653
2019_Oct_22,125,001,4,recog,37,JASMINE,LF,target,right,yellow,imageability,liberal,no,z,1,0.612091897187,3,656
2019_Oct_22,125,001,4,recog,38,EXACTLY,HF,lure,-,-,-,conservative,no,z,0,0.988557943854,-3,653
2019_Oct_22,125,001,4,recog,39,FLICKS,LF,lure,-,-,-,liberal,no,m,1,1.05902606696,1,654
2019_Oct_22,125,001,4,recog,40,COWARDS,LF,lure,-,-,-,liberal,no,m,1,0.776760942376,1,655
2019_Oct_22,125,001,4,recog,41,GASEOUS,LF,target,left,aqua,pleasantness,conservative,no,z,1,0.83549885913,1,656
2019_Oct_22,125,001,4,recog,42,SPOKE,HF,lure,-,-,-,liberal,no,m,1,1.43551960888,1,657
2019_Oct_22,125,001,4,recog,43,CITES,LF,lure,-,-,-,liberal,no,m,1,0.800289909904,1,658
2019_Oct_22,125,001,4,recog,44,PAUNCH,LF,lure,-,-,-,liberal,no,m,1,0.78856740222,1,659
2019_Oct_22,125,001,4,recog,45,CERTAIN,HF,lure,-,-,-,liberal,no,z,0,1.83538411229,-1,658
2019_Oct_22,125,001,4,recog,46,PICTURE,HF,lure,-,-,-,liberal,no,m,1,1.11772512377,1,659
2019_Oct_22,125,001,4,recog,47,AREAS,HF,lure,-,-,-,conservative,no,m,1,2.04716828265,3,662
2019_Oct_22,125,001,4,recog,48,OPENED,HF,target,right,yellow,imageability,conservative,no,z,1,0.870628255437,1,663
2019_Oct_22,125,001,4,recog,49,PALATABLE,LF,target,left,aqua,pleasantness,conservative,no,z,1,0.717960336454,1,664
2019_Oct_22,125,001,4,recog,50,DROLL,LF,target,right,yellow,imageability,conservative,no,z,1,0.600332362568,1,665
2019_Oct_22,125,001,4,recog,51,FUMING,LF,target,left,aqua,pleasantness,liberal,no,z,1,0.894460770512,3,668
2019_Oct_22,125,001,4,recog,52,GREATER,HF,target,right,yellow,imageability,conservative,no,m,0,0.976669364867,-1,667
2019_Oct_22,125,001,4,recog,53,LICENSING,LF,lure,-,-,-,conservative,no,m,1,0.941412757209,3,670
2019_Oct_22,125,001,4,recog,54,UNRAVEL,LF,target,right,yellow,imageability,conservative,no,z,1,2.15327977992,1,671
2019_Oct_22,125,001,4,recog,55,ATTACK,HF,target,right,yellow,imageability,liberal,no,z,1,0.541487031041,3,674
2019_Oct_22,125,001,4,recog,56,FRACTIONS,LF,lure,-,-,-,conservative,no,m,1,0.859155771216,3,677
2019_Oct_22,125,001,4,recog,57,AVIDLY,LF,lure,-,-,-,liberal,no,z,0,1.04733985301,-1,676
2019_Oct_22,125,001,4,recog,58,TOGETHER,HF,target,left,aqua,pleasantness,liberal,no,z,1,1.58855046515,3,679
2019_Oct_22,125,001,4,recog,59,QUALITY,HF,lure,-,-,-,liberal,yes,z,0,0.882616550527,-1,678
2019_Oct_22,125,001,4,recog,60,MISFITS,LF,lure,-,-,-,liberal,no,m,1,4.21209138394,1,679
2019_Oct_22,125,001,4,recog,61,ABOVE,HF,lure,-,-,-,liberal,no,m,1,2.12980213686,1,680
2019_Oct_22,125,001,4,recog,62,PLUGGING,LF,target,left,aqua,pleasantness,conservative,no,z,1,1.04729036156,1,681
2019_Oct_22,125,001,4,recog,63,LOUDEST,LF,target,right,yellow,imageability,conservative,no,z,1,1.72975286537,1,682
2019_Oct_22,125,001,4,recog,64,POUNDS,HF,target,right,yellow,imageability,conservative,no,z,1,0.659126736233,1,683
2019_Oct_22,125,001,4,recog,65,SEABED,LF,target,left,aqua,pleasantness,liberal,no,z,1,0.988546945754,3,686
2019_Oct_22,125,001,4,recog,66,MIMICKED,LF,lure,-,-,-,conservative,no,z,0,1.07079623308,-3,683
2019_Oct_22,125,001,4,recog,67,VISCOUS,LF,lure,-,-,-,conservative,no,m,1,0.929726909857,3,686
2019_Oct_22,125,001,4,recog,68,DOTTY,LF,lure,-,-,-,conservative,no,m,1,0.753227942212,3,689
2019_Oct_22,125,001,4,recog,69,TURNED,HF,lure,-,-,-,conservative,no,m,1,1.02382115037,3,692
2019_Oct_22,125,001,4,recog,70,ENTIRELY,HF,lure,-,-,-,conservative,no,m,1,0.541396846625,3,695
2019_Oct_22,125,001,4,recog,71,DIPLOMAS,LF,target,left,aqua,pleasantness,liberal,no,z,1,0.800240051853,3,698
2019_Oct_22,125,001,4,recog,72,HUSBAND,HF,lure,-,-,-,liberal,no,m,1,0.894410545858,1,699
2019_Oct_22,125,001,4,recog,73,MOGUL,LF,target,right,yellow,imageability,liberal,no,z,1,0.694186844513,3,702
2019_Oct_22,125,001,4,recog,74,DAGGERS,LF,target,right,yellow,imageability,liberal,no,z,1,0.764993709087,3,705
2019_Oct_22,125,001,4,recog,75,INDEED,HF,target,left,aqua,pleasantness,liberal,no,z,1,1.30614236527,3,708
2019_Oct_22,125,001,4,recog,76,ENCLOSE,LF,lure,-,-,-,conservative,no,m,1,0.85883022747,3,711
2019_Oct_22,125,001,4,recog,77,MINISTER,HF,target,right,yellow,imageability,conservative,no,z,1,0.718000662819,1,712
2019_Oct_22,125,001,4,recog,78,UNABATED,LF,target,left,aqua,pleasantness,conservative,no,m,0,1.05914154701,-1,711
2019_Oct_22,125,001,4,recog,79,GEARING,LF,lure,-,-,-,conservative,no,m,1,1.64739176404,3,714
2019_Oct_22,125,001,4,recog,80,DUNGEON,LF,target,right,yellow,imageability,liberal,no,z,1,0.670955192276,3,717
2019_Oct_22,125,001,4,recog,81,AMALGAM,LF,target,left,aqua,pleasantness,liberal,no,m,0,0.753327291711,-3,714
2019_Oct_22,125,001,4,recog,82,RIGGING,LF,target,right,yellow,imageability,conservative,no,m,0,1.8121348631,-1,713
2019_Oct_22,125,001,4,recog,83,CUISINE,LF,lure,-,-,-,conservative,no,m,1,1.22385458459,3,716
2019_Oct_22,125,001,4,recog,84,SOVIET,HF,target,left,aqua,pleasantness,conservative,no,z,1,0.68268759825,1,717
2019_Oct_22,125,001,4,recog,85,SOCIAL,HF,lure,-,-,-,conservative,no,m,1,1.07087028695,3,720
2019_Oct_22,125,001,4,recog,86,GRACES,LF,lure,-,-,-,liberal,no,m,1,1.16505434528,1,721
2019_Oct_22,125,001,4,recog,87,BREAK,HF,lure,-,-,-,liberal,no,m,1,0.63548558809,1,722
2019_Oct_22,125,001,4,recog,88,TYCOONS,LF,lure,-,-,-,conservative,no,z,0,0.741445311583,-3,719
2019_Oct_22,125,001,4,recog,89,IRRIGATED,LF,lure,-,-,-,conservative,no,z,0,2.10622221147,-3,716
2019_Oct_22,125,001,4,recog,90,EDUCATION,HF,target,left,aqua,pleasantness,liberal,no,z,1,1.0474388359,3,719
2019_Oct_22,125,001,4,recog,91,AGGRAVATE,LF,target,right,yellow,imageability,conservative,no,z,1,3.28261559736,1,720
2019_Oct_22,125,001,4,recog,92,TAKEN,HF,lure,-,-,-,conservative,no,m,1,2.03563457568,3,723
2019_Oct_22,125,001,4,recog,93,REIGNING,LF,lure,-,-,-,liberal,no,z,0,1.55299617559,-1,722
2019_Oct_22,125,001,4,recog,94,VILLAGE,HF,target,left,aqua,pleasantness,conservative,yes,m,0,1.60027590566,-1,721
2019_Oct_22,125,001,4,recog,95,SNIGGERED,LF,lure,-,-,-,conservative,no,m,1,2.40034841979,3,724
