date,subj,session,cycle,task,trial,item,wf,type,source,colour,encoding,bias,null,response,corr,rt,points,total
2019_Oct_22,126,001,0,source,0,PRIVATE,HF,target,right,aqua,imageability,conservative,no,3,0,4.70622389784,-,-
2019_Oct_22,126,001,0,source,1,AHEAD,HF,target,right,aqua,imageability,conservative,no,7,1,4.32972668989,-,-
2019_Oct_22,126,001,0,source,2,POETICAL,LF,target,right,aqua,imageability,liberal,no,7,1,0.705946379132,-,-
2019_Oct_22,126,001,0,source,3,GUILDHALL,LF,target,right,aqua,imageability,liberal,yes,7,1,1.45888030548,-,-
2019_Oct_22,126,001,0,source,4,COGENT,LF,target,left,yellow,pleasantness,conservative,no,7,0,3.05914374663,-,-
2019_Oct_22,126,001,0,source,5,TYRANTS,LF,target,left,yellow,pleasantness,liberal,no,3,1,2.51808234204,-,-
2019_Oct_22,126,001,0,source,6,LEVEL,HF,target,right,aqua,imageability,liberal,no,3,0,0.753373483729,-,-
2019_Oct_22,126,001,0,source,7,HISTORY,HF,target,right,aqua,imageability,liberal,yes,7,1,1.48272198564,-,-
2019_Oct_22,126,001,0,source,8,HERSELF,HF,target,right,aqua,imageability,liberal,no,2,0,2.04740877443,-,-
2019_Oct_22,126,001,0,source,9,HORDE,LF,target,right,aqua,imageability,liberal,no,7,1,1.7883437742,-,-
2019_Oct_22,126,001,0,source,10,BILATERAL,LF,target,left,yellow,pleasantness,conservative,no,7,0,1.41202730168,-,-
2019_Oct_22,126,001,0,source,11,SODDING,LF,target,left,yellow,pleasantness,liberal,no,2,1,2.0003314094,-,-
2019_Oct_22,126,001,0,source,12,HAIRDO,LF,target,right,aqua,imageability,conservative,no,2,0,1.88264881162,-,-
2019_Oct_22,126,001,0,source,13,ALCHEMIST,LF,target,left,yellow,pleasantness,liberal,no,2,1,1.38827763896,-,-
2019_Oct_22,126,001,0,source,14,CONCERNED,HF,target,right,aqua,imageability,conservative,no,7,1,1.7650285364,-,-
2019_Oct_22,126,001,0,source,15,SORRY,HF,target,left,yellow,pleasantness,liberal,no,3,1,1.83561250616,-,-
2019_Oct_22,126,001,0,source,16,WRONG,HF,target,right,aqua,imageability,liberal,no,3,0,1.01207884611,-,-
2019_Oct_22,126,001,0,source,17,UNION,HF,target,left,yellow,pleasantness,conservative,no,2,1,2.4473458653,-,-
2019_Oct_22,126,001,0,source,18,RIOTERS,LF,target,right,aqua,imageability,conservative,no,2,0,1.20021270325,-,-
2019_Oct_22,126,001,0,source,19,INVOLVED,HF,target,left,yellow,pleasantness,liberal,no,3,1,1.62395738016,-,-
2019_Oct_22,126,001,0,source,20,THANK,HF,target,right,aqua,imageability,conservative,no,7,1,1.57688844701,-,-
2019_Oct_22,126,001,0,source,21,GIVEN,HF,target,right,aqua,imageability,liberal,no,7,1,1.20031205274,-,-
2019_Oct_22,126,001,0,source,22,RECENT,HF,target,left,yellow,pleasantness,conservative,no,7,0,1.03563457568,-,-
2019_Oct_22,126,001,0,source,23,INSIDE,HF,target,left,yellow,pleasantness,liberal,no,7,0,1.31788760236,-,-
2019_Oct_22,126,001,0,source,24,GURGLE,LF,target,left,yellow,pleasantness,liberal,no,7,0,1.55335691326,-,-
2019_Oct_22,126,001,0,source,25,REPORT,HF,target,right,aqua,imageability,conservative,no,3,0,1.92982112691,-,-
2019_Oct_22,126,001,0,source,26,WEEKS,HF,target,left,yellow,pleasantness,liberal,no,7,0,1.3180030824,-,-
2019_Oct_22,126,001,0,source,27,DAUGHTER,HF,target,left,yellow,pleasantness,conservative,no,7,0,2.18858367941,-,-
2019_Oct_22,126,001,0,source,28,ECHELONS,LF,target,left,yellow,pleasantness,conservative,yes,3,1,1.7650508992,-,-
2019_Oct_22,126,001,0,source,29,FAKING,LF,target,right,aqua,imageability,liberal,no,8,1,1.90621223986,-,-
2019_Oct_22,126,001,0,source,30,FOCUSES,LF,target,left,yellow,pleasantness,liberal,no,8,0,2.1650569115,-,-
2019_Oct_22,126,001,0,source,31,PIANOS,LF,target,right,aqua,imageability,conservative,no,2,0,1.48263546726,-,-
2019_Oct_22,126,001,0,source,32,SHORT,HF,target,left,yellow,pleasantness,liberal,yes,8,0,1.43566185097,-,-
2019_Oct_22,126,001,0,source,33,REIGNING,LF,target,right,aqua,imageability,conservative,no,8,1,2.02388713897,-,-
2019_Oct_22,126,001,0,source,34,PSEUDONYM,LF,target,left,yellow,pleasantness,conservative,no,2,1,1.38849870076,-,-
2019_Oct_22,126,001,0,source,35,ASCEND,LF,target,left,yellow,pleasantness,conservative,no,7,0,2.54141554339,-,-
2019_Oct_22,126,001,0,source,36,MUMBLES,LF,target,right,aqua,imageability,conservative,no,3,0,1.50621832547,-,-
2019_Oct_22,126,001,0,source,37,TYCOONS,LF,target,right,aqua,imageability,liberal,no,7,1,1.29443452171,-,-
2019_Oct_22,126,001,0,source,38,IRISES,LF,target,left,yellow,pleasantness,conservative,no,3,1,1.31799428392,-,-
2019_Oct_22,126,001,0,source,39,NECESSARY,HF,target,left,yellow,pleasantness,conservative,no,3,1,1.74147720607,-,-
2019_Oct_22,126,001,0,source,40,BOGEY,LF,target,left,yellow,pleasantness,liberal,no,7,0,1.17679078389,-,-
2019_Oct_22,126,001,0,source,41,ACTION,HF,target,left,yellow,pleasantness,conservative,no,3,1,1.29448071373,-,-
2019_Oct_22,126,001,0,source,42,DECIDED,HF,target,left,yellow,pleasantness,conservative,no,3,1,1.78847611799,-,-
2019_Oct_22,126,001,0,source,43,SOCIAL,HF,target,right,aqua,imageability,liberal,no,7,1,1.05913311513,-,-
2019_Oct_22,126,001,0,source,44,SUSPEND,LF,target,right,aqua,imageability,conservative,no,7,1,0.870888910396,-,-
2019_Oct_22,126,001,0,source,45,ENTIRELY,HF,target,left,yellow,pleasantness,liberal,no,2,1,1.78862202611,-,-
2019_Oct_22,126,001,0,source,46,FOUND,HF,target,right,aqua,imageability,conservative,no,7,1,1.7414915036,-,-
2019_Oct_22,126,001,0,source,47,ENVIRONS,LF,target,right,aqua,imageability,liberal,no,7,1,1.34148292508,-,-
2019_Oct_22,126,001,0,recog,0,HERSELF,HF,target,right,aqua,imageability,liberal,no,z,1,3.25920650912,3,3
2019_Oct_22,126,001,0,recog,1,REPORT,HF,target,right,aqua,imageability,conservative,no,z,1,2.15330690857,1,4
2019_Oct_22,126,001,0,recog,2,HUNDRED,HF,lure,-,-,-,liberal,no,m,1,1.78828658408,1,5
2019_Oct_22,126,001,0,recog,3,ERRANT,LF,lure,-,-,-,conservative,no,m,1,1.62387489442,3,8
2019_Oct_22,126,001,0,recog,4,IRISES,LF,target,left,yellow,pleasantness,conservative,no,z,1,1.04728486251,1,9
2019_Oct_22,126,001,0,recog,5,COGENT,LF,target,left,yellow,pleasantness,conservative,no,z,1,0.917888188921,1,10
2019_Oct_22,126,001,0,recog,6,LOVELIEST,LF,lure,-,-,-,liberal,no,m,1,1.54146246862,1,11
2019_Oct_22,126,001,0,recog,7,LEVEL,HF,target,right,aqua,imageability,liberal,no,m,0,2.28278680111,-3,8
2019_Oct_22,126,001,0,recog,8,FIDDLED,LF,lure,-,-,-,liberal,no,m,1,1.32950159546,1,9
2019_Oct_22,126,001,0,recog,9,POETICAL,LF,target,right,aqua,imageability,liberal,no,z,1,1.05926582553,3,12
2019_Oct_22,126,001,0,recog,10,SOCIAL,HF,target,right,aqua,imageability,liberal,no,z,1,1.15320939208,3,15
2019_Oct_22,126,001,0,recog,11,IDYLL,LF,lure,-,-,-,conservative,no,m,1,0.96493439267,3,18
2019_Oct_22,126,001,0,recog,12,FAMILY,HF,lure,-,-,-,conservative,no,m,1,1.24734615858,3,21
2019_Oct_22,126,001,0,recog,13,BOVINE,LF,lure,-,-,-,liberal,yes,z,0,1.77680163534,-1,20
2019_Oct_22,126,001,0,recog,14,MOVED,HF,lure,-,-,-,conservative,no,m,1,3.41205589674,3,23
2019_Oct_22,126,001,0,recog,15,PELTED,LF,lure,-,-,-,liberal,no,m,1,1.10626180463,1,24
2019_Oct_22,126,001,0,recog,16,SHALL,HF,lure,-,-,-,liberal,no,m,1,1.28274904097,1,25
2019_Oct_22,126,001,0,recog,17,WEDGES,LF,lure,-,-,-,conservative,yes,m,1,1.90638161059,3,28
2019_Oct_22,126,001,0,recog,18,PRIVATE,HF,target,right,aqua,imageability,conservative,no,z,1,1.57677040074,1,29
2019_Oct_22,126,001,0,recog,19,TAKEN,HF,lure,-,-,-,liberal,no,z,0,2.12967969135,-1,28
2019_Oct_22,126,001,0,recog,20,AHEAD,HF,target,right,aqua,imageability,conservative,no,z,1,1.97656304991,1,29
2019_Oct_22,126,001,0,recog,21,ALCHEMIST,LF,target,left,yellow,pleasantness,liberal,no,z,1,2.10601141456,3,32
2019_Oct_22,126,001,0,recog,22,SUSPEND,LF,target,right,aqua,imageability,conservative,no,z,1,1.71787785071,1,33
2019_Oct_22,126,001,0,recog,23,INSIDE,HF,target,left,yellow,pleasantness,liberal,no,m,0,1.81208720466,-3,30
2019_Oct_22,126,001,0,recog,24,EMIGRATED,LF,lure,-,-,-,liberal,no,m,1,1.29426845041,1,31
2019_Oct_22,126,001,0,recog,25,FAKING,LF,target,right,aqua,imageability,liberal,no,z,1,1.14162362744,3,34
2019_Oct_22,126,001,0,recog,26,ENVIRONS,LF,target,right,aqua,imageability,liberal,no,z,1,1.03562724361,3,37
2019_Oct_22,126,001,0,recog,27,DECIDED,HF,target,left,yellow,pleasantness,conservative,no,z,1,2.44743201708,1,38
2019_Oct_22,126,001,0,recog,28,UNZIPPED,LF,lure,-,-,-,conservative,no,m,1,1.37676446177,3,41
2019_Oct_22,126,001,0,recog,29,BIBLES,LF,lure,-,-,-,liberal,no,m,1,1.54155338624,1,42
2019_Oct_22,126,001,0,recog,30,FEVERS,LF,lure,-,-,-,conservative,no,m,1,1.42383742756,3,45
2019_Oct_22,126,001,0,recog,31,DERANGED,LF,lure,-,-,-,conservative,no,m,1,1.30622228479,3,48
2019_Oct_22,126,001,0,recog,32,DAUGHTER,HF,target,left,yellow,pleasantness,conservative,no,z,1,1.17672332888,1,49
2019_Oct_22,126,001,0,recog,33,FERRET,LF,lure,-,-,-,conservative,no,m,1,2.32976774947,3,52
2019_Oct_22,126,001,0,recog,34,SODDING,LF,target,left,yellow,pleasantness,liberal,no,z,1,1.28260349945,3,55
2019_Oct_22,126,001,0,recog,35,FOUND,HF,target,right,aqua,imageability,conservative,no,z,1,1.48275974578,1,56
2019_Oct_22,126,001,0,recog,36,ALDER,LF,lure,-,-,-,liberal,no,m,1,1.77675947596,1,57
2019_Oct_22,126,001,0,recog,37,APART,HF,lure,-,-,-,conservative,no,m,1,1.27092131813,3,60
2019_Oct_22,126,001,0,recog,38,GIVEN,HF,target,right,aqua,imageability,liberal,no,z,1,2.02382188358,3,63
2019_Oct_22,126,001,0,recog,39,ASCEND,LF,target,left,yellow,pleasantness,conservative,no,z,1,1.81210700124,1,64
2019_Oct_22,126,001,0,recog,40,SKATES,LF,lure,-,-,-,liberal,no,m,1,1.08258216314,1,65
2019_Oct_22,126,001,0,recog,41,WRONG,HF,target,right,aqua,imageability,liberal,no,m,0,1.7062297635,-3,62
2019_Oct_22,126,001,0,recog,42,ACTION,HF,target,left,yellow,pleasantness,conservative,no,z,1,1.70625542573,1,63
2019_Oct_22,126,001,0,recog,43,UTTERANCE,LF,lure,-,-,-,conservative,no,m,1,1.16513683102,3,66
2019_Oct_22,126,001,0,recog,44,PSEUDONYM,LF,target,left,yellow,pleasantness,conservative,no,z,1,1.14139046773,1,67
2019_Oct_22,126,001,0,recog,45,CHROMIUM,LF,lure,-,-,-,conservative,no,m,1,1.04733325415,3,70
2019_Oct_22,126,001,0,recog,46,UNION,HF,target,left,yellow,pleasantness,conservative,no,z,1,0.858961838061,1,71
2019_Oct_22,126,001,0,recog,47,SHORT,HF,target,left,yellow,pleasantness,liberal,no,z,1,1.36502692335,3,74
2019_Oct_22,126,001,0,recog,48,SLEEP,HF,lure,-,-,-,liberal,no,m,1,0.988483889984,1,75
2019_Oct_22,126,001,0,recog,49,GLASS,HF,lure,-,-,-,liberal,no,m,1,1.49436164098,1,76
2019_Oct_22,126,001,0,recog,50,TYRANTS,LF,target,left,yellow,pleasantness,liberal,no,z,1,1.02383801412,3,79
2019_Oct_22,126,001,0,recog,51,INVOLVED,HF,target,left,yellow,pleasantness,liberal,no,z,1,1.21203052779,3,82
2019_Oct_22,126,001,0,recog,52,ECHELONS,LF,target,left,yellow,pleasantness,conservative,no,z,1,1.32972888951,1,83
2019_Oct_22,126,001,0,recog,53,RECENT,HF,target,left,yellow,pleasantness,conservative,no,z,1,1.48264536555,1,84
2019_Oct_22,126,001,0,recog,54,BOGEY,LF,target,left,yellow,pleasantness,liberal,no,m,0,1.34154524765,-3,81
2019_Oct_22,126,001,0,recog,55,RINSING,LF,lure,-,-,-,liberal,yes,z,0,1.25906426703,-1,80
2019_Oct_22,126,001,0,recog,56,BEGAN,HF,lure,-,-,-,conservative,no,m,1,1.89448093369,3,83
2019_Oct_22,126,001,0,recog,57,HISTORY,HF,target,right,aqua,imageability,liberal,no,z,1,1.34145542984,3,86
2019_Oct_22,126,001,0,recog,58,AFRAID,HF,lure,-,-,-,conservative,no,m,1,1.23561118639,3,89
2019_Oct_22,126,001,0,recog,59,SORRY,HF,target,left,yellow,pleasantness,liberal,no,m,0,1.58853360139,-3,86
2019_Oct_22,126,001,0,recog,60,WEEKS,HF,target,left,yellow,pleasantness,liberal,no,m,0,1.34144919758,-3,83
2019_Oct_22,126,001,0,recog,61,PIANOS,LF,target,right,aqua,imageability,conservative,no,z,1,1.12962616727,1,84
2019_Oct_22,126,001,0,recog,62,GURGLE,LF,target,left,yellow,pleasantness,liberal,no,m,0,1.91796407581,-3,81
2019_Oct_22,126,001,0,recog,63,VARIOUS,HF,lure,-,-,-,liberal,no,m,1,1.04735121771,1,82
2019_Oct_22,126,001,0,recog,64,IMPORTANT,HF,lure,-,-,-,conservative,no,m,1,1.65921728725,3,85
2019_Oct_22,126,001,0,recog,65,HAIRDO,LF,target,right,aqua,imageability,conservative,no,z,1,1.08267271415,1,86
2019_Oct_22,126,001,0,recog,66,HORDE,LF,target,right,aqua,imageability,liberal,no,z,1,1.64743978907,3,89
2019_Oct_22,126,001,0,recog,67,YOUNG,HF,lure,-,-,-,conservative,no,m,1,2.2003406478,3,92
2019_Oct_22,126,001,0,recog,68,EXCEPT,HF,lure,-,-,-,liberal,no,m,1,1.42394227611,1,93
2019_Oct_22,126,001,0,recog,69,RIOTERS,LF,target,right,aqua,imageability,conservative,no,z,1,1.08262652214,1,94
2019_Oct_22,126,001,0,recog,70,MOTHER,HF,lure,-,-,-,conservative,no,m,1,1.28273437683,3,97
2019_Oct_22,126,001,0,recog,71,CONCERNED,HF,target,right,aqua,imageability,conservative,no,z,1,1.44731983647,1,98
2019_Oct_22,126,001,0,recog,72,TYCOONS,LF,target,right,aqua,imageability,liberal,no,z,1,1.14151511285,3,101
2019_Oct_22,126,001,0,recog,73,THANK,HF,target,right,aqua,imageability,conservative,no,m,0,1.96507406853,-1,100
2019_Oct_22,126,001,0,recog,74,AMICABLY,LF,lure,-,-,-,conservative,no,m,1,2.32955182011,3,103
2019_Oct_22,126,001,0,recog,75,TEMERITY,LF,lure,-,-,-,liberal,yes,z,0,1.08269654337,-1,102
2019_Oct_22,126,001,0,recog,76,FOLLOWED,HF,lure,-,-,-,conservative,no,m,1,1.95327494076,3,105
2019_Oct_22,126,001,0,recog,77,SERIOUS,HF,lure,-,-,-,liberal,no,m,1,1.48268642512,1,106
2019_Oct_22,126,001,0,recog,78,LOCAL,HF,lure,-,-,-,liberal,no,m,1,1.65911537153,1,107
2019_Oct_22,126,001,0,recog,79,RETURN,HF,lure,-,-,-,liberal,no,m,1,1.7179211099,1,108
2019_Oct_22,126,001,0,recog,80,OFFER,HF,lure,-,-,-,conservative,no,m,1,1.31796238943,3,111
2019_Oct_22,126,001,0,recog,81,HIGHER,HF,lure,-,-,-,conservative,no,m,1,1.2120862515,3,114
2019_Oct_22,126,001,0,recog,82,ROBBERIES,LF,lure,-,-,-,conservative,no,m,1,1.23564014805,3,117
2019_Oct_22,126,001,0,recog,83,ANSWER,HF,lure,-,-,-,conservative,no,m,1,0.976741219118,3,120
2019_Oct_22,126,001,0,recog,84,ENTIRELY,HF,target,left,yellow,pleasantness,liberal,no,m,0,1.90627822846,-3,117
2019_Oct_22,126,001,0,recog,85,BILATERAL,LF,target,left,yellow,pleasantness,conservative,no,z,1,1.20020830401,1,118
2019_Oct_22,126,001,0,recog,86,REIGNING,LF,target,right,aqua,imageability,conservative,no,z,1,1.3768227517,1,119
2019_Oct_22,126,001,0,recog,87,SIMILAR,HF,lure,-,-,-,liberal,no,z,0,2.32972229065,-1,118
2019_Oct_22,126,001,0,recog,88,NECESSARY,HF,target,left,yellow,pleasantness,conservative,no,m,0,2.21202136271,-1,117
2019_Oct_22,126,001,0,recog,89,DEITIES,LF,lure,-,-,-,liberal,no,m,1,1.49437043945,1,118
2019_Oct_22,126,001,0,recog,90,GORGED,LF,lure,-,-,-,conservative,no,m,1,1.05914814587,3,121
2019_Oct_22,126,001,0,recog,91,FOCUSES,LF,target,left,yellow,pleasantness,liberal,no,z,1,2.0591631766,3,124
2019_Oct_22,126,001,0,recog,92,BETTER,HF,lure,-,-,-,liberal,no,m,1,1.28269295066,1,125
2019_Oct_22,126,001,0,recog,93,GUILDHALL,LF,target,right,aqua,imageability,liberal,no,m,0,1.14151804568,-3,122
2019_Oct_22,126,001,0,recog,94,HITCHING,LF,lure,-,-,-,liberal,no,m,1,1.91801576688,1,123
2019_Oct_22,126,001,0,recog,95,MUMBLES,LF,target,right,aqua,imageability,conservative,no,z,1,1.85920123003,1,124
2019_Oct_22,126,001,1,source,0,APPEARED,HF,target,right,aqua,imageability,conservative,no,3,0,2.38840301729,-,-
2019_Oct_22,126,001,1,source,1,DIFFERENT,HF,target,left,yellow,pleasantness,conservative,no,3,1,1.89449889726,-,-
2019_Oct_22,126,001,1,source,2,GEOLOGIST,LF,target,right,aqua,imageability,conservative,no,7,1,1.43566185097,-,-
2019_Oct_22,126,001,1,source,3,TRIED,HF,target,right,aqua,imageability,liberal,no,3,0,1.81211176709,-,-
2019_Oct_22,126,001,1,source,4,OFTEN,HF,target,right,aqua,imageability,liberal,no,3,0,0.729637018723,-,-
2019_Oct_22,126,001,1,source,5,DENIALS,LF,target,right,aqua,imageability,conservative,no,3,0,0.788235992821,-,-
2019_Oct_22,126,001,1,source,6,UNKEMPT,LF,target,right,aqua,imageability,conservative,yes,7,1,1.48270072265,-,-
2019_Oct_22,126,001,1,source,7,PARENTS,HF,target,left,yellow,pleasantness,conservative,yes,7,0,0.517882543229,-,-
2019_Oct_22,126,001,1,source,8,STUDENT,HF,target,right,aqua,imageability,liberal,no,7,1,0.823918226931,-,-
2019_Oct_22,126,001,1,source,9,REACHED,HF,target,left,yellow,pleasantness,conservative,no,3,1,1.69444823268,-,-
2019_Oct_22,126,001,1,source,10,ETHER,LF,target,right,aqua,imageability,liberal,no,3,0,0.917849695573,-,-
2019_Oct_22,126,001,1,source,11,FIELD,HF,target,left,yellow,pleasantness,conservative,no,7,0,0.753189815467,-,-
2019_Oct_22,126,001,1,source,12,JARRED,LF,target,right,aqua,imageability,liberal,no,3,0,2.17673506018,-,-
2019_Oct_22,126,001,1,source,13,ITSELF,HF,target,left,yellow,pleasantness,conservative,no,3,1,0.964994149011,-,-
2019_Oct_22,126,001,1,source,14,DEGREE,HF,target,right,aqua,imageability,liberal,yes,3,0,1.16472110286,-,-
2019_Oct_22,126,001,1,source,15,CURATOR,LF,target,right,aqua,imageability,liberal,no,7,1,0.917938413576,-,-
2019_Oct_22,126,001,1,source,16,GETTING,HF,target,left,yellow,pleasantness,conservative,no,3,1,0.776740045986,-,-
2019_Oct_22,126,001,1,source,17,BAFFLING,LF,target,left,yellow,pleasantness,conservative,no,3,1,0.847300186528,-,-
2019_Oct_22,126,001,1,source,18,WELCOMES,LF,target,right,aqua,imageability,liberal,no,3,0,1.21181496504,-,-
2019_Oct_22,126,001,1,source,19,ADJOURNED,LF,target,left,yellow,pleasantness,conservative,yes,7,0,0.870905774148,-,-
2019_Oct_22,126,001,1,source,20,STAFF,HF,target,right,aqua,imageability,conservative,no,7,1,0.600311466178,-,-
2019_Oct_22,126,001,1,source,21,TODAY,HF,target,right,aqua,imageability,conservative,no,7,1,0.576790197321,-,-
2019_Oct_22,126,001,1,source,22,PECKED,LF,target,left,yellow,pleasantness,liberal,no,3,1,0.905982379579,-,-
2019_Oct_22,126,001,1,source,23,NORTH,HF,target,left,yellow,pleasantness,liberal,no,7,0,1.32954522125,-,-
2019_Oct_22,126,001,1,source,24,NUCLEAR,HF,target,left,yellow,pleasantness,liberal,no,7,0,1.85887861911,-,-
2019_Oct_22,126,001,1,source,25,FATHER,HF,target,left,yellow,pleasantness,liberal,no,7,0,0.823826942705,-,-
2019_Oct_22,126,001,1,source,26,AFTERNOON,HF,target,left,yellow,pleasantness,liberal,no,7,0,0.788501780225,-,-
2019_Oct_22,126,001,1,source,27,CENTRAL,HF,target,left,yellow,pleasantness,liberal,no,7,0,1.02385671089,-,-
2019_Oct_22,126,001,1,source,28,PAPER,HF,target,right,aqua,imageability,liberal,no,7,1,0.565018931395,-,-
2019_Oct_22,126,001,1,source,29,TARIFF,LF,target,right,aqua,imageability,conservative,no,7,1,0.964696100514,-,-
2019_Oct_22,126,001,1,source,30,HUMAN,HF,target,right,aqua,imageability,conservative,no,7,1,1.98858653891,-,-
2019_Oct_22,126,001,1,source,31,BICEPS,LF,target,right,aqua,imageability,conservative,no,7,1,0.611985948828,-,-
2019_Oct_22,126,001,1,source,32,SUPPORT,HF,target,left,yellow,pleasantness,liberal,no,7,0,1.01208177893,-,-
2019_Oct_22,126,001,1,source,33,MAILBOX,LF,target,left,yellow,pleasantness,liberal,no,7,0,0.588581626428,-,-
2019_Oct_22,126,001,1,source,34,PLYWOOD,LF,target,right,aqua,imageability,liberal,no,7,1,0.835390711151,-,-
2019_Oct_22,126,001,1,source,35,FLOOR,HF,target,right,aqua,imageability,conservative,no,7,1,0.600274805847,-,-
2019_Oct_22,126,001,1,source,36,PASSED,HF,target,right,aqua,imageability,conservative,no,3,0,1.03534385925,-,-
2019_Oct_22,126,001,1,source,37,BIOLOGIST,LF,target,left,yellow,pleasantness,liberal,no,7,0,0.694380411065,-,-
2019_Oct_22,126,001,1,source,38,FIANCE,LF,target,left,yellow,pleasantness,liberal,no,7,0,0.753256170667,-,-
2019_Oct_22,126,001,1,source,39,PAVILIONS,LF,target,left,yellow,pleasantness,liberal,no,7,0,0.92972287722,-,-
2019_Oct_22,126,001,1,source,40,CESSATION,LF,target,left,yellow,pleasantness,conservative,no,3,1,1.07091464595,-,-
2019_Oct_22,126,001,1,source,41,BANALITY,LF,target,left,yellow,pleasantness,conservative,no,3,1,0.718029624481,-,-
2019_Oct_22,126,001,1,source,42,CERTAIN,HF,target,right,aqua,imageability,liberal,no,3,0,1.09443774782,-,-
2019_Oct_22,126,001,1,source,43,JOTTED,LF,target,right,aqua,imageability,conservative,no,3,0,0.823561521903,-,-
2019_Oct_22,126,001,1,source,44,ICEBOX,LF,target,right,aqua,imageability,liberal,no,7,1,0.753172951713,-,-
2019_Oct_22,126,001,1,source,45,VEXED,LF,target,left,yellow,pleasantness,liberal,no,3,1,0.847368741348,-,-
2019_Oct_22,126,001,1,source,46,GLOBULAR,LF,target,left,yellow,pleasantness,conservative,no,3,1,1.00025332289,-,-
2019_Oct_22,126,001,1,source,47,REVERE,LF,target,left,yellow,pleasantness,conservative,no,3,1,0.95298789036,-,-
2019_Oct_22,126,001,1,recog,0,CARRIED,HF,lure,-,-,-,conservative,no,z,0,2.03552166186,-3,121
2019_Oct_22,126,001,1,recog,1,HUMAN,HF,target,right,aqua,imageability,conservative,no,z,1,3.24750013198,1,122
2019_Oct_22,126,001,1,recog,2,MOGUL,LF,lure,-,-,-,liberal,no,m,1,1.00006782161,1,123
2019_Oct_22,126,001,1,recog,3,MEANS,HF,lure,-,-,-,liberal,no,z,0,1.00025002346,-1,122
2019_Oct_22,126,001,1,recog,4,STUDENT,HF,target,right,aqua,imageability,liberal,no,m,0,0.929750372469,-3,119
2019_Oct_22,126,001,1,recog,5,GNARLED,LF,lure,-,-,-,liberal,no,m,1,1.8826799729,1,120
2019_Oct_22,126,001,1,recog,6,AFTERNOON,HF,target,left,yellow,pleasantness,liberal,no,z,1,0.988519083902,3,123
2019_Oct_22,126,001,1,recog,7,PUFFS,LF,lure,-,-,-,liberal,no,m,1,1.03555612257,1,124
2019_Oct_22,126,001,1,recog,8,TERMS,HF,lure,-,-,-,conservative,no,z,0,1.29433957146,-3,121
2019_Oct_22,126,001,1,recog,9,NORTH,HF,target,left,yellow,pleasantness,liberal,no,z,1,1.75326240292,3,124
2019_Oct_22,126,001,1,recog,10,ITSELF,HF,target,left,yellow,pleasantness,conservative,no,z,1,1.47083707269,1,125
2019_Oct_22,126,001,1,recog,11,WIRING,LF,lure,-,-,-,conservative,no,z,0,1.29446091715,-3,122
2019_Oct_22,126,001,1,recog,12,FINAL,HF,lure,-,-,-,conservative,no,m,1,1.65920665576,3,125
2019_Oct_22,126,001,1,recog,13,STAFF,HF,target,right,aqua,imageability,conservative,no,z,1,0.953160560522,1,126
2019_Oct_22,126,001,1,recog,14,DRUDGERY,LF,lure,-,-,-,conservative,no,m,1,1.17668263591,3,129
2019_Oct_22,126,001,1,recog,15,ALONE,HF,lure,-,-,-,liberal,no,m,1,1.32951405997,1,130
2019_Oct_22,126,001,1,recog,16,LOGGED,LF,lure,-,-,-,conservative,no,m,1,1.10628306762,3,133
2019_Oct_22,126,001,1,recog,17,AVIDLY,LF,lure,-,-,-,conservative,yes,m,1,1.08269507696,3,136
2019_Oct_22,126,001,1,recog,18,LOYALIST,LF,lure,-,-,-,conservative,no,m,1,3.03552276167,3,139
2019_Oct_22,126,001,1,recog,19,PARENTS,HF,target,left,yellow,pleasantness,conservative,no,z,1,1.02383801412,1,140
2019_Oct_22,126,001,1,recog,20,TARIFF,LF,target,right,aqua,imageability,conservative,no,z,1,1.32964457075,1,141
2019_Oct_22,126,001,1,recog,21,FEELING,HF,lure,-,-,-,conservative,no,m,1,1.51788694247,3,144
2019_Oct_22,126,001,1,recog,22,RIDDLES,LF,lure,-,-,-,conservative,no,m,1,1.90597651393,3,147
2019_Oct_22,126,001,1,recog,23,JARRED,LF,target,right,aqua,imageability,liberal,no,z,1,0.847439862391,3,150
2019_Oct_22,126,001,1,recog,24,NUCLEAR,HF,target,left,yellow,pleasantness,liberal,no,z,1,0.847388537928,3,153
2019_Oct_22,126,001,1,recog,25,OFTEN,HF,target,right,aqua,imageability,liberal,no,z,1,0.670919631754,3,156
2019_Oct_22,126,001,1,recog,26,DENIALS,LF,target,right,aqua,imageability,conservative,no,z,1,1.85906338718,1,157
2019_Oct_22,126,001,1,recog,27,VEXED,LF,target,left,yellow,pleasantness,liberal,no,z,1,1.05912358344,3,160
2019_Oct_22,126,001,1,recog,28,EASILY,HF,lure,-,-,-,conservative,no,m,1,1.37683814903,3,163
2019_Oct_22,126,001,1,recog,29,DEGREE,HF,target,right,aqua,imageability,liberal,no,z,1,2.04739117747,3,166
2019_Oct_22,126,001,1,recog,30,FLOOR,HF,target,right,aqua,imageability,conservative,no,m,0,1.77678183877,-1,165
2019_Oct_22,126,001,1,recog,31,GEOLOGIST,LF,target,right,aqua,imageability,conservative,no,z,1,0.894527492316,1,166
2019_Oct_22,126,001,1,recog,32,TOADS,LF,lure,-,-,-,conservative,yes,m,1,0.717921843106,3,169
2019_Oct_22,126,001,1,recog,33,ADJOURNED,LF,target,left,yellow,pleasantness,conservative,no,m,0,0.906141852021,-1,168
2019_Oct_22,126,001,1,recog,34,PASSED,HF,target,right,aqua,imageability,conservative,no,z,1,1.01218516107,1,169
2019_Oct_22,126,001,1,recog,35,HOTEL,HF,lure,-,-,-,liberal,no,m,1,1.3062901064,1,170
2019_Oct_22,126,001,1,recog,36,VECTORS,LF,lure,-,-,-,liberal,no,z,0,0.812124598203,-1,169
2019_Oct_22,126,001,1,recog,37,BIOLOGIST,LF,target,left,yellow,pleasantness,liberal,no,z,1,1.02386550937,3,172
2019_Oct_22,126,001,1,recog,38,WELCOMES,LF,target,right,aqua,imageability,liberal,no,z,1,0.82375252223,3,175
2019_Oct_22,126,001,1,recog,39,EXPECT,HF,lure,-,-,-,liberal,no,m,1,0.97684533446,1,176
2019_Oct_22,126,001,1,recog,40,TRIED,HF,target,right,aqua,imageability,liberal,no,z,1,0.894543622862,3,179
2019_Oct_22,126,001,1,recog,41,TODAY,HF,target,right,aqua,imageability,conservative,no,z,1,0.964795450013,1,180
2019_Oct_22,126,001,1,recog,42,ADVERSELY,LF,lure,-,-,-,conservative,no,m,1,2.09441245219,3,183
2019_Oct_22,126,001,1,recog,43,SUPPORT,HF,target,left,yellow,pleasantness,liberal,no,z,1,1.09442711633,3,186
2019_Oct_22,126,001,1,recog,44,PECKED,LF,target,left,yellow,pleasantness,liberal,no,z,1,0.72973160238,3,189
2019_Oct_22,126,001,1,recog,45,TALKING,HF,lure,-,-,-,conservative,no,m,1,1.74159781856,3,192
2019_Oct_22,126,001,1,recog,46,MAJOR,HF,lure,-,-,-,conservative,no,m,1,0.929804996364,3,195
2019_Oct_22,126,001,1,recog,47,ODDER,LF,lure,-,-,-,liberal,no,m,1,0.753150955515,1,196
2019_Oct_22,126,001,1,recog,48,FIELD,HF,target,left,yellow,pleasantness,conservative,no,z,1,0.717884449567,1,197
2019_Oct_22,126,001,1,recog,49,CURATOR,LF,target,right,aqua,imageability,liberal,no,z,1,0.741505801131,3,200
2019_Oct_22,126,001,1,recog,50,TOPICAL,LF,lure,-,-,-,liberal,no,m,1,0.988353745806,1,201
2019_Oct_22,126,001,1,recog,51,SAGES,LF,lure,-,-,-,conservative,yes,m,1,0.753216944112,3,204
2019_Oct_22,126,001,1,recog,52,RUNNING,HF,lure,-,-,-,liberal,no,m,1,2.25909799453,1,205
2019_Oct_22,126,001,1,recog,53,BASIC,HF,lure,-,-,-,conservative,no,m,1,1.57680119542,3,208
2019_Oct_22,126,001,1,recog,54,WOBBLE,LF,lure,-,-,-,conservative,no,m,1,0.564917015673,3,211
2019_Oct_22,126,001,1,recog,55,PLYWOOD,LF,target,right,aqua,imageability,liberal,no,z,1,1.44740195561,3,214
2019_Oct_22,126,001,1,recog,56,HANDS,HF,lure,-,-,-,liberal,no,m,1,1.27063683395,1,215
2019_Oct_22,126,001,1,recog,57,BIKINI,LF,lure,-,-,-,conservative,no,m,1,0.647410827409,3,218
2019_Oct_22,126,001,1,recog,58,FLYWHEEL,LF,lure,-,-,-,liberal,no,m,1,0.906116556393,1,219
2019_Oct_22,126,001,1,recog,59,TOGETHER,HF,lure,-,-,-,liberal,no,m,1,1.49417723951,1,220
2019_Oct_22,126,001,1,recog,60,PREPARED,HF,lure,-,-,-,liberal,no,m,1,0.70600356925,1,221
2019_Oct_22,126,001,1,recog,61,BICEPS,LF,target,right,aqua,imageability,conservative,no,z,1,1.03566060451,1,222
2019_Oct_22,126,001,1,recog,62,GLOBULAR,LF,target,left,yellow,pleasantness,conservative,no,z,1,0.812071074118,1,223
2019_Oct_22,126,001,1,recog,63,PAVILIONS,LF,target,left,yellow,pleasantness,liberal,no,z,1,0.659143233383,3,226
2019_Oct_22,126,001,1,recog,64,THOUSAND,HF,lure,-,-,-,liberal,no,m,1,1.27089895533,1,227
2019_Oct_22,126,001,1,recog,65,REVERE,LF,target,left,yellow,pleasantness,conservative,no,z,1,0.894391849089,1,228
2019_Oct_22,126,001,1,recog,66,JOTTED,LF,target,right,aqua,imageability,conservative,no,z,1,1.0472731312,1,229
2019_Oct_22,126,001,1,recog,67,KNUCKLE,LF,lure,-,-,-,liberal,no,z,0,1.63561243284,-1,228
2019_Oct_22,126,001,1,recog,68,TUFTS,LF,lure,-,-,-,liberal,no,m,1,1.98854657915,1,229
2019_Oct_22,126,001,1,recog,69,BANALITY,LF,target,left,yellow,pleasantness,conservative,no,z,1,1.36507238216,1,230
2019_Oct_22,126,001,1,recog,70,OLDER,HF,lure,-,-,-,conservative,no,m,1,1.1885389538,3,233
2019_Oct_22,126,001,1,recog,71,DOCTOR,HF,lure,-,-,-,conservative,no,m,1,0.870925937332,3,236
2019_Oct_22,126,001,1,recog,72,SEINE,LF,lure,-,-,-,liberal,no,m,1,0.965045840078,1,237
2019_Oct_22,126,001,1,recog,73,MAILBOX,LF,target,left,yellow,pleasantness,liberal,no,z,1,1.01206271556,3,240
2019_Oct_22,126,001,1,recog,74,ARRIVED,HF,lure,-,-,-,liberal,no,m,1,1.00045752094,1,241
2019_Oct_22,126,001,1,recog,75,CENTRAL,HF,target,left,yellow,pleasantness,liberal,no,z,1,1.01209204383,3,244
2019_Oct_22,126,001,1,recog,76,APPEARED,HF,target,right,aqua,imageability,conservative,no,m,0,1.09442345029,-1,243
2019_Oct_22,126,001,1,recog,77,SEVEN,HF,lure,-,-,-,liberal,no,m,1,1.11798871155,1,244
2019_Oct_22,126,001,1,recog,78,ICEBOX,LF,target,right,aqua,imageability,liberal,no,z,1,0.917905052674,3,247
2019_Oct_22,126,001,1,recog,79,REACHED,HF,target,left,yellow,pleasantness,conservative,no,z,1,1.42394924157,1,248
2019_Oct_22,126,001,1,recog,80,PAPER,HF,target,right,aqua,imageability,liberal,no,m,0,0.953291071303,-3,245
2019_Oct_22,126,001,1,recog,81,BREAK,HF,lure,-,-,-,liberal,no,m,1,1.15317603118,1,246
2019_Oct_22,126,001,1,recog,82,ENAMELLED,LF,lure,-,-,-,liberal,no,m,1,0.823768286174,1,247
2019_Oct_22,126,001,1,recog,83,TUSKS,LF,lure,-,-,-,conservative,no,z,0,1.15298173142,-3,244
2019_Oct_22,126,001,1,recog,84,PROBABLY,HF,lure,-,-,-,conservative,yes,m,1,0.788491515333,3,247
2019_Oct_22,126,001,1,recog,85,DIFFERENT,HF,target,left,yellow,pleasantness,conservative,no,z,1,1.09442235048,1,248
2019_Oct_22,126,001,1,recog,86,ETHER,LF,target,right,aqua,imageability,liberal,no,z,1,1.28257747061,3,251
2019_Oct_22,126,001,1,recog,87,USUAL,HF,lure,-,-,-,conservative,no,m,1,1.14143262711,3,254
2019_Oct_22,126,001,1,recog,88,CESSATION,LF,target,left,yellow,pleasantness,conservative,no,z,1,1.1298395304,1,255
2019_Oct_22,126,001,1,recog,89,FIANCE,LF,target,left,yellow,pleasantness,liberal,no,z,1,0.8943599546,3,258
2019_Oct_22,126,001,1,recog,90,FATHER,HF,target,left,yellow,pleasantness,liberal,no,z,1,0.788524509631,3,261
2019_Oct_22,126,001,1,recog,91,CERTAIN,HF,target,right,aqua,imageability,liberal,no,z,1,0.85929214765,3,264
2019_Oct_22,126,001,1,recog,92,UNKEMPT,LF,target,right,aqua,imageability,conservative,no,m,0,1.18844693637,-1,263
2019_Oct_22,126,001,1,recog,93,GETTING,HF,target,left,yellow,pleasantness,conservative,no,m,0,2.97681747261,-1,262
2019_Oct_22,126,001,1,recog,94,BAFFLING,LF,target,left,yellow,pleasantness,conservative,no,m,0,2.04735231752,-1,261
2019_Oct_22,126,001,1,recog,95,OPTIC,LF,lure,-,-,-,liberal,no,m,1,0.741511666783,1,262
2019_Oct_22,126,001,2,source,0,NUMBER,HF,target,left,yellow,pleasantness,liberal,no,7,0,2.67090056838,-,-
2019_Oct_22,126,001,2,source,1,ADHERE,LF,target,right,aqua,imageability,conservative,no,7,1,1.32967609864,-,-
2019_Oct_22,126,001,2,source,2,WISPY,LF,target,right,aqua,imageability,conservative,no,3,0,1.36478679817,-,-
2019_Oct_22,126,001,2,source,3,ASPIRED,LF,target,right,aqua,imageability,liberal,yes,3,0,0.953441378663,-,-
2019_Oct_22,126,001,2,source,4,NIMBLE,LF,target,left,yellow,pleasantness,conservative,no,7,0,0.682612077967,-,-
2019_Oct_22,126,001,2,source,5,WALKED,HF,target,right,aqua,imageability,liberal,no,7,1,0.647348138242,-,-
2019_Oct_22,126,001,2,source,6,COACHED,LF,target,right,aqua,imageability,conservative,yes,3,0,0.753174784731,-,-
2019_Oct_22,126,001,2,source,7,EXACTLY,HF,target,right,aqua,imageability,conservative,no,3,0,0.929628293565,-,-
2019_Oct_22,126,001,2,source,8,RELAXES,LF,target,left,yellow,pleasantness,conservative,no,3,1,1.02354143204,-,-
2019_Oct_22,126,001,2,source,9,OOZED,LF,target,left,yellow,pleasantness,conservative,no,7,0,1.31791289798,-,-
2019_Oct_22,126,001,2,source,10,ENHANCES,LF,target,right,aqua,imageability,conservative,no,3,0,1.16505214566,-,-
2019_Oct_22,126,001,2,source,11,PILGRIM,LF,target,right,aqua,imageability,conservative,yes,7,1,0.600333095775,-,-
2019_Oct_22,126,001,2,source,12,NAPPY,LF,target,left,yellow,pleasantness,liberal,no,3,1,0.811987855166,-,-
2019_Oct_22,126,001,2,source,13,CLASS,HF,target,left,yellow,pleasantness,liberal,no,7,0,1.16500778665,-,-
2019_Oct_22,126,001,2,source,14,SEABED,LF,target,right,aqua,imageability,liberal,no,3,0,1.48274214882,-,-
2019_Oct_22,126,001,2,source,15,FIVER,LF,target,right,aqua,imageability,conservative,yes,7,1,1.03565107283,-,-
2019_Oct_22,126,001,2,source,16,COUNCIL,HF,target,right,aqua,imageability,liberal,no,7,1,1.17675632317,-,-
2019_Oct_22,126,001,2,source,17,MINISTER,HF,target,left,yellow,pleasantness,conservative,no,3,1,1.05911038573,-,-
2019_Oct_22,126,001,2,source,18,AUGMENT,LF,target,right,aqua,imageability,liberal,no,3,0,1.16473576699,-,-
2019_Oct_22,126,001,2,source,19,UNNAMED,LF,target,right,aqua,imageability,liberal,no,7,1,1.50590707926,-,-
2019_Oct_22,126,001,2,source,20,FRIEND,HF,target,left,yellow,pleasantness,liberal,no,7,0,1.18851952383,-,-
2019_Oct_22,126,001,2,source,21,WREATH,LF,target,left,yellow,pleasantness,conservative,no,7,0,0.823843806456,-,-
2019_Oct_22,126,001,2,source,22,KNEAD,LF,target,right,aqua,imageability,liberal,no,3,0,0.788362104361,-,-
2019_Oct_22,126,001,2,source,23,DUSTER,LF,target,left,yellow,pleasantness,liberal,no,3,1,1.18870209228,-,-
2019_Oct_22,126,001,2,source,24,TREES,HF,target,left,yellow,pleasantness,conservative,no,7,0,1.08260672556,-,-
2019_Oct_22,126,001,2,source,25,PLEASE,HF,target,left,yellow,pleasantness,conservative,no,7,0,0.953197220853,-,-
2019_Oct_22,126,001,2,source,26,TRADE,HF,target,right,aqua,imageability,conservative,no,7,1,0.470855769456,-,-
2019_Oct_22,126,001,2,source,27,HOURS,HF,target,right,aqua,imageability,conservative,no,3,0,0.541215377983,-,-
2019_Oct_22,126,001,2,source,28,CHIEF,HF,target,right,aqua,imageability,liberal,no,7,1,0.953173758242,-,-
2019_Oct_22,126,001,2,source,29,BLOOD,HF,target,left,yellow,pleasantness,liberal,no,3,1,0.953337996528,-,-
2019_Oct_22,126,001,2,source,30,UNLESS,HF,target,right,aqua,imageability,conservative,no,7,1,1.04737358051,-,-
2019_Oct_22,126,001,2,source,31,POSITION,HF,target,right,aqua,imageability,conservative,no,7,1,0.823780384083,-,-
2019_Oct_22,126,001,2,source,32,FUTURE,HF,target,left,yellow,pleasantness,conservative,no,7,0,1.29446861582,-,-
2019_Oct_22,126,001,2,source,33,HIMSELF,HF,target,left,yellow,pleasantness,liberal,no,3,1,0.529719797752,-,-
2019_Oct_22,126,001,2,source,34,UNBEATEN,LF,target,left,yellow,pleasantness,conservative,no,3,1,1.07090768049,-,-
2019_Oct_22,126,001,2,source,35,LIGHT,HF,target,right,aqua,imageability,liberal,no,3,0,0.529778454284,-,-
2019_Oct_22,126,001,2,source,36,POTASH,LF,target,left,yellow,pleasantness,liberal,no,3,1,1.12981496797,-,-
2019_Oct_22,126,001,2,source,37,PULSAR,LF,target,left,yellow,pleasantness,conservative,no,3,1,1.1883398882,-,-
2019_Oct_22,126,001,2,source,38,IDEAS,HF,target,left,yellow,pleasantness,conservative,no,7,0,0.611856537857,-,-
2019_Oct_22,126,001,2,source,39,CANNOT,HF,target,right,aqua,imageability,conservative,no,7,1,2.62393648378,-,-
2019_Oct_22,126,001,2,source,40,TULIPS,LF,target,right,aqua,imageability,liberal,no,7,1,0.811867609277,-,-
2019_Oct_22,126,001,2,source,41,PETERED,LF,target,left,yellow,pleasantness,liberal,no,3,1,0.905956350743,-,-
2019_Oct_22,126,001,2,source,42,SUCCESS,HF,target,left,yellow,pleasantness,liberal,no,7,0,1.12971048603,-,-
2019_Oct_22,126,001,2,source,43,MESSED,LF,target,left,yellow,pleasantness,liberal,no,7,0,1.01206528179,-,-
2019_Oct_22,126,001,2,source,44,EVENING,HF,target,left,yellow,pleasantness,conservative,no,3,1,0.835398043218,-,-
2019_Oct_22,126,001,2,source,45,FORCE,HF,target,right,aqua,imageability,liberal,no,3,0,0.929736808146,-,-
2019_Oct_22,126,001,2,source,46,USELESSLY,LF,target,left,yellow,pleasantness,liberal,no,7,0,0.835547250768,-,-
2019_Oct_22,126,001,2,source,47,WHETHER,HF,target,right,aqua,imageability,liberal,no,3,0,1.22386961533,-,-
2019_Oct_22,126,001,2,recog,0,TRADE,HF,target,right,aqua,imageability,conservative,no,z,1,2.75329869665,1,263
2019_Oct_22,126,001,2,recog,1,TABLE,HF,lure,-,-,-,conservative,no,m,1,0.941168232796,3,266
2019_Oct_22,126,001,2,recog,2,UPROOTED,LF,lure,-,-,-,liberal,no,m,1,0.835547983976,1,267
2019_Oct_22,126,001,2,recog,3,ADENOIDS,LF,lure,-,-,-,liberal,no,m,1,1.00030208113,1,268
2019_Oct_22,126,001,2,recog,4,CHIEF,HF,target,right,aqua,imageability,liberal,no,z,1,1.65915129866,3,271
2019_Oct_22,126,001,2,recog,5,VERBALLY,LF,lure,-,-,-,conservative,no,m,1,0.729698241476,3,274
2019_Oct_22,126,001,2,recog,6,CLOSE,HF,lure,-,-,-,conservative,no,m,1,1.52963841182,3,277
2019_Oct_22,126,001,2,recog,7,HOURS,HF,target,right,aqua,imageability,conservative,no,z,1,1.49441809789,1,278
2019_Oct_22,126,001,2,recog,8,USELESSLY,LF,target,left,yellow,pleasantness,liberal,no,z,1,1.0708211621,3,281
2019_Oct_22,126,001,2,recog,9,AUGMENT,LF,target,right,aqua,imageability,liberal,no,z,1,0.8943489565,3,284
2019_Oct_22,126,001,2,recog,10,ADHERE,LF,target,right,aqua,imageability,conservative,no,z,1,2.2944990439,1,285
2019_Oct_22,126,001,2,recog,11,ATTACK,HF,lure,-,-,-,conservative,no,m,1,1.08257299805,3,288
2019_Oct_22,126,001,2,recog,12,LIQUEUR,LF,lure,-,-,-,conservative,no,m,1,0.612058536285,3,291
2019_Oct_22,126,001,2,recog,13,ASPIRED,LF,target,right,aqua,imageability,liberal,no,m,0,1.18846819936,-3,288
2019_Oct_22,126,001,2,recog,14,NIMBLE,LF,target,left,yellow,pleasantness,conservative,no,z,1,1.44756252786,1,289
2019_Oct_22,126,001,2,recog,15,KNEAD,LF,target,right,aqua,imageability,liberal,no,z,1,0.706170740363,3,292
2019_Oct_22,126,001,2,recog,16,FULCRUM,LF,lure,-,-,-,liberal,no,m,1,0.894371319303,1,293
2019_Oct_22,126,001,2,recog,17,NATIONAL,HF,lure,-,-,-,liberal,no,m,1,0.670900201778,1,294
2019_Oct_22,126,001,2,recog,18,CLASS,HF,target,left,yellow,pleasantness,liberal,no,z,1,0.729663414161,3,297
2019_Oct_22,126,001,2,recog,19,GENERAL,HF,lure,-,-,-,liberal,no,m,1,0.741482705123,1,298
2019_Oct_22,126,001,2,recog,20,UNLESS,HF,target,right,aqua,imageability,conservative,no,m,0,1.18825556944,-1,297
2019_Oct_22,126,001,2,recog,21,SPICED,LF,lure,-,-,-,conservative,no,m,1,1.16491686903,3,300
2019_Oct_22,126,001,2,recog,22,BAOBAB,LF,lure,-,-,-,liberal,no,m,1,0.588524802914,1,301
2019_Oct_22,126,001,2,recog,23,CABLED,LF,lure,-,-,-,conservative,no,m,1,0.741412317286,3,304
2019_Oct_22,126,001,2,recog,24,FIVER,LF,target,right,aqua,imageability,conservative,no,m,0,0.859136341241,-1,303
2019_Oct_22,126,001,2,recog,25,BLOOD,HF,target,left,yellow,pleasantness,liberal,no,z,1,0.800270113324,3,306
2019_Oct_22,126,001,2,recog,26,DOUBT,HF,lure,-,-,-,liberal,yes,z,0,0.894434375074,-1,305
2019_Oct_22,126,001,2,recog,27,FUTURE,HF,target,left,yellow,pleasantness,conservative,no,m,0,1.50619156343,-1,304
2019_Oct_22,126,001,2,recog,28,FRIEND,HF,target,left,yellow,pleasantness,liberal,no,z,1,0.941515039534,3,307
2019_Oct_22,126,001,2,recog,29,DEFEATING,LF,lure,-,-,-,liberal,no,m,1,1.03565547207,1,308
2019_Oct_22,126,001,2,recog,30,PSALMS,LF,lure,-,-,-,conservative,no,m,1,1.08264155287,3,311
2019_Oct_22,126,001,2,recog,31,WHOLE,HF,lure,-,-,-,liberal,no,m,1,1.09444984573,1,312
2019_Oct_22,126,001,2,recog,32,PILGRIM,LF,target,right,aqua,imageability,conservative,no,z,1,0.80028184463,1,313
2019_Oct_22,126,001,2,recog,33,MIDDLE,HF,lure,-,-,-,liberal,no,m,1,1.02376066082,1,314
2019_Oct_22,126,001,2,recog,34,TREES,HF,target,left,yellow,pleasantness,conservative,no,z,1,0.8709666303,1,315
2019_Oct_22,126,001,2,recog,35,LIGHT,HF,target,right,aqua,imageability,liberal,no,z,1,0.753278533469,3,318
2019_Oct_22,126,001,2,recog,36,COUNCIL,HF,target,right,aqua,imageability,liberal,no,z,1,0.682737089697,3,321
2019_Oct_22,126,001,2,recog,37,WISPY,LF,target,right,aqua,imageability,conservative,no,z,1,0.611981916191,1,322
2019_Oct_22,126,001,2,recog,38,ENERGY,HF,lure,-,-,-,conservative,no,m,1,1.31786340654,3,325
2019_Oct_22,126,001,2,recog,39,OOZED,LF,target,left,yellow,pleasantness,conservative,no,m,0,1.08269177753,-1,324
2019_Oct_22,126,001,2,recog,40,QUICKLY,HF,lure,-,-,-,conservative,no,m,1,1.89417738615,3,327
2019_Oct_22,126,001,2,recog,41,FRUGAL,LF,lure,-,-,-,conservative,no,m,1,0.788570701649,3,330
2019_Oct_22,126,001,2,recog,42,WINDOW,HF,lure,-,-,-,conservative,no,m,1,1.70618650431,3,333
2019_Oct_22,126,001,2,recog,43,SYSTEM,HF,lure,-,-,-,conservative,no,z,0,1.27094111471,-3,330
2019_Oct_22,126,001,2,recog,44,POTASH,LF,target,left,yellow,pleasantness,liberal,no,z,1,0.906224337768,3,333
2019_Oct_22,126,001,2,recog,45,UNNAMED,LF,target,right,aqua,imageability,liberal,no,z,1,0.682681732596,3,336
2019_Oct_22,126,001,2,recog,46,BECAME,HF,lure,-,-,-,liberal,no,m,1,0.882622782783,1,337
2019_Oct_22,126,001,2,recog,47,THING,HF,lure,-,-,-,conservative,no,m,1,1.81219571925,3,340
2019_Oct_22,126,001,2,recog,48,UNBEATEN,LF,target,left,yellow,pleasantness,conservative,no,z,1,0.953221783276,1,341
2019_Oct_22,126,001,2,recog,49,IDEAS,HF,target,left,yellow,pleasantness,conservative,no,z,1,0.800264614275,1,342
2019_Oct_22,126,001,2,recog,50,EVENING,HF,target,left,yellow,pleasantness,conservative,no,z,1,0.823663071021,1,343
2019_Oct_22,126,001,2,recog,51,PULSAR,LF,target,left,yellow,pleasantness,conservative,no,z,1,0.953233881186,1,344
2019_Oct_22,126,001,2,recog,52,WREATH,LF,target,left,yellow,pleasantness,conservative,no,z,1,0.765043200535,1,345
2019_Oct_22,126,001,2,recog,53,WHETHER,HF,target,right,aqua,imageability,liberal,no,m,0,0.976576980831,-3,342
2019_Oct_22,126,001,2,recog,54,SEABED,LF,target,right,aqua,imageability,liberal,no,m,0,0.894416778114,-3,339
2019_Oct_22,126,001,2,recog,55,MODERN,HF,lure,-,-,-,liberal,no,m,1,1.400260435,1,340
2019_Oct_22,126,001,2,recog,56,VOYAGES,LF,lure,-,-,-,liberal,no,m,1,0.953098604561,1,341
2019_Oct_22,126,001,2,recog,57,TENABLE,LF,lure,-,-,-,liberal,no,m,1,0.588484843152,1,342
2019_Oct_22,126,001,2,recog,58,SUCCESS,HF,target,left,yellow,pleasantness,liberal,no,z,1,0.717993697356,3,345
2019_Oct_22,126,001,2,recog,59,NAPPY,LF,target,left,yellow,pleasantness,liberal,no,z,1,0.753211445062,3,348
2019_Oct_22,126,001,2,recog,60,SMEARING,LF,lure,-,-,-,liberal,no,m,1,1.21218046855,1,349
2019_Oct_22,126,001,2,recog,61,RODENTS,LF,lure,-,-,-,conservative,yes,m,1,0.764786578213,3,352
2019_Oct_22,126,001,2,recog,62,MINISTER,HF,target,left,yellow,pleasantness,conservative,no,z,1,1.12972551676,1,353
2019_Oct_22,126,001,2,recog,63,LOOKED,HF,lure,-,-,-,liberal,yes,z,0,0.835299060322,-1,352
2019_Oct_22,126,001,2,recog,64,LATER,HF,lure,-,-,-,liberal,no,m,1,1.47090196147,1,353
2019_Oct_22,126,001,2,recog,65,DUELLING,LF,lure,-,-,-,conservative,no,m,1,1.00039299876,3,356
2019_Oct_22,126,001,2,recog,66,QUESTION,HF,lure,-,-,-,conservative,no,z,0,1.14150998041,-3,353
2019_Oct_22,126,001,2,recog,67,EXACTLY,HF,target,right,aqua,imageability,conservative,no,m,0,1.49421280003,-1,352
2019_Oct_22,126,001,2,recog,68,SWOOPING,LF,lure,-,-,-,liberal,no,m,1,0.776813733254,1,353
2019_Oct_22,126,001,2,recog,69,PETERED,LF,target,left,yellow,pleasantness,liberal,no,z,1,1.31801884634,3,356
2019_Oct_22,126,001,2,recog,70,DUSTER,LF,target,left,yellow,pleasantness,liberal,no,z,1,1.08263971986,3,359
2019_Oct_22,126,001,2,recog,71,WALKED,HF,target,right,aqua,imageability,liberal,no,z,1,0.729705940147,3,362
2019_Oct_22,126,001,2,recog,72,CASES,HF,lure,-,-,-,liberal,no,z,0,0.623785809812,-1,361
2019_Oct_22,126,001,2,recog,73,DAGGERS,LF,lure,-,-,-,conservative,no,m,1,1.84728698881,3,364
2019_Oct_22,126,001,2,recog,74,ALMOST,HF,lure,-,-,-,conservative,no,m,1,1.07068515227,3,367
2019_Oct_22,126,001,2,recog,75,PRACTICE,HF,lure,-,-,-,conservative,no,m,1,1.81203111436,3,370
2019_Oct_22,126,001,2,recog,76,UNFAILING,LF,lure,-,-,-,conservative,no,m,1,0.670871973322,3,373
2019_Oct_22,126,001,2,recog,77,CANNOT,HF,target,right,aqua,imageability,conservative,no,m,0,0.976779712465,-1,372
2019_Oct_22,126,001,2,recog,78,ENHANCES,LF,target,right,aqua,imageability,conservative,no,z,1,2.42387445449,1,373
2019_Oct_22,126,001,2,recog,79,FACILE,LF,lure,-,-,-,liberal,no,m,1,0.800387059782,1,374
2019_Oct_22,126,001,2,recog,80,AMONG,HF,lure,-,-,-,liberal,no,m,1,0.835651366111,1,375
2019_Oct_22,126,001,2,recog,81,POSITION,HF,target,right,aqua,imageability,conservative,no,m,0,2.23563684862,-1,374
2019_Oct_22,126,001,2,recog,82,LANGUAGE,HF,lure,-,-,-,liberal,no,m,1,1.01207188065,1,375
2019_Oct_22,126,001,2,recog,83,PLEASE,HF,target,left,yellow,pleasantness,conservative,no,z,1,1.04738861125,1,376
2019_Oct_22,126,001,2,recog,84,TULIPS,LF,target,right,aqua,imageability,liberal,no,z,1,0.682669268084,3,379
2019_Oct_22,126,001,2,recog,85,FORCE,HF,target,right,aqua,imageability,liberal,no,z,1,0.553207705709,3,382
2019_Oct_22,126,001,2,recog,86,JOBLESS,LF,lure,-,-,-,liberal,no,m,1,0.882565959269,1,383
2019_Oct_22,126,001,2,recog,87,TOUSLED,LF,lure,-,-,-,conservative,no,m,1,0.647344105605,3,386
2019_Oct_22,126,001,2,recog,88,HIMSELF,HF,target,left,yellow,pleasantness,liberal,yes,z,1,0.741490770395,3,389
2019_Oct_22,126,001,2,recog,89,MESSED,LF,target,left,yellow,pleasantness,liberal,no,m,0,1.45911933085,-3,386
2019_Oct_22,126,001,2,recog,90,NUMBER,HF,target,left,yellow,pleasantness,liberal,no,z,1,1.3415173858,3,389
2019_Oct_22,126,001,2,recog,91,REJOICED,LF,lure,-,-,-,conservative,no,m,1,0.953168259191,3,392
2019_Oct_22,126,001,2,recog,92,OBTAINS,LF,lure,-,-,-,liberal,no,m,1,1.02384571279,1,393
2019_Oct_22,126,001,2,recog,93,KITCHEN,HF,lure,-,-,-,conservative,no,m,1,0.929637092044,3,396
2019_Oct_22,126,001,2,recog,94,COACHED,LF,target,right,aqua,imageability,conservative,no,z,1,1.54147566634,1,397
2019_Oct_22,126,001,2,recog,95,RELAXES,LF,target,left,yellow,pleasantness,conservative,no,z,1,1.20025412942,1,398
2019_Oct_22,126,001,3,source,0,AUSPICES,LF,target,right,aqua,imageability,conservative,no,3,0,1.42385759074,-,-
2019_Oct_22,126,001,3,source,1,SLOWLY,HF,target,left,yellow,pleasantness,liberal,no,3,1,0.823786982943,-,-
2019_Oct_22,126,001,3,source,2,RAIDER,LF,target,right,aqua,imageability,liberal,no,7,1,0.659154964688,-,-
2019_Oct_22,126,001,3,source,3,ELLIPSE,LF,target,left,yellow,pleasantness,liberal,no,3,1,1.42378976913,-,-
2019_Oct_22,126,001,3,source,4,TWENTY,HF,target,left,yellow,pleasantness,liberal,no,7,0,1.05908399029,-,-
2019_Oct_22,126,001,3,source,5,PICTURE,HF,target,left,yellow,pleasantness,conservative,no,7,0,0.035335427372,-,-
2019_Oct_22,126,001,3,source,6,TAGGED,LF,target,left,yellow,pleasantness,conservative,no,3,1,1.54143753959,-,-
2019_Oct_22,126,001,3,source,7,UMBILICAL,LF,target,right,aqua,imageability,conservative,no,7,1,0.870853349874,-,-
2019_Oct_22,126,001,3,source,8,ROUND,HF,target,left,yellow,pleasantness,conservative,no,3,1,1.21209248375,-,-
2019_Oct_22,126,001,3,source,9,JAMMING,LF,target,left,yellow,pleasantness,liberal,no,7,0,1.63559923512,-,-
2019_Oct_22,126,001,3,source,10,DRINK,HF,target,left,yellow,pleasantness,conservative,no,3,1,1.09442894934,-,-
2019_Oct_22,126,001,3,source,11,AMALGAM,LF,target,right,aqua,imageability,liberal,no,3,0,1.09425224654,-,-
2019_Oct_22,126,001,3,source,12,CAPITAL,HF,target,right,aqua,imageability,conservative,no,7,1,0.988488655827,-,-
2019_Oct_22,126,001,3,source,13,NETTLE,LF,target,right,aqua,imageability,conservative,no,3,0,1.49434990967,-,-
2019_Oct_22,126,001,3,source,14,BUILDING,HF,target,right,aqua,imageability,conservative,yes,7,1,1.23543668321,-,-
2019_Oct_22,126,001,3,source,15,ANYONE,HF,target,right,aqua,imageability,conservative,no,7,1,1.08280469135,-,-
2019_Oct_22,126,001,3,source,16,YANKED,LF,target,left,yellow,pleasantness,conservative,yes,7,0,0.870949766547,-,-
2019_Oct_22,126,001,3,source,17,TROUBLE,HF,target,right,aqua,imageability,liberal,no,8,1,1.9886954201,-,-
2019_Oct_22,126,001,3,source,18,HOWEVER,HF,target,right,aqua,imageability,liberal,no,3,0,1.98857224138,-,-
2019_Oct_22,126,001,3,source,19,MADDENED,LF,target,left,yellow,pleasantness,liberal,no,3,1,0.97680794092,-,-
2019_Oct_22,126,001,3,source,20,SUMMER,HF,target,left,yellow,pleasantness,conservative,no,2,1,1.32964896999,-,-
2019_Oct_22,126,001,3,source,21,TOTAL,HF,target,left,yellow,pleasantness,conservative,no,7,0,1.95328080641,-,-
2019_Oct_22,126,001,3,source,22,NEPHEWS,LF,target,left,yellow,pleasantness,liberal,no,2,1,1.31801334729,-,-
2019_Oct_22,126,001,3,source,23,HAVING,HF,target,left,yellow,pleasantness,liberal,no,7,0,1.45915232514,-,-
2019_Oct_22,126,001,3,source,24,VORACIOUS,LF,target,right,aqua,imageability,liberal,no,7,1,1.48249835762,-,-
2019_Oct_22,126,001,3,source,25,ACCORDING,HF,target,right,aqua,imageability,liberal,no,2,0,1.63568978614,-,-
2019_Oct_22,126,001,3,source,26,UPSTART,LF,target,left,yellow,pleasantness,conservative,yes,3,1,1.11803490357,-,-
2019_Oct_22,126,001,3,source,27,EATERS,LF,target,right,aqua,imageability,liberal,no,8,1,1.54146100221,-,-
2019_Oct_22,126,001,3,source,28,WASHBASIN,LF,target,left,yellow,pleasantness,conservative,no,8,0,2.44741955257,-,-
2019_Oct_22,126,001,3,source,29,SOVIET,HF,target,right,aqua,imageability,liberal,no,8,1,1.14151621267,-,-
2019_Oct_22,126,001,3,source,30,NEITHER,HF,target,left,yellow,pleasantness,liberal,no,8,0,1.37678132552,-,-
2019_Oct_22,126,001,3,source,31,BEHIND,HF,target,left,yellow,pleasantness,conservative,no,7,0,1.18834245442,-,-
2019_Oct_22,126,001,3,source,32,LOBBIES,LF,target,left,yellow,pleasantness,liberal,no,3,1,1.28236410748,-,-
2019_Oct_22,126,001,3,source,33,OCCUPANCY,LF,target,right,aqua,imageability,liberal,no,7,1,0.835580245067,-,-
2019_Oct_22,126,001,3,source,34,IDLING,LF,target,left,yellow,pleasantness,conservative,no,3,1,1.1296631942,-,-
2019_Oct_22,126,001,3,source,35,LETTER,HF,target,left,yellow,pleasantness,liberal,no,7,0,1.82388229981,-,-
2019_Oct_22,126,001,3,source,36,BOTANIST,LF,target,right,aqua,imageability,liberal,no,8,1,1.25915958389,-,-
2019_Oct_22,126,001,3,source,37,DEXTERITY,LF,target,left,yellow,pleasantness,conservative,no,3,1,1.90621883872,-,-
2019_Oct_22,126,001,3,source,38,ABSENCES,LF,target,right,aqua,imageability,conservative,no,7,1,1.65917219505,-,-
2019_Oct_22,126,001,3,source,39,WESTERN,HF,target,right,aqua,imageability,conservative,yes,3,0,1.23562218449,-,-
2019_Oct_22,126,001,3,source,40,UNEARTHED,LF,target,right,aqua,imageability,conservative,no,3,0,1.28271201403,-,-
2019_Oct_22,126,001,3,source,41,TRYING,HF,target,right,aqua,imageability,conservative,no,8,1,1.94134090296,-,-
2019_Oct_22,126,001,3,source,42,USING,HF,target,left,yellow,pleasantness,liberal,no,3,1,1.08238859658,-,-
2019_Oct_22,126,001,3,source,43,CAVERN,LF,target,left,yellow,pleasantness,liberal,no,3,1,0.964920461744,-,-
2019_Oct_22,126,001,3,source,44,CORNER,HF,target,right,aqua,imageability,liberal,no,3,0,0.976775313226,-,-
2019_Oct_22,126,001,3,source,45,MONEY,HF,target,right,aqua,imageability,liberal,no,3,0,1.48263216783,-,-
2019_Oct_22,126,001,3,source,46,KRONOR,LF,target,right,aqua,imageability,conservative,no,3,0,1.21210421506,-,-
2019_Oct_22,126,001,3,source,47,STOOD,HF,target,right,aqua,imageability,conservative,no,3,0,1.09443591481,-,-
2019_Oct_22,126,001,3,recog,0,AVUNCULAR,LF,lure,-,-,-,liberal,no,m,1,1.03561331269,1,399
2019_Oct_22,126,001,3,recog,1,PIECE,HF,lure,-,-,-,conservative,no,m,1,0.870664182562,3,402
2019_Oct_22,126,001,3,recog,2,THYROID,LF,lure,-,-,-,liberal,no,m,1,0.858896216067,1,403
2019_Oct_22,126,001,3,recog,3,TRYING,HF,target,right,aqua,imageability,conservative,no,z,1,0.847416766383,1,404
2019_Oct_22,126,001,3,recog,4,AMPLIFY,LF,lure,-,-,-,liberal,no,m,1,1.106170887,1,405
2019_Oct_22,126,001,3,recog,5,FRONT,HF,lure,-,-,-,conservative,no,m,1,1.62391998663,3,408
2019_Oct_22,126,001,3,recog,6,SEQUEL,LF,lure,-,-,-,liberal,no,m,1,1.02366607717,1,409
2019_Oct_22,126,001,3,recog,7,HOARD,LF,lure,-,-,-,liberal,no,m,1,0.741490037189,1,410
2019_Oct_22,126,001,3,recog,8,GASEOUS,LF,lure,-,-,-,liberal,no,m,1,0.953208585556,1,411
2019_Oct_22,126,001,3,recog,9,ROUND,HF,target,left,yellow,pleasantness,conservative,no,z,1,0.847355910232,1,412
2019_Oct_22,126,001,3,recog,10,JEOPARDY,LF,lure,-,-,-,liberal,no,m,1,0.729675512071,1,413
2019_Oct_22,126,001,3,recog,11,CAPITAL,HF,target,right,aqua,imageability,conservative,no,z,1,1.0473057589,1,414
2019_Oct_22,126,001,3,recog,12,KRONOR,LF,target,right,aqua,imageability,conservative,no,z,1,1.05907299219,1,415
2019_Oct_22,126,001,3,recog,13,BOTANIST,LF,target,right,aqua,imageability,liberal,no,z,1,0.706222798033,3,418
2019_Oct_22,126,001,3,recog,14,SCHOOL,HF,lure,-,-,-,conservative,no,m,1,0.659154964689,3,421
2019_Oct_22,126,001,3,recog,15,EMACIATED,LF,lure,-,-,-,conservative,no,m,1,0.847393670373,3,424
2019_Oct_22,126,001,3,recog,16,DOTTY,LF,lure,-,-,-,conservative,no,m,1,0.729720970883,3,427
2019_Oct_22,126,001,3,recog,17,TWENTY,HF,target,left,yellow,pleasantness,liberal,no,z,1,0.729770462332,3,430
2019_Oct_22,126,001,3,recog,18,RANGE,HF,lure,-,-,-,conservative,no,m,1,0.635639928087,3,433
2019_Oct_22,126,001,3,recog,19,BUILDING,HF,target,right,aqua,imageability,conservative,no,z,1,0.906151383708,1,434
2019_Oct_22,126,001,3,recog,20,UNOPENED,LF,lure,-,-,-,conservative,no,m,1,0.635566607423,3,437
2019_Oct_22,126,001,3,recog,21,TROUBLE,HF,target,right,aqua,imageability,liberal,no,z,1,1.38840521691,3,440
2019_Oct_22,126,001,3,recog,22,MORNING,HF,lure,-,-,-,conservative,no,m,1,1.10625263954,3,443
2019_Oct_22,126,001,3,recog,23,CAVERN,LF,target,left,yellow,pleasantness,liberal,no,z,1,0.78847025234,3,446
2019_Oct_22,126,001,3,recog,24,DRINK,HF,target,left,yellow,pleasantness,conservative,no,z,1,0.870955998803,1,447
2019_Oct_22,126,001,3,recog,25,ELLIPSE,LF,target,left,yellow,pleasantness,liberal,no,z,1,1.12969325567,3,450
2019_Oct_22,126,001,3,recog,26,TRUTH,HF,lure,-,-,-,liberal,no,m,1,0.741374190539,1,451
2019_Oct_22,126,001,3,recog,27,TAGGED,LF,target,left,yellow,pleasantness,conservative,no,z,1,0.80036139755,1,452
2019_Oct_22,126,001,3,recog,28,OCCUPANCY,LF,target,right,aqua,imageability,liberal,no,z,1,0.76479061085,3,455
2019_Oct_22,126,001,3,recog,29,EVIDENCE,HF,lure,-,-,-,liberal,no,m,1,0.976884927618,1,456
2019_Oct_22,126,001,3,recog,30,PLODDED,LF,lure,-,-,-,liberal,no,m,1,0.788538073954,1,457
2019_Oct_22,126,001,3,recog,31,AUSPICES,LF,target,right,aqua,imageability,conservative,no,z,1,1.08264118627,1,458
2019_Oct_22,126,001,3,recog,32,DONATE,LF,lure,-,-,-,conservative,no,m,1,0.929448291335,3,461
2019_Oct_22,126,001,3,recog,33,LAYERED,LF,lure,-,-,-,conservative,no,m,1,0.823761687314,3,464
2019_Oct_22,126,001,3,recog,34,POINT,HF,lure,-,-,-,liberal,yes,z,0,1.07080906419,-1,463
2019_Oct_22,126,001,3,recog,35,MYSELF,HF,lure,-,-,-,liberal,no,m,1,1.29440079421,1,464
2019_Oct_22,126,001,3,recog,36,LOBBIES,LF,target,left,yellow,pleasantness,liberal,no,z,1,0.847291388048,3,467
2019_Oct_22,126,001,3,recog,37,EATERS,LF,target,right,aqua,imageability,liberal,no,z,1,0.694333852444,3,470
2019_Oct_22,126,001,3,recog,38,DEXTERITY,LF,target,left,yellow,pleasantness,conservative,no,z,1,2.08260709216,1,471
2019_Oct_22,126,001,3,recog,39,VORACIOUS,LF,target,right,aqua,imageability,liberal,no,m,0,1.35323879367,-3,468
2019_Oct_22,126,001,3,recog,40,HAVING,HF,target,left,yellow,pleasantness,liberal,no,z,1,1.29442095739,3,471
2019_Oct_22,126,001,3,recog,41,WESTERN,HF,target,right,aqua,imageability,conservative,no,z,1,0.788453388588,1,472
2019_Oct_22,126,001,3,recog,42,ACCORDING,HF,target,right,aqua,imageability,liberal,no,z,1,0.729659014922,3,475
2019_Oct_22,126,001,3,recog,43,WASHBASIN,LF,target,left,yellow,pleasantness,conservative,no,z,1,0.894543256259,1,476
2019_Oct_22,126,001,3,recog,44,COVER,HF,lure,-,-,-,conservative,no,m,1,1.32965190282,3,479
2019_Oct_22,126,001,3,recog,45,ACROSS,HF,lure,-,-,-,conservative,no,z,0,0.882664208958,-3,476
2019_Oct_22,126,001,3,recog,46,KRAALS,LF,lure,-,-,-,conservative,no,m,1,0.82384527287,3,479
2019_Oct_22,126,001,3,recog,47,NEITHER,HF,target,left,yellow,pleasantness,liberal,no,z,1,0.764943484432,3,482
2019_Oct_22,126,001,3,recog,48,ABSENCES,LF,target,right,aqua,imageability,conservative,no,z,1,0.917717718377,1,483
2019_Oct_22,126,001,3,recog,49,NICETIES,LF,lure,-,-,-,conservative,no,m,1,0.729727203139,3,486
2019_Oct_22,126,001,3,recog,50,LABOUR,HF,lure,-,-,-,conservative,no,m,1,0.835611039745,3,489
2019_Oct_22,126,001,3,recog,51,ANYONE,HF,target,right,aqua,imageability,conservative,no,z,1,0.882751460547,1,490
2019_Oct_22,126,001,3,recog,52,PEPPERED,LF,lure,-,-,-,liberal,no,m,1,0.824039206025,1,491
2019_Oct_22,126,001,3,recog,53,EIDERDOWN,LF,lure,-,-,-,liberal,no,m,1,0.965114761503,1,492
2019_Oct_22,126,001,3,recog,54,PUBLIC,HF,lure,-,-,-,conservative,no,m,1,1.23553749912,3,495
2019_Oct_22,126,001,3,recog,55,SAYING,HF,lure,-,-,-,liberal,no,m,1,1.61205890289,1,496
2019_Oct_22,126,001,3,recog,56,TILTS,LF,lure,-,-,-,conservative,no,m,1,0.706184304686,3,499
2019_Oct_22,126,001,3,recog,57,SOUND,HF,lure,-,-,-,liberal,no,z,0,1.45912299688,-1,498
2019_Oct_22,126,001,3,recog,58,AVAILABLE,HF,lure,-,-,-,liberal,no,m,1,3.35336563842,1,499
2019_Oct_22,126,001,3,recog,59,SECOND,HF,lure,-,-,-,liberal,no,m,1,1.01201982298,1,500
2019_Oct_22,126,001,3,recog,60,RADIAL,LF,lure,-,-,-,conservative,no,m,1,0.823874234532,3,503
2019_Oct_22,126,001,3,recog,61,QUALITY,HF,lure,-,-,-,conservative,no,m,1,1.15319509455,3,506
2019_Oct_22,126,001,3,recog,62,SOVIET,HF,target,right,aqua,imageability,liberal,no,z,1,0.870842351775,3,509
2019_Oct_22,126,001,3,recog,63,NEARLY,HF,lure,-,-,-,liberal,no,m,1,0.741552359752,1,510
2019_Oct_22,126,001,3,recog,64,MONEY,HF,target,right,aqua,imageability,liberal,no,z,1,0.741263109734,3,513
2019_Oct_22,126,001,3,recog,65,UPSTART,LF,target,left,yellow,pleasantness,conservative,no,z,1,1.04726469933,1,514
2019_Oct_22,126,001,3,recog,66,PICTURE,HF,target,left,yellow,pleasantness,conservative,no,z,1,0.812137795922,1,515
2019_Oct_22,126,001,3,recog,67,CORNER,HF,target,right,aqua,imageability,liberal,no,m,0,1.12971561847,-3,512
2019_Oct_22,126,001,3,recog,68,AMALGAM,LF,target,right,aqua,imageability,liberal,no,m,0,1.564953676,-3,509
2019_Oct_22,126,001,3,recog,69,NEEDED,HF,lure,-,-,-,conservative,yes,m,1,0.941451250556,3,512
2019_Oct_22,126,001,3,recog,70,USING,HF,target,left,yellow,pleasantness,liberal,no,z,1,1.25906206741,3,515
2019_Oct_22,126,001,3,recog,71,LETTER,HF,target,left,yellow,pleasantness,liberal,no,z,1,0.647050089745,3,518
2019_Oct_22,126,001,3,recog,72,STOOD,HF,target,right,aqua,imageability,conservative,no,m,0,1.5062098936,-1,517
2019_Oct_22,126,001,3,recog,73,GULLIBLE,LF,lure,-,-,-,conservative,no,m,1,0.729649116633,3,520
2019_Oct_22,126,001,3,recog,74,SLOWLY,HF,target,left,yellow,pleasantness,liberal,no,z,1,0.92971187912,3,523
2019_Oct_22,126,001,3,recog,75,UMBILICAL,LF,target,right,aqua,imageability,conservative,no,m,0,0.964955289059,-1,522
2019_Oct_22,126,001,3,recog,76,NEPHEWS,LF,target,left,yellow,pleasantness,liberal,no,z,1,0.882597120551,3,525
2019_Oct_22,126,001,3,recog,77,RATHER,HF,lure,-,-,-,liberal,no,m,1,1.10587833756,1,526
2019_Oct_22,126,001,3,recog,78,YANKED,LF,target,left,yellow,pleasantness,conservative,yes,m,0,0.882571458319,-1,525
2019_Oct_22,126,001,3,recog,79,HOWEVER,HF,target,right,aqua,imageability,liberal,no,z,1,1.20031241935,3,528
2019_Oct_22,126,001,3,recog,80,TAILED,LF,lure,-,-,-,conservative,no,z,0,1.23563794843,-3,525
2019_Oct_22,126,001,3,recog,81,LUXURIANT,LF,lure,-,-,-,conservative,no,m,1,0.89444390676,3,528
2019_Oct_22,126,001,3,recog,82,UNEARTHED,LF,target,right,aqua,imageability,conservative,no,z,1,1.42366622381,1,529
2019_Oct_22,126,001,3,recog,83,CLEAR,HF,lure,-,-,-,liberal,no,m,1,1.2356680099,1,530
2019_Oct_22,126,001,3,recog,84,NETTLE,LF,target,right,aqua,imageability,conservative,no,m,0,1.48243676826,-1,529
2019_Oct_22,126,001,3,recog,85,TOTAL,HF,target,left,yellow,pleasantness,conservative,no,z,1,0.870882678139,1,530
2019_Oct_22,126,001,3,recog,86,JAMMING,LF,target,left,yellow,pleasantness,liberal,no,m,0,1.56488255496,-3,527
2019_Oct_22,126,001,3,recog,87,PLACE,HF,lure,-,-,-,conservative,no,m,1,1.14141759637,3,530
2019_Oct_22,126,001,3,recog,88,RAIDER,LF,target,right,aqua,imageability,liberal,yes,z,1,1.04734571866,3,533
2019_Oct_22,126,001,3,recog,89,BEHIND,HF,target,left,yellow,pleasantness,conservative,no,m,0,1.54143277375,-1,532
2019_Oct_22,126,001,3,recog,90,SUMMER,HF,target,left,yellow,pleasantness,conservative,no,z,1,1.18849129537,1,533
2019_Oct_22,126,001,3,recog,91,MOPED,LF,lure,-,-,-,liberal,no,m,1,1.45907643826,1,534
2019_Oct_22,126,001,3,recog,92,MEETING,HF,lure,-,-,-,liberal,no,m,1,1.80028771028,1,535
2019_Oct_22,126,001,3,recog,93,IDLING,LF,target,left,yellow,pleasantness,conservative,no,m,0,1.80032876985,-1,534
2019_Oct_22,126,001,3,recog,94,FESTERING,LF,lure,-,-,-,liberal,no,m,1,1.05896631062,1,535
2019_Oct_22,126,001,3,recog,95,MADDENED,LF,target,left,yellow,pleasantness,liberal,no,m,0,1.04730062645,-3,532
2019_Oct_22,126,001,4,source,0,VOICE,HF,target,left,yellow,pleasantness,conservative,no,3,1,1.52964134464,-,-
2019_Oct_22,126,001,4,source,1,DIOCESE,LF,target,left,yellow,pleasantness,conservative,no,3,1,1.40036381713,-,-
2019_Oct_22,126,001,4,source,2,OPPOSES,LF,target,left,yellow,pleasantness,liberal,no,3,1,1.11798431231,-,-
2019_Oct_22,126,001,4,source,3,PACIFISM,LF,target,left,yellow,pleasantness,conservative,yes,7,0,1.16502245079,-,-
2019_Oct_22,126,001,4,source,4,SENSE,HF,target,right,aqua,imageability,liberal,no,3,0,0.85906008775,-,-
2019_Oct_22,126,001,4,source,5,PHRASED,LF,target,right,aqua,imageability,conservative,no,3,0,1.05921266805,-,-
2019_Oct_22,126,001,4,source,6,BUMBLING,LF,target,right,aqua,imageability,conservative,no,3,0,0.823728326412,-,-
2019_Oct_22,126,001,4,source,7,HAUNCHES,LF,target,right,aqua,imageability,conservative,no,3,0,1.17667970308,-,-
2019_Oct_22,126,001,4,source,8,INDEED,HF,target,left,yellow,pleasantness,liberal,no,3,1,1.3883267638,-,-
2019_Oct_22,126,001,4,source,9,CINDER,LF,target,right,aqua,imageability,conservative,no,7,1,0.952942064945,-,-
2019_Oct_22,126,001,4,source,10,GAPED,LF,target,left,yellow,pleasantness,conservative,no,3,1,0.894319628235,-,-
2019_Oct_22,126,001,4,source,11,OTHERS,HF,target,right,aqua,imageability,liberal,no,7,1,0.894439874123,-,-
2019_Oct_22,126,001,4,source,12,OBSCURELY,LF,target,left,yellow,pleasantness,liberal,no,3,1,1.85922615905,-,-
2019_Oct_22,126,001,4,source,13,AVOCADO,LF,target,right,aqua,imageability,liberal,no,9,1,1.29435313578,-,-
2019_Oct_22,126,001,4,source,14,MOUTH,HF,target,right,aqua,imageability,conservative,yes,3,0,2.58850060709,-,-
2019_Oct_22,126,001,4,source,15,SINCE,HF,target,right,aqua,imageability,conservative,no,3,0,1.38830220138,-,-
2019_Oct_22,126,001,4,source,16,DUCHY,LF,target,left,yellow,pleasantness,conservative,no,3,1,0.976757716267,-,-
2019_Oct_22,126,001,4,source,17,BELIEVE,HF,target,left,yellow,pleasantness,liberal,no,3,1,1.23559688886,-,-
2019_Oct_22,126,001,4,source,18,EFFECT,HF,target,left,yellow,pleasantness,liberal,no,3,1,1.34155844537,-,-
2019_Oct_22,126,001,4,source,19,ENOUGH,HF,target,right,aqua,imageability,liberal,no,8,1,1.72974406689,-,-
2019_Oct_22,126,001,4,source,20,HOLED,LF,target,right,aqua,imageability,liberal,no,3,0,1.74141781633,-,-
2019_Oct_22,126,001,4,source,21,LEFTISTS,LF,target,left,yellow,pleasantness,liberal,no,1,1,1.49426559091,-,-
2019_Oct_22,126,001,4,source,22,ESPECIAL,LF,target,left,yellow,pleasantness,conservative,no,2,1,2.54146540144,-,-
2019_Oct_22,126,001,4,source,23,CLUBBED,LF,target,right,aqua,imageability,liberal,no,3,0,1.80012897105,-,-
2019_Oct_22,126,001,4,source,24,SOMEONE,HF,target,right,aqua,imageability,conservative,no,9,1,2.0120117577,-,-
2019_Oct_22,126,001,4,source,25,VILLAGE,HF,target,right,aqua,imageability,liberal,no,9,1,1.28266508881,-,-
2019_Oct_22,126,001,4,source,26,JOLLITY,LF,target,right,aqua,imageability,conservative,no,9,1,2.0355707867,-,-
2019_Oct_22,126,001,4,source,27,SUDDENLY,HF,target,right,aqua,imageability,conservative,yes,3,0,1.40005587035,-,-
2019_Oct_22,126,001,4,source,28,CALLED,HF,target,right,aqua,imageability,conservative,no,3,0,0.905939120386,-,-
2019_Oct_22,126,001,4,source,29,SAFARI,LF,target,left,yellow,pleasantness,liberal,yes,3,1,1.1766822693,-,-
2019_Oct_22,126,001,4,source,30,DEVELOPED,HF,target,right,aqua,imageability,liberal,no,3,0,1.62383750088,-,-
2019_Oct_22,126,001,4,source,31,VALUE,HF,target,left,yellow,pleasantness,conservative,no,3,1,0.812058609606,-,-
2019_Oct_22,126,001,4,source,32,GIRLS,HF,target,left,yellow,pleasantness,liberal,no,2,1,1.3179920843,-,-
2019_Oct_22,126,001,4,source,33,SMALL,HF,target,left,yellow,pleasantness,liberal,no,3,1,1.92945159076,-,-
2019_Oct_22,126,001,4,source,34,ACACIA,LF,target,left,yellow,pleasantness,liberal,no,7,0,1.35346718754,-,-
2019_Oct_22,126,001,4,source,35,GIMMICKS,LF,target,left,yellow,pleasantness,liberal,no,7,0,1.96476428873,-,-
2019_Oct_22,126,001,4,source,36,KINDEST,LF,target,left,yellow,pleasantness,conservative,no,3,1,1.25904703667,-,-
2019_Oct_22,126,001,4,source,37,TIMES,HF,target,left,yellow,pleasantness,conservative,no,1,1,1.49443202881,-,-
2019_Oct_22,126,001,4,source,38,UTILIZE,LF,target,right,aqua,imageability,conservative,no,3,0,2.91776501021,-,-
2019_Oct_22,126,001,4,source,39,THWART,LF,target,right,aqua,imageability,liberal,no,3,0,0.988495254687,-,-
2019_Oct_22,126,001,4,source,40,OPENED,HF,target,left,yellow,pleasantness,conservative,no,3,1,0.859148072546,-,-
2019_Oct_22,126,001,4,source,41,BEAUTIFUL,HF,target,left,yellow,pleasantness,conservative,no,3,1,1.02358835726,-,-
2019_Oct_22,126,001,4,source,42,NIGHT,HF,target,left,yellow,pleasantness,conservative,no,1,1,1.88245267884,-,-
2019_Oct_22,126,001,4,source,43,GAUCHE,LF,target,right,aqua,imageability,liberal,no,3,0,1.36497119964,-,-
2019_Oct_22,126,001,4,source,44,FAUCET,LF,target,right,aqua,imageability,liberal,no,9,1,1.64719893069,-,-
2019_Oct_22,126,001,4,source,45,LIVED,HF,target,left,yellow,pleasantness,liberal,no,3,1,2.23569147251,-,-
2019_Oct_22,126,001,4,source,46,UNTIL,HF,target,right,aqua,imageability,liberal,no,3,0,1.0237247337,-,-
2019_Oct_22,126,001,4,source,47,PERHAPS,HF,target,right,aqua,imageability,conservative,no,3,0,0.800300541399,-,-
2019_Oct_22,126,001,4,recog,0,LONGER,HF,lure,-,-,-,conservative,no,m,1,1.6944178046,3,535
2019_Oct_22,126,001,4,recog,1,CINDER,LF,target,right,aqua,imageability,conservative,no,z,1,1.3298161411,1,536
2019_Oct_22,126,001,4,recog,2,DUCHY,LF,target,left,yellow,pleasantness,conservative,no,z,1,0.776791003847,1,537
2019_Oct_22,126,001,4,recog,3,CHURCH,HF,lure,-,-,-,conservative,no,m,1,0.682732323854,3,540
2019_Oct_22,126,001,4,recog,4,SEEMED,HF,lure,-,-,-,liberal,no,m,1,0.729771562141,1,541
2019_Oct_22,126,001,4,recog,5,OBSCURELY,LF,target,left,yellow,pleasantness,liberal,no,z,1,0.647150539054,3,544
2019_Oct_22,126,001,4,recog,6,VALUE,HF,target,left,yellow,pleasantness,conservative,no,z,1,1.88240685343,1,545
2019_Oct_22,126,001,4,recog,7,SOMEONE,HF,target,right,aqua,imageability,conservative,no,z,1,0.705952611389,1,546
2019_Oct_22,126,001,4,recog,8,WIZENED,LF,lure,-,-,-,liberal,no,m,1,0.800306407053,1,547
2019_Oct_22,126,001,4,recog,9,PHRASED,LF,target,right,aqua,imageability,conservative,no,z,1,0.764931386523,1,548
2019_Oct_22,126,001,4,recog,10,DICHOTOMY,LF,lure,-,-,-,liberal,no,z,0,0.717892881443,-1,547
2019_Oct_22,126,001,4,recog,11,PAYOFF,LF,lure,-,-,-,liberal,no,m,1,0.788526342648,1,548
2019_Oct_22,126,001,4,recog,12,GIRLS,HF,target,left,yellow,pleasantness,liberal,no,z,1,0.89442850942,3,551
2019_Oct_22,126,001,4,recog,13,ORDER,HF,lure,-,-,-,liberal,no,m,1,0.776671491167,1,552
2019_Oct_22,126,001,4,recog,14,HAPPEN,HF,lure,-,-,-,conservative,no,m,1,0.835369448159,3,555
2019_Oct_22,126,001,4,recog,15,THWART,LF,target,right,aqua,imageability,liberal,no,z,1,0.788592331245,3,558
2019_Oct_22,126,001,4,recog,16,AREAS,HF,lure,-,-,-,liberal,no,m,1,0.741472073626,1,559
2019_Oct_22,126,001,4,recog,17,TETHER,LF,lure,-,-,-,liberal,no,m,1,0.929658355037,1,560
2019_Oct_22,126,001,4,recog,18,RAVAGES,LF,lure,-,-,-,conservative,no,m,1,0.670877105769,3,563
2019_Oct_22,126,001,4,recog,19,SMALL,HF,target,left,yellow,pleasantness,liberal,yes,z,1,0.753327658314,3,566
2019_Oct_22,126,001,4,recog,20,BUMBLING,LF,target,right,aqua,imageability,conservative,no,z,1,0.941568197016,1,567
2019_Oct_22,126,001,4,recog,21,ANVIL,LF,lure,-,-,-,liberal,no,m,1,0.706092653856,1,568
2019_Oct_22,126,001,4,recog,22,UTILIZE,LF,target,right,aqua,imageability,conservative,no,z,1,1.35299426926,1,569
2019_Oct_22,126,001,4,recog,23,CUPID,LF,lure,-,-,-,liberal,no,m,1,0.647402395533,1,570
2019_Oct_22,126,001,4,recog,24,HYPNOSIS,LF,lure,-,-,-,liberal,no,m,1,0.906195009502,1,571
2019_Oct_22,126,001,4,recog,25,ALABASTER,LF,lure,-,-,-,conservative,no,m,1,1.1532332213,3,574
2019_Oct_22,126,001,4,recog,26,BROUGHT,HF,lure,-,-,-,liberal,no,m,1,1.58853030196,1,575
2019_Oct_22,126,001,4,recog,27,AVOCADO,LF,target,right,aqua,imageability,liberal,no,z,1,0.729638485137,3,578
2019_Oct_22,126,001,4,recog,28,PENALIZED,LF,lure,-,-,-,conservative,no,m,1,0.694136619859,3,581
2019_Oct_22,126,001,4,recog,29,GAUCHE,LF,target,right,aqua,imageability,liberal,no,z,1,0.764979044955,3,584
2019_Oct_22,126,001,4,recog,30,BEAUTIFUL,HF,target,left,yellow,pleasantness,conservative,no,z,1,0.894381950799,1,585
2019_Oct_22,126,001,4,recog,31,SUDDENLY,HF,target,right,aqua,imageability,conservative,no,z,1,0.647356570118,1,586
2019_Oct_22,126,001,4,recog,32,DEVELOPED,HF,target,right,aqua,imageability,liberal,no,z,1,0.941498175782,3,589
2019_Oct_22,126,001,4,recog,33,WICKEDLY,LF,lure,-,-,-,conservative,no,m,1,1.12971781809,3,592
2019_Oct_22,126,001,4,recog,34,VILLAGE,HF,target,right,aqua,imageability,liberal,no,z,1,0.659212154806,3,595
2019_Oct_22,126,001,4,recog,35,LIVED,HF,target,left,yellow,pleasantness,liberal,yes,z,1,0.682755786466,3,598
2019_Oct_22,126,001,4,recog,36,BLACK,HF,lure,-,-,-,liberal,no,m,1,1.41211895251,1,599
2019_Oct_22,126,001,4,recog,37,COMES,HF,lure,-,-,-,liberal,no,m,1,0.776865790925,1,600
2019_Oct_22,126,001,4,recog,38,KNOWLEDGE,HF,lure,-,-,-,liberal,no,m,1,1.08269874299,1,601
2019_Oct_22,126,001,4,recog,39,SPOKE,HF,lure,-,-,-,conservative,no,m,1,0.882629381644,3,604
2019_Oct_22,126,001,4,recog,40,MILES,HF,lure,-,-,-,conservative,no,m,1,0.764973179302,3,607
2019_Oct_22,126,001,4,recog,41,SENSE,HF,target,right,aqua,imageability,liberal,no,z,1,0.729681744328,3,610
2019_Oct_22,126,001,4,recog,42,OPENED,HF,target,left,yellow,pleasantness,conservative,no,z,1,0.965052805542,1,611
2019_Oct_22,126,001,4,recog,43,TICKLE,LF,lure,-,-,-,conservative,no,m,1,0.682669634687,3,614
2019_Oct_22,126,001,4,recog,44,NOBLEMAN,LF,lure,-,-,-,conservative,no,m,1,0.694473528308,3,617
2019_Oct_22,126,001,4,recog,45,DIOCESE,LF,target,left,yellow,pleasantness,conservative,no,z,1,0.83566346402,1,618
2019_Oct_22,126,001,4,recog,46,GAPED,LF,target,left,yellow,pleasantness,conservative,no,z,1,0.682657170174,1,619
2019_Oct_22,126,001,4,recog,47,DELEGATED,LF,lure,-,-,-,liberal,no,m,1,1.14147368668,1,620
2019_Oct_22,126,001,4,recog,48,ENOUGH,HF,target,right,aqua,imageability,liberal,no,z,1,0.706097053096,3,623
2019_Oct_22,126,001,4,recog,49,POUNDS,HF,lure,-,-,-,conservative,no,m,1,0.68266450224,3,626
2019_Oct_22,126,001,4,recog,50,JOLLITY,LF,target,right,aqua,imageability,conservative,no,z,1,0.67091816534,1,627
2019_Oct_22,126,001,4,recog,51,OTHERS,HF,target,right,aqua,imageability,liberal,no,z,1,1.11801840642,3,630
2019_Oct_22,126,001,4,recog,52,PAUNCH,LF,lure,-,-,-,conservative,no,m,1,0.729723537106,3,633
2019_Oct_22,126,001,4,recog,53,SAFARI,LF,target,left,yellow,pleasantness,liberal,no,z,1,0.953166426175,3,636
2019_Oct_22,126,001,4,recog,54,SURER,LF,lure,-,-,-,liberal,no,m,1,0.706202268248,1,637
2019_Oct_22,126,001,4,recog,55,JASMINE,LF,lure,-,-,-,conservative,no,m,1,0.706239661787,3,640
2019_Oct_22,126,001,4,recog,56,TURNED,HF,lure,-,-,-,conservative,no,m,1,0.670937961921,3,643
2019_Oct_22,126,001,4,recog,57,CALLED,HF,target,right,aqua,imageability,conservative,no,z,1,0.8003005414,1,644
2019_Oct_22,126,001,4,recog,58,MEMBERS,HF,lure,-,-,-,liberal,no,m,1,0.658992926023,1,645
2019_Oct_22,126,001,4,recog,59,HAUNCHES,LF,target,right,aqua,imageability,conservative,no,m,0,1.65892143838,-1,644
2019_Oct_22,126,001,4,recog,60,FAUCET,LF,target,right,aqua,imageability,liberal,no,z,1,0.682444173647,3,647
2019_Oct_22,126,001,4,recog,61,INTEREST,HF,lure,-,-,-,liberal,no,m,1,1.72951200699,1,648
2019_Oct_22,126,001,4,recog,62,KINDEST,LF,target,left,yellow,pleasantness,conservative,no,z,1,1.17684687419,1,649
2019_Oct_22,126,001,4,recog,63,POLICE,HF,lure,-,-,-,liberal,no,m,1,0.741552726356,1,650
2019_Oct_22,126,001,4,recog,64,PERHAPS,HF,target,right,aqua,imageability,conservative,no,m,0,1.36499576207,-1,649
2019_Oct_22,126,001,4,recog,65,INDEED,HF,target,left,yellow,pleasantness,liberal,no,z,1,1.38858998498,3,652
2019_Oct_22,126,001,4,recog,66,CLUBBED,LF,target,right,aqua,imageability,liberal,no,z,1,0.75317038549,3,655
2019_Oct_22,126,001,4,recog,67,CIVILITY,LF,lure,-,-,-,liberal,no,m,1,0.988531181812,1,656
2019_Oct_22,126,001,4,recog,68,UNTIL,HF,target,right,aqua,imageability,liberal,no,z,1,0.847268292039,3,659
2019_Oct_22,126,001,4,recog,69,VOICE,HF,target,left,yellow,pleasantness,conservative,no,z,1,1.54151745912,1,660
2019_Oct_22,126,001,4,recog,70,ESPECIAL,LF,target,left,yellow,pleasantness,conservative,no,z,1,0.764775946716,1,661
2019_Oct_22,126,001,4,recog,71,KOSHER,LF,lure,-,-,-,conservative,no,m,1,0.741505434527,3,664
2019_Oct_22,126,001,4,recog,72,SINCE,HF,target,right,aqua,imageability,conservative,no,z,1,0.823614679383,1,665
2019_Oct_22,126,001,4,recog,73,GIMMICKS,LF,target,left,yellow,pleasantness,liberal,no,z,1,0.89443180885,3,668
2019_Oct_22,126,001,4,recog,74,FAILINGS,LF,lure,-,-,-,liberal,no,m,1,0.941443551887,1,669
2019_Oct_22,126,001,4,recog,75,WITHIN,HF,lure,-,-,-,conservative,yes,m,1,0.788563369583,3,672
2019_Oct_22,126,001,4,recog,76,MOUTH,HF,target,right,aqua,imageability,conservative,no,z,1,1.52969340231,1,673
2019_Oct_22,126,001,4,recog,77,CRONE,LF,lure,-,-,-,liberal,no,m,1,0.788568135426,1,674
2019_Oct_22,126,001,4,recog,78,ACACIA,LF,target,left,yellow,pleasantness,liberal,no,z,1,0.75309633162,3,677
2019_Oct_22,126,001,4,recog,79,SLIGHTLY,HF,lure,-,-,-,conservative,no,m,1,1.10625080653,3,680
2019_Oct_22,126,001,4,recog,80,PACIFISM,LF,target,left,yellow,pleasantness,conservative,no,z,1,0.882493738416,1,681
2019_Oct_22,126,001,4,recog,81,HOLED,LF,target,right,aqua,imageability,liberal,no,z,1,0.800259848431,3,684
2019_Oct_22,126,001,4,recog,82,KIPPERS,LF,lure,-,-,-,conservative,no,m,1,0.682621609652,3,687
2019_Oct_22,126,001,4,recog,83,OPPOSES,LF,target,left,yellow,pleasantness,liberal,no,z,1,3.15327318106,3,690
2019_Oct_22,126,001,4,recog,84,NIGHT,HF,target,left,yellow,pleasantness,conservative,no,z,1,0.788608461791,1,691
2019_Oct_22,126,001,4,recog,85,WATCH,HF,lure,-,-,-,liberal,yes,z,0,0.8118038203,-1,690
2019_Oct_22,126,001,4,recog,86,AGATE,LF,lure,-,-,-,conservative,no,m,1,0.859111045611,3,693
2019_Oct_22,126,001,4,recog,87,FREEDOM,HF,lure,-,-,-,liberal,no,z,0,1.96494209134,-1,692
2019_Oct_22,126,001,4,recog,88,ALLOWED,HF,lure,-,-,-,conservative,no,m,1,1.57654017386,3,695
2019_Oct_22,126,001,4,recog,89,EFFECT,HF,target,left,yellow,pleasantness,liberal,no,m,0,0.835556782455,-3,692
2019_Oct_22,126,001,4,recog,90,BELIEVE,HF,target,left,yellow,pleasantness,liberal,no,m,0,1.44734879813,-3,689
2019_Oct_22,126,001,4,recog,91,TIMES,HF,target,left,yellow,pleasantness,conservative,no,z,1,1.2590723323,1,690
2019_Oct_22,126,001,4,recog,92,EITHER,HF,lure,-,-,-,conservative,no,m,1,1.09434756341,3,693
2019_Oct_22,126,001,4,recog,93,SONAR,LF,lure,-,-,-,conservative,no,m,1,0.94145491659,3,696
2019_Oct_22,126,001,4,recog,94,FIGURE,HF,lure,-,-,-,conservative,no,m,1,1.70623672896,3,699
2019_Oct_22,126,001,4,recog,95,LEFTISTS,LF,target,left,yellow,pleasantness,liberal,no,z,1,0.812062642242,3,702
