date,subj,session,cycle,task,trial,item,wf,type,source,colour,encoding,bias,null,response,corr,rt,points,total
2019_Oct_25,128,001,0,source,0,SIFTED,LF,target,right,aqua,pleasantness,conservative,no,9,1,3.74164630163,-,-
2019_Oct_25,128,001,0,source,1,FASCINATE,LF,target,right,aqua,pleasantness,conservative,yes,7,1,2.47095553273,-,-
2019_Oct_25,128,001,0,source,2,EXACTLY,HF,target,right,aqua,pleasantness,liberal,no,8,1,2.11804573353,-,-
2019_Oct_25,128,001,0,source,3,GETTING,HF,target,left,yellow,imageability,conservative,no,3,1,3.43569450463,-,-
2019_Oct_25,128,001,0,source,4,TOTAL,HF,target,right,aqua,pleasantness,conservative,no,7,1,2.84740848931,-,-
2019_Oct_25,128,001,0,source,5,SLIGHTLY,HF,target,left,yellow,imageability,conservative,no,3,1,3.69466263692,-,-
2019_Oct_25,128,001,0,source,6,RUNNING,HF,target,left,yellow,imageability,liberal,no,1,1,1.60029753852,-,-
2019_Oct_25,128,001,0,source,7,GAMBITS,LF,target,left,yellow,imageability,liberal,no,2,1,2.37686429002,-,-
2019_Oct_25,128,001,0,source,8,ASKED,HF,target,right,aqua,pleasantness,conservative,no,9,1,2.77680504628,-,-
2019_Oct_25,128,001,0,source,9,BECAME,HF,target,left,yellow,imageability,conservative,no,7,0,2.89457692412,-,-
2019_Oct_25,128,001,0,source,10,ENERGY,HF,target,right,aqua,pleasantness,liberal,no,9,1,1.62379083731,-,-
2019_Oct_25,128,001,0,source,11,REQUIRED,HF,target,left,yellow,imageability,liberal,no,8,0,1.81193629537,-,-
2019_Oct_25,128,001,0,source,12,UNSAVOURY,LF,target,left,yellow,imageability,conservative,no,8,0,2.30625718092,-,-
2019_Oct_25,128,001,0,source,13,MUSIC,HF,target,right,aqua,pleasantness,conservative,no,9,1,1.01187477866,-,-
2019_Oct_25,128,001,0,source,14,HAWKED,LF,target,left,yellow,imageability,liberal,no,1,1,3.38861625522,-,-
2019_Oct_25,128,001,0,source,15,UNION,HF,target,right,aqua,pleasantness,liberal,no,9,1,1.1533052952,-,-
2019_Oct_25,128,001,0,source,16,PANACHE,LF,target,right,aqua,pleasantness,liberal,no,9,1,1.50619859707,-,-
2019_Oct_25,128,001,0,source,17,NATIONAL,HF,target,right,aqua,pleasantness,conservative,no,9,1,1.64740878259,-,-
2019_Oct_25,128,001,0,source,18,HIGHER,HF,target,right,aqua,pleasantness,liberal,no,8,1,2.91788471959,-,-
2019_Oct_25,128,001,0,source,19,NESTING,LF,target,right,aqua,pleasantness,liberal,no,2,0,3.4827558901,-,-
2019_Oct_25,128,001,0,source,20,SHUNNED,LF,target,left,yellow,imageability,liberal,no,3,1,2.77682740933,-,-
2019_Oct_25,128,001,0,source,21,EITHER,HF,target,left,yellow,imageability,liberal,no,1,1,3.41229835679,-,-
2019_Oct_25,128,001,0,source,22,MOISTENED,LF,target,left,yellow,imageability,conservative,no,1,1,2.68272370197,-,-
2019_Oct_25,128,001,0,source,23,HUSBAND,HF,target,right,aqua,pleasantness,liberal,no,9,1,1.10625014206,-,-
2019_Oct_25,128,001,0,source,24,VARIOUS,HF,target,left,yellow,imageability,liberal,yes,3,1,1.34154460475,-,-
2019_Oct_25,128,001,0,source,25,EASILY,HF,target,left,yellow,imageability,liberal,no,7,0,3.78841733408,-,-
2019_Oct_25,128,001,0,source,26,VOWEL,LF,target,left,yellow,imageability,conservative,no,1,1,1.17679492791,-,-
2019_Oct_25,128,001,0,source,27,ECLECTIC,LF,target,right,aqua,pleasantness,liberal,no,7,1,3.97687294196,-,-
2019_Oct_25,128,001,0,source,28,WEIRDLY,LF,target,left,yellow,imageability,liberal,no,8,0,3.71813503908,-,-
2019_Oct_25,128,001,0,source,29,VIBRATE,LF,target,left,yellow,imageability,liberal,no,1,1,3.83555607369,-,-
2019_Oct_25,128,001,0,source,30,KNOWLEDGE,HF,target,left,yellow,imageability,conservative,no,2,1,2.02384047594,-,-
2019_Oct_25,128,001,0,source,31,NIMBLE,LF,target,right,aqua,pleasantness,liberal,no,3,0,1.85915862147,-,-
2019_Oct_25,128,001,0,source,32,EXPECT,HF,target,right,aqua,pleasantness,liberal,no,8,1,1.76501825338,-,-
2019_Oct_25,128,001,0,source,33,FIXTURE,LF,target,left,yellow,imageability,conservative,no,3,1,3.1062321783,-,-
2019_Oct_25,128,001,0,source,34,PRIVATE,HF,target,left,yellow,imageability,conservative,no,7,0,2.56513732745,-,-
2019_Oct_25,128,001,0,source,35,BYPASS,LF,target,right,aqua,pleasantness,conservative,no,7,1,4.09459936049,-,-
2019_Oct_25,128,001,0,source,36,FABLE,LF,target,right,aqua,pleasantness,conservative,no,9,1,1.03568885888,-,-
2019_Oct_25,128,001,0,source,37,CATALYST,LF,target,left,yellow,imageability,conservative,yes,3,1,1.05913779817,-,-
2019_Oct_25,128,001,0,source,38,COPIOUSLY,LF,target,right,aqua,pleasantness,conservative,no,3,0,3.01205771573,-,-
2019_Oct_25,128,001,0,source,39,SHRED,LF,target,left,yellow,imageability,conservative,no,1,1,1.05916346069,-,-
2019_Oct_25,128,001,0,source,40,BASIC,HF,target,left,yellow,imageability,liberal,no,1,1,1.36496348224,-,-
2019_Oct_25,128,001,0,source,41,PESTERED,LF,target,left,yellow,imageability,liberal,no,7,0,3.69463037547,-,-
2019_Oct_25,128,001,0,source,42,GIRLS,HF,target,left,yellow,imageability,conservative,yes,3,1,2.07093302304,-,-
2019_Oct_25,128,001,0,source,43,FOUND,HF,target,right,aqua,pleasantness,conservative,no,9,1,1.92969204249,-,-
2019_Oct_25,128,001,0,source,44,ACACIA,LF,target,right,aqua,pleasantness,liberal,no,9,1,1.12967268563,-,-
2019_Oct_25,128,001,0,source,45,EXECUTING,LF,target,right,aqua,pleasantness,liberal,no,9,1,0.988590446066,-,-
2019_Oct_25,128,001,0,source,46,LIZARD,LF,target,right,aqua,pleasantness,conservative,no,9,1,0.941495699329,-,-
2019_Oct_25,128,001,0,source,47,LIGHT,HF,target,right,aqua,pleasantness,conservative,no,7,1,4.47097093024,-,-
2019_Oct_25,128,001,0,recog,0,ECLECTIC,LF,target,right,aqua,pleasantness,liberal,no,z,1,1.74152568781,3,3
2019_Oct_25,128,001,0,recog,1,ENERGY,HF,target,right,aqua,pleasantness,liberal,no,z,1,1.3063011738,3,6
2019_Oct_25,128,001,0,recog,2,PRIVATE,HF,target,left,yellow,imageability,conservative,no,z,1,0.929923738339,1,7
2019_Oct_25,128,001,0,recog,3,DEFEATING,LF,lure,-,-,-,liberal,no,m,1,3.17665891659,1,8
2019_Oct_25,128,001,0,recog,4,SUGARY,LF,lure,-,-,-,conservative,no,m,1,1.52967796477,3,11
2019_Oct_25,128,001,0,recog,5,SPEAK,HF,lure,-,-,-,liberal,no,m,1,1.29448285267,1,12
2019_Oct_25,128,001,0,recog,6,BYPASS,LF,target,right,aqua,pleasantness,conservative,no,z,1,0.976776890832,1,13
2019_Oct_25,128,001,0,recog,7,TOTAL,HF,target,right,aqua,pleasantness,conservative,no,z,1,1.45917680519,1,14
2019_Oct_25,128,001,0,recog,8,CYANIDE,LF,lure,-,-,-,conservative,no,m,1,1.92976316432,3,17
2019_Oct_25,128,001,0,recog,9,SLIGHTLY,HF,target,left,yellow,imageability,conservative,no,z,1,3.43570770249,1,18
2019_Oct_25,128,001,0,recog,10,MEDDLE,LF,lure,-,-,-,conservative,no,m,1,1.30622088679,3,21
2019_Oct_25,128,001,0,recog,11,CHOICE,HF,lure,-,-,-,liberal,no,m,1,0.941538225782,1,22
2019_Oct_25,128,001,0,recog,12,VOWEL,LF,target,left,yellow,imageability,conservative,no,z,1,0.847160662738,1,23
2019_Oct_25,128,001,0,recog,13,CHEEKBONE,LF,lure,-,-,-,conservative,no,m,1,0.835545808688,3,26
2019_Oct_25,128,001,0,recog,14,LIGHT,HF,target,right,aqua,pleasantness,conservative,no,z,1,0.823861299242,1,27
2019_Oct_25,128,001,0,recog,15,YEARN,LF,lure,-,-,-,conservative,no,m,1,2.20016724627,3,30
2019_Oct_25,128,001,0,recog,16,EXECUTING,LF,target,right,aqua,pleasantness,liberal,no,z,1,1.07072845614,3,33
2019_Oct_25,128,001,0,recog,17,CULINARY,LF,lure,-,-,-,conservative,no,m,1,1.14170327241,3,36
2019_Oct_25,128,001,0,recog,18,AVAILABLE,HF,lure,-,-,-,liberal,no,m,1,0.894223514635,1,37
2019_Oct_25,128,001,0,recog,19,NESTING,LF,target,right,aqua,pleasantness,liberal,no,z,1,0.812016582384,3,40
2019_Oct_25,128,001,0,recog,20,RATHER,HF,lure,-,-,-,liberal,no,m,1,1.88281469392,1,41
2019_Oct_25,128,001,0,recog,21,EITHER,HF,target,left,yellow,imageability,liberal,no,z,1,1.56491186393,3,44
2019_Oct_25,128,001,0,recog,22,BEHIND,HF,lure,-,-,-,liberal,no,m,1,0.918014498587,1,45
2019_Oct_25,128,001,0,recog,23,SAYING,HF,lure,-,-,-,conservative,no,m,1,0.847415454846,3,48
2019_Oct_25,128,001,0,recog,24,SIFTED,LF,target,right,aqua,pleasantness,conservative,no,z,1,0.906211941574,1,49
2019_Oct_25,128,001,0,recog,25,GIRLS,HF,target,left,yellow,imageability,conservative,no,z,1,0.635631521487,1,50
2019_Oct_25,128,001,0,recog,26,CATALYST,LF,target,left,yellow,imageability,conservative,no,z,1,0.800341971336,1,51
2019_Oct_25,128,001,0,recog,27,TEACUP,LF,lure,-,-,-,liberal,no,m,1,0.729814782635,1,52
2019_Oct_25,128,001,0,recog,28,UNSAVOURY,LF,target,left,yellow,imageability,conservative,no,z,1,0.953345182083,1,53
2019_Oct_25,128,001,0,recog,29,HONKING,LF,lure,-,-,-,conservative,no,m,1,1.21202882707,3,56
2019_Oct_25,128,001,0,recog,30,BECAME,HF,target,left,yellow,imageability,conservative,no,z,1,1.82385653335,1,57
2019_Oct_25,128,001,0,recog,31,ANNALS,LF,lure,-,-,-,liberal,no,m,1,0.870963011518,1,58
2019_Oct_25,128,001,0,recog,32,THANK,HF,lure,-,-,-,liberal,no,m,1,0.882605727727,1,59
2019_Oct_25,128,001,0,recog,33,VIBRATE,LF,target,left,yellow,imageability,liberal,yes,z,1,1.98862674019,3,62
2019_Oct_25,128,001,0,recog,34,PESTERED,LF,target,left,yellow,imageability,liberal,no,z,1,3.35339335429,3,65
2019_Oct_25,128,001,0,recog,35,LIVED,HF,lure,-,-,-,conservative,no,m,1,2.11803180245,3,68
2019_Oct_25,128,001,0,recog,36,EXPECT,HF,target,right,aqua,pleasantness,liberal,no,z,1,1.12976653711,3,71
2019_Oct_25,128,001,0,recog,37,JARRED,LF,lure,-,-,-,conservative,no,m,1,0.72981551585,3,74
2019_Oct_25,128,001,0,recog,38,EIGHT,HF,lure,-,-,-,conservative,no,m,1,0.800359201881,3,77
2019_Oct_25,128,001,0,recog,39,KNOWLEDGE,HF,target,left,yellow,imageability,conservative,no,z,1,0.753481486695,1,78
2019_Oct_25,128,001,0,recog,40,BASIC,HF,target,left,yellow,imageability,liberal,no,z,1,0.682650380502,3,81
2019_Oct_25,128,001,0,recog,41,GAMBITS,LF,target,left,yellow,imageability,liberal,no,z,1,0.670802364177,3,84
2019_Oct_25,128,001,0,recog,42,PANACHE,LF,target,right,aqua,pleasantness,liberal,no,z,1,0.682738732873,3,87
2019_Oct_25,128,001,0,recog,43,GAZELLE,LF,lure,-,-,-,conservative,no,m,1,0.776890832397,3,90
2019_Oct_25,128,001,0,recog,44,RIGGING,LF,lure,-,-,-,liberal,no,z,0,0.670964038019,-1,89
2019_Oct_25,128,001,0,recog,45,UNION,HF,target,right,aqua,pleasantness,liberal,yes,m,0,2.28271658979,-3,86
2019_Oct_25,128,001,0,recog,46,WEIRDLY,LF,target,left,yellow,imageability,liberal,no,z,1,1.34167695,3,89
2019_Oct_25,128,001,0,recog,47,SLEEP,HF,lure,-,-,-,conservative,no,m,1,0.882744671912,3,92
2019_Oct_25,128,001,0,recog,48,NATIONAL,HF,target,right,aqua,pleasantness,conservative,no,z,1,0.882702512067,1,93
2019_Oct_25,128,001,0,recog,49,SEVEN,HF,lure,-,-,-,conservative,no,m,1,0.753341809295,3,96
2019_Oct_25,128,001,0,recog,50,MERELY,HF,lure,-,-,-,conservative,no,m,1,1.6239602099,3,99
2019_Oct_25,128,001,0,recog,51,ASKED,HF,target,right,aqua,pleasantness,conservative,no,z,1,1.15340611222,1,100
2019_Oct_25,128,001,0,recog,52,HAWKED,LF,target,left,yellow,imageability,liberal,no,z,1,0.706115817128,3,103
2019_Oct_25,128,001,0,recog,53,RUNNING,HF,target,left,yellow,imageability,liberal,no,z,1,0.67093067675,3,106
2019_Oct_25,128,001,0,recog,54,FIXTURE,LF,target,left,yellow,imageability,conservative,no,z,1,1.58863502552,1,107
2019_Oct_25,128,001,0,recog,55,TWINE,LF,lure,-,-,-,liberal,no,m,1,1.38860269075,1,108
2019_Oct_25,128,001,0,recog,56,COVER,HF,lure,-,-,-,conservative,no,m,1,1.29447588713,3,111
2019_Oct_25,128,001,0,recog,57,REQUIRED,HF,target,left,yellow,imageability,liberal,no,m,0,1.65891255462,-3,108
2019_Oct_25,128,001,0,recog,58,QUALITY,HF,lure,-,-,-,conservative,no,m,1,1.88272487512,3,111
2019_Oct_25,128,001,0,recog,59,FEELING,HF,lure,-,-,-,conservative,no,m,1,0.965019059916,3,114
2019_Oct_25,128,001,0,recog,60,PEACEABLY,LF,lure,-,-,-,conservative,no,m,1,0.823890261222,3,117
2019_Oct_25,128,001,0,recog,61,FOUND,HF,target,right,aqua,pleasantness,conservative,no,z,1,1.10631796442,1,118
2019_Oct_25,128,001,0,recog,62,FASCINATE,LF,target,right,aqua,pleasantness,conservative,yes,m,0,1.63569457795,-1,117
2019_Oct_25,128,001,0,recog,63,SHUNNED,LF,target,left,yellow,imageability,liberal,no,z,1,1.04729711399,3,120
2019_Oct_25,128,001,0,recog,64,GIVEN,HF,lure,-,-,-,conservative,no,m,1,0.870986840996,3,123
2019_Oct_25,128,001,0,recog,65,EASILY,HF,target,left,yellow,imageability,liberal,no,z,1,0.741441734727,3,126
2019_Oct_25,128,001,0,recog,66,HUSBAND,HF,target,right,aqua,pleasantness,liberal,no,z,1,0.682598322258,3,129
2019_Oct_25,128,001,0,recog,67,DORMS,LF,lure,-,-,-,liberal,no,m,1,0.835605932293,1,130
2019_Oct_25,128,001,0,recog,68,SHRED,LF,target,left,yellow,imageability,conservative,no,z,1,0.882735140121,1,131
2019_Oct_25,128,001,0,recog,69,FOCUSES,LF,lure,-,-,-,conservative,no,m,1,0.765083509488,3,134
2019_Oct_25,128,001,0,recog,70,MUSIC,HF,target,right,aqua,pleasantness,conservative,no,z,1,0.60032870015,1,135
2019_Oct_25,128,001,0,recog,71,GENERAL,HF,lure,-,-,-,conservative,no,m,1,0.882692613668,3,138
2019_Oct_25,128,001,0,recog,72,ADDED,HF,lure,-,-,-,liberal,no,m,1,0.765032917674,1,139
2019_Oct_25,128,001,0,recog,73,PISTONS,LF,lure,-,-,-,liberal,no,m,1,1.96510264639,1,140
2019_Oct_25,128,001,0,recog,74,MIMICKED,LF,lure,-,-,-,conservative,no,m,1,0.823787977772,3,143
2019_Oct_25,128,001,0,recog,75,BLUECOATS,LF,lure,-,-,-,liberal,no,m,1,1.82362703715,1,144
2019_Oct_25,128,001,0,recog,76,VARIOUS,HF,target,left,yellow,imageability,liberal,no,z,1,1.6356073254,3,147
2019_Oct_25,128,001,0,recog,77,LIZARD,LF,target,right,aqua,pleasantness,conservative,no,z,1,0.694408944633,1,148
2019_Oct_25,128,001,0,recog,78,COPIOUSLY,LF,target,right,aqua,pleasantness,conservative,no,z,1,0.823607240348,1,149
2019_Oct_25,128,001,0,recog,79,FUTURE,HF,lure,-,-,-,liberal,no,m,1,0.941440341619,1,150
2019_Oct_25,128,001,0,recog,80,GETTING,HF,target,left,yellow,imageability,conservative,no,z,1,1.18855055919,1,151
2019_Oct_25,128,001,0,recog,81,EXACTLY,HF,target,right,aqua,pleasantness,liberal,no,z,1,1.20035861531,3,154
2019_Oct_25,128,001,0,recog,82,DONATE,LF,lure,-,-,-,liberal,no,m,1,0.659264864278,1,155
2019_Oct_25,128,001,0,recog,83,ELUDE,LF,lure,-,-,-,liberal,no,m,1,0.976754161177,1,156
2019_Oct_25,128,001,0,recog,84,MOISTENED,LF,target,left,yellow,imageability,conservative,no,z,1,0.694392447302,1,157
2019_Oct_25,128,001,0,recog,85,TRIED,HF,lure,-,-,-,liberal,no,m,1,0.953087457116,1,158
2019_Oct_25,128,001,0,recog,86,PLEASE,HF,lure,-,-,-,liberal,no,m,1,1.56501414738,1,159
2019_Oct_25,128,001,0,recog,87,FABLE,LF,target,right,aqua,pleasantness,conservative,no,z,1,0.623837029835,1,160
2019_Oct_25,128,001,0,recog,88,VULTURE,LF,lure,-,-,-,liberal,no,z,0,2.341357635,-1,159
2019_Oct_25,128,001,0,recog,89,SENSE,HF,lure,-,-,-,liberal,no,m,1,1.36501370745,1,160
2019_Oct_25,128,001,0,recog,90,TAKEN,HF,lure,-,-,-,liberal,no,m,1,1.60025061278,1,161
2019_Oct_25,128,001,0,recog,91,ACACIA,LF,target,right,aqua,pleasantness,liberal,no,z,1,0.635939838268,3,164
2019_Oct_25,128,001,0,recog,92,PENALIZED,LF,lure,-,-,-,liberal,no,m,1,0.835593834251,1,165
2019_Oct_25,128,001,0,recog,93,HIGHER,HF,target,right,aqua,pleasantness,liberal,yes,m,0,1.27096719084,-3,162
2019_Oct_25,128,001,0,recog,94,LEARN,HF,lure,-,-,-,conservative,no,m,1,4.80038889708,3,165
2019_Oct_25,128,001,0,recog,95,NIMBLE,LF,target,right,aqua,pleasantness,liberal,no,z,1,0.776625042068,3,168
2019_Oct_25,128,001,1,source,0,OBVIOUSLY,HF,target,right,aqua,pleasantness,conservative,no,7,1,3.80041785906,-,-
2019_Oct_25,128,001,1,source,1,BUILDING,HF,target,left,yellow,imageability,conservative,no,2,1,1.7297183649,-,-
2019_Oct_25,128,001,1,source,2,MEMBERS,HF,target,left,yellow,imageability,conservative,no,2,1,1.84743671807,-,-
2019_Oct_25,128,001,1,source,3,AROUND,HF,target,left,yellow,imageability,liberal,no,1,1,2.63568834563,-,-
2019_Oct_25,128,001,1,source,4,POSITION,HF,target,right,aqua,pleasantness,liberal,no,7,1,2.71803018938,-,-
2019_Oct_25,128,001,1,source,5,ENGULF,LF,target,right,aqua,pleasantness,liberal,no,8,1,3.25929587926,-,-
2019_Oct_25,128,001,1,source,6,CALLED,HF,target,right,aqua,pleasantness,liberal,no,8,1,2.08250681706,-,-
2019_Oct_25,128,001,1,source,7,CAKED,LF,target,left,yellow,imageability,liberal,no,1,1,1.36518271344,-,-
2019_Oct_25,128,001,1,source,8,UPSTART,LF,target,right,aqua,pleasantness,liberal,no,1,0,4.20020500683,-,-
2019_Oct_25,128,001,1,source,9,WHOLE,HF,target,right,aqua,pleasantness,liberal,no,9,1,2.74153888568,-,-
2019_Oct_25,128,001,1,source,10,HARDLY,HF,target,left,yellow,imageability,liberal,no,3,1,2.44716674842,-,-
2019_Oct_25,128,001,1,source,11,POINT,HF,target,left,yellow,imageability,conservative,no,1,1,1.12992747773,-,-
2019_Oct_25,128,001,1,source,12,MARKET,HF,target,left,yellow,imageability,conservative,no,1,1,0.823870831033,-,-
2019_Oct_25,128,001,1,source,13,ANSWER,HF,target,left,yellow,imageability,liberal,no,2,1,3.40040781402,-,-
2019_Oct_25,128,001,1,source,14,TACITLY,LF,target,left,yellow,imageability,liberal,no,3,1,2.29443666015,-,-
2019_Oct_25,128,001,1,source,15,COUNCIL,HF,target,right,aqua,pleasantness,conservative,no,3,0,2.41216747797,-,-
2019_Oct_25,128,001,1,source,16,GAUCHE,LF,target,right,aqua,pleasantness,conservative,no,8,1,3.80053920609,-,-
2019_Oct_25,128,001,1,source,17,ALONE,HF,target,right,aqua,pleasantness,liberal,no,9,1,1.35322764777,-,-
2019_Oct_25,128,001,1,source,18,EDUCATION,HF,target,right,aqua,pleasantness,conservative,no,9,1,1.47109044423,-,-
2019_Oct_25,128,001,1,source,19,LEECH,LF,target,left,yellow,imageability,conservative,no,3,1,4.51823981546,-,-
2019_Oct_25,128,001,1,source,20,TAWNY,LF,target,left,yellow,imageability,liberal,no,3,1,2.77688716632,-,-
2019_Oct_25,128,001,1,source,21,EVOCATION,LF,target,right,aqua,pleasantness,conservative,no,8,1,1.92954173348,-,-
2019_Oct_25,128,001,1,source,22,AVIDLY,LF,target,right,aqua,pleasantness,conservative,no,3,0,1.38870534081,-,-
2019_Oct_25,128,001,1,source,23,DIDACTIC,LF,target,right,aqua,pleasantness,liberal,no,3,0,1.9533261185,-,-
2019_Oct_25,128,001,1,source,24,HOSPITAL,HF,target,left,yellow,imageability,liberal,no,2,1,2.61231859352,-,-
2019_Oct_25,128,001,1,source,25,SKATES,LF,target,right,aqua,pleasantness,liberal,no,2,0,1.31801024594,-,-
2019_Oct_25,128,001,1,source,26,VALUE,HF,target,right,aqua,pleasantness,liberal,no,7,1,3.87107519337,-,-
2019_Oct_25,128,001,1,source,27,UNBEATEN,LF,target,right,aqua,pleasantness,conservative,no,8,1,4.01218932777,-,-
2019_Oct_25,128,001,1,source,28,HUNDRED,HF,target,right,aqua,pleasantness,conservative,no,8,1,1.01211380665,-,-
2019_Oct_25,128,001,1,source,29,KENNEL,LF,target,left,yellow,imageability,conservative,no,2,1,1.51795606138,-,-
2019_Oct_25,128,001,1,source,30,ACTION,HF,target,right,aqua,pleasantness,conservative,no,7,1,3.49452985174,-,-
2019_Oct_25,128,001,1,source,31,CURATOR,LF,target,left,yellow,imageability,conservative,no,2,1,1.31770632845,-,-
2019_Oct_25,128,001,1,source,32,ENROLMENT,LF,target,left,yellow,imageability,liberal,yes,8,0,1.16486112547,-,-
2019_Oct_25,128,001,1,source,33,SUMMER,HF,target,left,yellow,imageability,liberal,no,1,1,2.08276197578,-,-
2019_Oct_25,128,001,1,source,34,LAWFUL,LF,target,left,yellow,imageability,conservative,yes,3,1,1.6824806413,-,-
2019_Oct_25,128,001,1,source,35,GIBBERISH,LF,target,left,yellow,imageability,liberal,no,2,1,1.87079107267,-,-
2019_Oct_25,128,001,1,source,36,BUDDIES,LF,target,right,aqua,pleasantness,liberal,no,9,1,1.03563386777,-,-
2019_Oct_25,128,001,1,source,37,KITCHEN,HF,target,left,yellow,imageability,conservative,no,9,0,1.89452669891,-,-
2019_Oct_25,128,001,1,source,38,KICKER,LF,target,left,yellow,imageability,liberal,no,2,1,4.6472944011,-,-
2019_Oct_25,128,001,1,source,39,NORTH,HF,target,left,yellow,imageability,conservative,no,1,1,3.52986676756,-,-
2019_Oct_25,128,001,1,source,40,LIQUEUR,LF,target,right,aqua,pleasantness,liberal,yes,7,1,1.50594527139,-,-
2019_Oct_25,128,001,1,source,41,RAIDER,LF,target,right,aqua,pleasantness,conservative,no,8,1,1.87077640838,-,-
2019_Oct_25,128,001,1,source,42,OUGHT,HF,target,right,aqua,pleasantness,conservative,no,3,0,3.65938841096,-,-
2019_Oct_25,128,001,1,source,43,ECONOMIC,HF,target,right,aqua,pleasantness,liberal,no,7,1,2.50623159173,-,-
2019_Oct_25,128,001,1,source,44,HAVING,HF,target,left,yellow,imageability,liberal,no,7,0,1.94153052703,-,-
2019_Oct_25,128,001,1,source,45,FRUGAL,LF,target,left,yellow,imageability,conservative,no,3,1,1.91782349616,-,-
2019_Oct_25,128,001,1,source,46,VETOED,LF,target,left,yellow,imageability,conservative,yes,7,0,1.14161638647,-,-
2019_Oct_25,128,001,1,source,47,ENMESHED,LF,target,right,aqua,pleasantness,conservative,no,3,0,2.03573541801,-,-
2019_Oct_25,128,001,1,recog,0,OBVIOUSLY,HF,target,right,aqua,pleasantness,conservative,no,z,1,1.34161426015,1,169
2019_Oct_25,128,001,1,recog,1,NEARLY,HF,lure,-,-,-,liberal,no,z,0,2.25919359581,-1,168
2019_Oct_25,128,001,1,recog,2,BENIGNLY,LF,lure,-,-,-,liberal,no,m,1,1.21215713964,1,169
2019_Oct_25,128,001,1,recog,3,TACITLY,LF,target,left,yellow,imageability,liberal,no,z,1,0.847377327682,3,172
2019_Oct_25,128,001,1,recog,4,HOTEL,HF,lure,-,-,-,conservative,no,m,1,0.894492971037,3,175
2019_Oct_25,128,001,1,recog,5,CASES,HF,lure,-,-,-,conservative,yes,m,1,1.15328989769,3,178
2019_Oct_25,128,001,1,recog,6,GAUCHE,LF,target,right,aqua,pleasantness,conservative,no,z,1,1.12978560069,1,179
2019_Oct_25,128,001,1,recog,7,WHETHER,HF,lure,-,-,-,conservative,no,m,1,0.788650862957,3,182
2019_Oct_25,128,001,1,recog,8,ACTION,HF,target,right,aqua,pleasantness,conservative,no,z,1,0.682855680617,1,183
2019_Oct_25,128,001,1,recog,9,COUNCIL,HF,target,right,aqua,pleasantness,conservative,no,z,1,0.847398957515,1,184
2019_Oct_25,128,001,1,recog,10,POSITION,HF,target,right,aqua,pleasantness,liberal,no,z,1,0.918006433226,3,187
2019_Oct_25,128,001,1,recog,11,MOVED,HF,lure,-,-,-,conservative,no,m,1,1.11778617553,3,190
2019_Oct_25,128,001,1,recog,12,ENMESHED,LF,target,right,aqua,pleasantness,conservative,no,z,1,0.753268487825,1,191
2019_Oct_25,128,001,1,recog,13,TOWARDS,HF,lure,-,-,-,conservative,no,z,0,1.01190300743,-3,188
2019_Oct_25,128,001,1,recog,14,VALUE,HF,target,right,aqua,pleasantness,liberal,no,z,1,1.01209327664,3,191
2019_Oct_25,128,001,1,recog,15,HESITATES,LF,lure,-,-,-,conservative,no,m,1,0.694455137159,3,194
2019_Oct_25,128,001,1,recog,16,HEEDED,LF,lure,-,-,-,liberal,no,m,1,0.894551628213,1,195
2019_Oct_25,128,001,1,recog,17,NECESSARY,HF,lure,-,-,-,conservative,no,z,0,2.02369309979,-3,192
2019_Oct_25,128,001,1,recog,18,UPSTART,LF,target,right,aqua,pleasantness,liberal,no,z,1,0.894198585336,3,195
2019_Oct_25,128,001,1,recog,19,KERNEL,LF,lure,-,-,-,conservative,no,m,1,1.62407239175,3,198
2019_Oct_25,128,001,1,recog,20,TUMBLER,LF,lure,-,-,-,conservative,no,z,0,1.7885082527,-3,195
2019_Oct_25,128,001,1,recog,21,TALKING,HF,lure,-,-,-,liberal,no,z,0,1.25917636526,-1,194
2019_Oct_25,128,001,1,recog,22,NAIVELY,LF,lure,-,-,-,liberal,no,m,1,0.941519528807,1,195
2019_Oct_25,128,001,1,recog,23,AREAS,HF,lure,-,-,-,conservative,no,m,1,0.776875801495,3,198
2019_Oct_25,128,001,1,recog,24,COERCION,LF,lure,-,-,-,conservative,no,m,1,0.647473672093,3,201
2019_Oct_25,128,001,1,recog,25,HYSTERICS,LF,lure,-,-,-,liberal,no,m,1,0.976899704295,1,202
2019_Oct_25,128,001,1,recog,26,DIDACTIC,LF,target,right,aqua,pleasantness,liberal,no,z,1,0.788508252698,3,205
2019_Oct_25,128,001,1,recog,27,EDUCATION,HF,target,right,aqua,pleasantness,conservative,no,z,1,0.682671643728,1,206
2019_Oct_25,128,001,1,recog,28,NOURISH,LF,lure,-,-,-,conservative,no,m,1,0.753191500282,3,209
2019_Oct_25,128,001,1,recog,29,ENGULF,LF,target,right,aqua,pleasantness,liberal,no,z,1,0.74147729564,3,212
2019_Oct_25,128,001,1,recog,30,GARDEN,HF,lure,-,-,-,conservative,no,m,1,0.612024207817,3,215
2019_Oct_25,128,001,1,recog,31,FIGURE,HF,lure,-,-,-,conservative,no,m,1,1.02397685388,3,218
2019_Oct_25,128,001,1,recog,32,AVIDLY,LF,target,right,aqua,pleasantness,conservative,no,z,1,1.09461292496,1,219
2019_Oct_25,128,001,1,recog,33,GIBBERISH,LF,target,left,yellow,imageability,liberal,no,z,1,0.752996098565,3,222
2019_Oct_25,128,001,1,recog,34,MEETING,HF,lure,-,-,-,liberal,no,m,1,1.61214702128,1,223
2019_Oct_25,128,001,1,recog,35,ITSELF,HF,lure,-,-,-,conservative,no,m,1,0.894593054844,3,226
2019_Oct_25,128,001,1,recog,36,OBNOXIOUS,LF,lure,-,-,-,liberal,no,m,1,1.49450748869,1,227
2019_Oct_25,128,001,1,recog,37,VETOED,LF,target,left,yellow,imageability,conservative,no,z,1,0.800308976674,1,228
2019_Oct_25,128,001,1,recog,38,ENOUGH,HF,lure,-,-,-,liberal,no,z,0,0.800295045595,-1,227
2019_Oct_25,128,001,1,recog,39,MUMBLES,LF,lure,-,-,-,liberal,no,m,1,2.84746971273,1,228
2019_Oct_25,128,001,1,recog,40,HAVING,HF,target,left,yellow,imageability,liberal,no,z,1,0.835651391605,3,231
2019_Oct_25,128,001,1,recog,41,CURATOR,LF,target,left,yellow,imageability,conservative,no,z,1,0.718034955278,1,232
2019_Oct_25,128,001,1,recog,42,DRAFTING,LF,lure,-,-,-,conservative,no,m,1,0.635702643312,3,235
2019_Oct_25,128,001,1,recog,43,HARDLY,HF,target,left,yellow,imageability,liberal,no,z,1,1.3768628236,3,238
2019_Oct_25,128,001,1,recog,44,HOSPITAL,HF,target,left,yellow,imageability,liberal,no,z,1,0.718064283865,3,241
2019_Oct_25,128,001,1,recog,45,BLOOD,HF,lure,-,-,-,liberal,no,m,1,0.764970594425,1,242
2019_Oct_25,128,001,1,recog,46,BUDDIES,LF,target,right,aqua,pleasantness,liberal,yes,z,1,1.24751825155,3,245
2019_Oct_25,128,001,1,recog,47,CONCERNED,HF,lure,-,-,-,liberal,no,m,1,3.77683474147,1,246
2019_Oct_25,128,001,1,recog,48,TRUTH,HF,lure,-,-,-,liberal,no,m,1,0.812208684635,1,247
2019_Oct_25,128,001,1,recog,49,HUNDRED,HF,target,right,aqua,pleasantness,conservative,no,z,1,0.635633354523,1,248
2019_Oct_25,128,001,1,recog,50,MEMBERS,HF,target,left,yellow,imageability,conservative,no,z,1,0.753241725489,1,249
2019_Oct_25,128,001,1,recog,51,ANSWER,HF,target,left,yellow,imageability,liberal,no,z,1,0.765020453024,3,252
2019_Oct_25,128,001,1,recog,52,POINT,HF,target,left,yellow,imageability,conservative,no,z,1,0.694472001097,1,253
2019_Oct_25,128,001,1,recog,53,KICKER,LF,target,left,yellow,imageability,liberal,no,z,1,0.63565865043,3,256
2019_Oct_25,128,001,1,recog,54,WHOLE,HF,target,right,aqua,pleasantness,liberal,no,z,1,0.870917918814,3,259
2019_Oct_25,128,001,1,recog,55,CHURCH,HF,lure,-,-,-,conservative,no,m,1,0.847329668726,3,262
2019_Oct_25,128,001,1,recog,56,NORTH,HF,target,left,yellow,imageability,conservative,yes,m,0,1.38862102112,-1,261
2019_Oct_25,128,001,1,recog,57,WONDROUS,LF,lure,-,-,-,liberal,no,m,1,1.89452193302,1,262
2019_Oct_25,128,001,1,recog,58,RAIDER,LF,target,right,aqua,pleasantness,conservative,no,z,1,0.706173007874,1,263
2019_Oct_25,128,001,1,recog,59,ENVIRONS,LF,lure,-,-,-,liberal,no,m,1,0.988584213741,1,264
2019_Oct_25,128,001,1,recog,60,WALKED,HF,lure,-,-,-,liberal,no,m,1,1.18858575349,1,265
2019_Oct_25,128,001,1,recog,61,KITCHEN,HF,target,left,yellow,imageability,conservative,no,z,1,0.753266654789,1,266
2019_Oct_25,128,001,1,recog,62,ISOLATING,LF,lure,-,-,-,liberal,no,m,1,1.11810952321,1,267
2019_Oct_25,128,001,1,recog,63,GEYSER,LF,lure,-,-,-,conservative,no,m,1,0.800348936875,3,270
2019_Oct_25,128,001,1,recog,64,UNBEATEN,LF,target,right,aqua,pleasantness,conservative,no,z,1,1.0591693264,1,271
2019_Oct_25,128,001,1,recog,65,AXIOM,LF,lure,-,-,-,liberal,no,m,1,0.682673110157,1,272
2019_Oct_25,128,001,1,recog,66,TOGETHER,HF,lure,-,-,-,liberal,no,z,0,0.765022652668,-1,271
2019_Oct_25,128,001,1,recog,67,DODGED,LF,lure,-,-,-,conservative,no,m,1,0.918000567508,3,274
2019_Oct_25,128,001,1,recog,68,FRUGAL,LF,target,left,yellow,imageability,conservative,no,z,1,0.800103309951,1,275
2019_Oct_25,128,001,1,recog,69,LAWFUL,LF,target,left,yellow,imageability,conservative,no,m,0,0.670682483574,-1,274
2019_Oct_25,128,001,1,recog,70,INACTION,LF,lure,-,-,-,conservative,no,m,1,0.882673183479,3,277
2019_Oct_25,128,001,1,recog,71,EVOCATION,LF,target,right,aqua,pleasantness,conservative,no,z,1,0.68290517261,1,278
2019_Oct_25,128,001,1,recog,72,ALONE,HF,target,right,aqua,pleasantness,liberal,no,z,1,0.647317497362,3,281
2019_Oct_25,128,001,1,recog,73,USING,HF,lure,-,-,-,conservative,no,m,1,1.67093947533,3,284
2019_Oct_25,128,001,1,recog,74,LIQUEUR,LF,target,right,aqua,pleasantness,liberal,no,z,1,1.0474672198,3,287
2019_Oct_25,128,001,1,recog,75,BETTER,HF,lure,-,-,-,liberal,no,m,1,1.56503907668,1,288
2019_Oct_25,128,001,1,recog,76,MARKET,HF,target,left,yellow,imageability,conservative,no,z,1,0.694360185855,1,289
2019_Oct_25,128,001,1,recog,77,LEECH,LF,target,left,yellow,imageability,conservative,no,z,1,0.717841386597,1,290
2019_Oct_25,128,001,1,recog,78,TENABLE,LF,lure,-,-,-,conservative,no,m,1,0.670810429539,3,293
2019_Oct_25,128,001,1,recog,79,AROUND,HF,target,left,yellow,imageability,liberal,no,z,1,0.612225475251,3,296
2019_Oct_25,128,001,1,recog,80,JUROR,LF,lure,-,-,-,liberal,no,m,1,0.77679074859,1,297
2019_Oct_25,128,001,1,recog,81,ENROLMENT,LF,target,left,yellow,imageability,liberal,no,z,1,1.52975128624,3,300
2019_Oct_25,128,001,1,recog,82,OLDER,HF,lure,-,-,-,liberal,no,m,1,0.659161481006,1,301
2019_Oct_25,128,001,1,recog,83,RODENTS,LF,lure,-,-,-,conservative,no,m,1,1.12975810514,3,304
2019_Oct_25,128,001,1,recog,84,ECONOMIC,HF,target,right,aqua,pleasantness,liberal,no,z,1,0.870950180261,3,307
2019_Oct_25,128,001,1,recog,85,CALLED,HF,target,right,aqua,pleasantness,liberal,no,z,1,0.717948435943,3,310
2019_Oct_25,128,001,1,recog,86,CAKED,LF,target,left,yellow,imageability,liberal,no,z,1,0.623908884876,3,313
2019_Oct_25,128,001,1,recog,87,BUILDING,HF,target,left,yellow,imageability,conservative,no,z,1,0.706261726853,1,314
2019_Oct_25,128,001,1,recog,88,SKATES,LF,target,right,aqua,pleasantness,liberal,no,z,1,1.12975407246,3,317
2019_Oct_25,128,001,1,recog,89,PERHAPS,HF,lure,-,-,-,liberal,no,m,1,0.812107867614,1,318
2019_Oct_25,128,001,1,recog,90,MENFOLK,LF,lure,-,-,-,liberal,no,m,1,0.729794985838,1,319
2019_Oct_25,128,001,1,recog,91,OUGHT,HF,target,right,aqua,pleasantness,conservative,yes,m,0,1.32991252015,-1,318
2019_Oct_25,128,001,1,recog,92,SUMMER,HF,target,left,yellow,imageability,liberal,no,z,1,0.729826147463,3,321
2019_Oct_25,128,001,1,recog,93,TAWNY,LF,target,left,yellow,imageability,liberal,no,z,1,1.18861068279,3,324
2019_Oct_25,128,001,1,recog,94,LESSENED,LF,lure,-,-,-,conservative,no,m,1,0.894455943695,3,327
2019_Oct_25,128,001,1,recog,95,KENNEL,LF,target,left,yellow,imageability,conservative,no,z,1,0.635570298059,1,328
2019_Oct_25,128,001,2,source,0,ROUND,HF,target,left,yellow,imageability,liberal,no,3,1,4.22404474956,-,-
2019_Oct_25,128,001,2,source,1,HITCHING,LF,target,left,yellow,imageability,liberal,no,2,1,1.57689809122,-,-
2019_Oct_25,128,001,2,source,2,OOZED,LF,target,right,aqua,pleasantness,liberal,no,7,1,4.63558129628,-,-
2019_Oct_25,128,001,2,source,3,FOLLOWED,HF,target,left,yellow,imageability,conservative,no,3,1,2.14162445183,-,-
2019_Oct_25,128,001,2,source,4,GLASS,HF,target,right,aqua,pleasantness,liberal,no,8,1,3.6710230618,-,-
2019_Oct_25,128,001,2,source,5,JAILS,LF,target,left,yellow,imageability,conservative,no,2,1,1.84719292418,-,-
2019_Oct_25,128,001,2,source,6,BOILERS,LF,target,left,yellow,imageability,conservative,no,2,1,0.929867647415,-,-
2019_Oct_25,128,001,2,source,7,BUSINESS,HF,target,right,aqua,pleasantness,conservative,no,8,1,1.90627463143,-,-
2019_Oct_25,128,001,2,source,8,DERANGED,LF,target,right,aqua,pleasantness,conservative,no,9,1,1.18856082419,-,-
2019_Oct_25,128,001,2,source,9,LIMELIGHT,LF,target,left,yellow,imageability,conservative,no,3,1,4.42384282223,-,-
2019_Oct_25,128,001,2,source,10,POTASH,LF,target,left,yellow,imageability,conservative,no,2,1,1.25907041574,-,-
2019_Oct_25,128,001,2,source,11,MAJOR,HF,target,left,yellow,imageability,liberal,no,2,1,2.44754582042,-,-
2019_Oct_25,128,001,2,source,12,HOEING,LF,target,right,aqua,pleasantness,conservative,no,8,1,1.25894027013,-,-
2019_Oct_25,128,001,2,source,13,MORNING,HF,target,right,aqua,pleasantness,conservative,no,9,1,1.90628709608,-,-
2019_Oct_25,128,001,2,source,14,FURTHER,HF,target,left,yellow,imageability,liberal,no,3,1,2.62386085931,-,-
2019_Oct_25,128,001,2,source,15,VOICE,HF,target,right,aqua,pleasantness,liberal,no,7,1,2.03569839067,-,-
2019_Oct_25,128,001,2,source,16,WOBBLE,LF,target,right,aqua,pleasantness,liberal,no,2,0,2.08270405182,-,-
2019_Oct_25,128,001,2,source,17,INCLUDING,HF,target,right,aqua,pleasantness,liberal,no,7,1,2.49429119035,-,-
2019_Oct_25,128,001,2,source,18,ENAMELLED,LF,target,right,aqua,pleasantness,liberal,no,8,1,1.31777085134,-,-
2019_Oct_25,128,001,2,source,19,SOUND,HF,target,right,aqua,pleasantness,liberal,no,8,1,1.47066884578,-,-
2019_Oct_25,128,001,2,source,20,ADENOIDS,LF,target,left,yellow,imageability,conservative,no,2,1,3.94135675514,-,-
2019_Oct_25,128,001,2,source,21,SMUDGE,LF,target,right,aqua,pleasantness,conservative,no,1,0,4.51785524435,-,-
2019_Oct_25,128,001,2,source,22,SHORT,HF,target,right,aqua,pleasantness,liberal,no,7,1,3.09453190474,-,-
2019_Oct_25,128,001,2,source,23,RESEARCH,HF,target,right,aqua,pleasantness,conservative,no,8,1,2.02388263579,-,-
2019_Oct_25,128,001,2,source,24,GLEANED,LF,target,left,yellow,imageability,liberal,no,3,1,3.85918795006,-,-
2019_Oct_25,128,001,2,source,25,LOYALIST,LF,target,right,aqua,pleasantness,liberal,no,8,1,1.3180080463,-,-
2019_Oct_25,128,001,2,source,26,FAUCET,LF,target,left,yellow,imageability,liberal,no,2,1,1.30618275963,-,-
2019_Oct_25,128,001,2,source,27,MOTHER,HF,target,left,yellow,imageability,liberal,no,8,0,2.05926941021,-,-
2019_Oct_25,128,001,2,source,28,ARSENALS,LF,target,right,aqua,pleasantness,conservative,yes,7,1,1.87094614758,-,-
2019_Oct_25,128,001,2,source,29,LATER,HF,target,right,aqua,pleasantness,liberal,yes,3,0,0.941619612614,-,-
2019_Oct_25,128,001,2,source,30,PIECE,HF,target,left,yellow,imageability,conservative,no,2,1,2.62390155273,-,-
2019_Oct_25,128,001,2,source,31,ENLIGHTEN,LF,target,left,yellow,imageability,liberal,yes,3,1,1.89455162821,-,-
2019_Oct_25,128,001,2,source,32,NINETIES,LF,target,right,aqua,pleasantness,liberal,no,9,1,1.15328549841,-,-
2019_Oct_25,128,001,2,source,33,SOVIET,HF,target,left,yellow,imageability,conservative,no,3,1,5.16496377553,-,-
2019_Oct_25,128,001,2,source,34,AFRAID,HF,target,left,yellow,imageability,conservative,no,2,1,3.44754142113,-,-
2019_Oct_25,128,001,2,source,35,HURDLES,LF,target,right,aqua,pleasantness,conservative,no,9,1,1.63535509954,-,-
2019_Oct_25,128,001,2,source,36,EIDERDOWN,LF,target,left,yellow,imageability,conservative,no,1,1,2.02391343081,-,-
2019_Oct_25,128,001,2,source,37,LUNACY,LF,target,right,aqua,pleasantness,liberal,no,9,1,2.36485569968,-,-
2019_Oct_25,128,001,2,source,38,IRRIGATED,LF,target,right,aqua,pleasantness,conservative,no,7,1,2.65923956837,-,-
2019_Oct_25,128,001,2,source,39,ALTHOUGH,HF,target,right,aqua,pleasantness,conservative,no,8,1,1.45918083787,-,-
2019_Oct_25,128,001,2,source,40,DAMASK,LF,target,left,yellow,imageability,liberal,no,3,1,1.48272399526,-,-
2019_Oct_25,128,001,2,source,41,OTHERS,HF,target,left,yellow,imageability,conservative,no,2,1,1.11798084403,-,-
2019_Oct_25,128,001,2,source,42,WHATEVER,HF,target,left,yellow,imageability,liberal,no,1,1,2.10626260671,-,-
2019_Oct_25,128,001,2,source,43,BIJOU,LF,target,left,yellow,imageability,liberal,no,3,1,1.31776095294,-,-
2019_Oct_25,128,001,2,source,44,AMONG,HF,target,left,yellow,imageability,liberal,no,7,0,1.54165356045,-,-
2019_Oct_25,128,001,2,source,45,CERTAIN,HF,target,left,yellow,imageability,conservative,no,8,0,1.56486200533,-,-
2019_Oct_25,128,001,2,source,46,SEEMED,HF,target,right,aqua,pleasantness,conservative,yes,3,0,1.24718317243,-,-
2019_Oct_25,128,001,2,source,47,MIDDLE,HF,target,right,aqua,pleasantness,conservative,no,8,1,1.80037386618,-,-
2019_Oct_25,128,001,2,recog,0,OOZED,LF,target,right,aqua,pleasantness,liberal,no,z,1,1.15326643482,3,331
2019_Oct_25,128,001,2,recog,1,ERUDITE,LF,lure,-,-,-,conservative,no,m,1,2.5179923555,3,334
2019_Oct_25,128,001,2,recog,2,PARENTS,HF,lure,-,-,-,liberal,no,m,1,0.741444300979,1,335
2019_Oct_25,128,001,2,recog,3,LUNACY,LF,target,right,aqua,pleasantness,liberal,yes,z,1,1.11795554813,3,338
2019_Oct_25,128,001,2,recog,4,MIDDLE,HF,target,right,aqua,pleasantness,conservative,no,z,1,0.75313504275,1,339
2019_Oct_25,128,001,2,recog,5,HISTORY,HF,lure,-,-,-,conservative,no,m,1,0.764936133334,3,342
2019_Oct_25,128,001,2,recog,6,ROUND,HF,target,left,yellow,imageability,liberal,no,z,1,0.694454403944,3,345
2019_Oct_25,128,001,2,recog,7,IRRIGATED,LF,target,right,aqua,pleasantness,conservative,no,z,1,0.80027084951,1,346
2019_Oct_25,128,001,2,recog,8,FENCED,LF,lure,-,-,-,liberal,no,m,1,0.741429636685,1,347
2019_Oct_25,128,001,2,recog,9,SAVOURED,LF,lure,-,-,-,liberal,no,m,1,0.894471341204,1,348
2019_Oct_25,128,001,2,recog,10,ARSENALS,LF,target,right,aqua,pleasantness,conservative,no,z,1,1.29445022462,1,349
2019_Oct_25,128,001,2,recog,11,CHAIR,HF,lure,-,-,-,conservative,no,m,1,0.694522959519,3,352
2019_Oct_25,128,001,2,recog,12,DAMASK,LF,target,left,yellow,imageability,liberal,no,z,1,0.823868997996,3,355
2019_Oct_25,128,001,2,recog,13,VINEYARDS,LF,lure,-,-,-,conservative,no,m,1,0.635649851854,3,358
2019_Oct_25,128,001,2,recog,14,ANIMAL,HF,lure,-,-,-,conservative,no,m,1,0.941430443221,3,361
2019_Oct_25,128,001,2,recog,15,PROBABLY,HF,lure,-,-,-,conservative,no,z,0,1.04738693279,-3,358
2019_Oct_25,128,001,2,recog,16,EMBATTLED,LF,lure,-,-,-,liberal,no,z,0,2.35331783317,-1,357
2019_Oct_25,128,001,2,recog,17,POTASH,LF,target,left,yellow,imageability,conservative,no,z,1,0.635674781154,1,358
2019_Oct_25,128,001,2,recog,18,SLOWLY,HF,lure,-,-,-,conservative,no,m,1,2.04719703019,3,361
2019_Oct_25,128,001,2,recog,19,DERANGED,LF,target,right,aqua,pleasantness,conservative,no,z,1,0.71796823274,1,362
2019_Oct_25,128,001,2,recog,20,TOPICAL,LF,lure,-,-,-,conservative,no,m,1,0.69449509736,3,365
2019_Oct_25,128,001,2,recog,21,SMUDGE,LF,target,right,aqua,pleasantness,conservative,no,z,1,0.623688920466,1,366
2019_Oct_25,128,001,2,recog,22,ENAMELLED,LF,target,right,aqua,pleasantness,liberal,no,z,1,0.635634454345,3,369
2019_Oct_25,128,001,2,recog,23,UNDER,HF,lure,-,-,-,conservative,no,m,1,0.906204609428,3,372
2019_Oct_25,128,001,2,recog,24,HURDLES,LF,target,right,aqua,pleasantness,conservative,no,z,1,0.588602030858,1,373
2019_Oct_25,128,001,2,recog,25,EIDERDOWN,LF,target,left,yellow,imageability,conservative,no,z,1,0.694456236981,1,374
2019_Oct_25,128,001,2,recog,26,SOUND,HF,target,right,aqua,pleasantness,liberal,no,z,1,0.647425279923,3,377
2019_Oct_25,128,001,2,recog,27,BUSINESS,HF,target,right,aqua,pleasantness,conservative,no,z,1,0.765197524374,1,378
2019_Oct_25,128,001,2,recog,28,DEGREE,HF,lure,-,-,-,liberal,no,m,1,0.718080414589,1,379
2019_Oct_25,128,001,2,recog,29,UDDER,LF,lure,-,-,-,liberal,no,m,1,0.847162129168,1,380
2019_Oct_25,128,001,2,recog,30,WHATEVER,HF,target,left,yellow,imageability,liberal,no,z,1,0.61216205218,3,383
2019_Oct_25,128,001,2,recog,31,MAJOR,HF,target,left,yellow,imageability,liberal,no,z,1,0.776610011167,3,386
2019_Oct_25,128,001,2,recog,32,ENLIGHTEN,LF,target,left,yellow,imageability,liberal,no,z,1,1.83572397986,3,389
2019_Oct_25,128,001,2,recog,33,RAMBLE,LF,lure,-,-,-,liberal,no,m,1,0.729822847997,1,390
2019_Oct_25,128,001,2,recog,34,SHORT,HF,target,right,aqua,pleasantness,liberal,no,z,1,0.682658079256,3,393
2019_Oct_25,128,001,2,recog,35,IDOLATRY,LF,lure,-,-,-,conservative,no,m,1,0.682687774451,3,396
2019_Oct_25,128,001,2,recog,36,TEXTURES,LF,lure,-,-,-,liberal,no,m,1,1.28271475675,1,397
2019_Oct_25,128,001,2,recog,37,SHALL,HF,lure,-,-,-,liberal,no,m,1,0.823945985539,1,398
2019_Oct_25,128,001,2,recog,38,HOEING,LF,target,right,aqua,pleasantness,conservative,yes,m,0,1.08275977613,-1,397
2019_Oct_25,128,001,2,recog,39,LATER,HF,target,right,aqua,pleasantness,liberal,no,z,1,0.835594934073,3,400
2019_Oct_25,128,001,2,recog,40,FURTHER,HF,target,left,yellow,imageability,liberal,no,z,1,0.718048153142,3,403
2019_Oct_25,128,001,2,recog,41,SOVIET,HF,target,left,yellow,imageability,conservative,no,z,1,0.706221400044,1,404
2019_Oct_25,128,001,2,recog,42,BREAK,HF,lure,-,-,-,liberal,no,m,1,0.741539252282,1,405
2019_Oct_25,128,001,2,recog,43,SEEMED,HF,target,right,aqua,pleasantness,conservative,no,m,0,0.776726225697,-1,404
2019_Oct_25,128,001,2,recog,44,JAILS,LF,target,left,yellow,imageability,conservative,no,z,1,0.659253132843,1,405
2019_Oct_25,128,001,2,recog,45,EARLIER,HF,lure,-,-,-,conservative,no,z,0,1.49448219278,-3,402
2019_Oct_25,128,001,2,recog,46,AFIELD,LF,lure,-,-,-,conservative,no,m,1,0.894468774952,3,405
2019_Oct_25,128,001,2,recog,47,PHYSICAL,HF,lure,-,-,-,conservative,no,m,1,1.12974014138,3,408
2019_Oct_25,128,001,2,recog,48,OTHERS,HF,target,left,yellow,imageability,conservative,no,z,1,0.800321807932,1,409
2019_Oct_25,128,001,2,recog,49,CERTAIN,HF,target,left,yellow,imageability,conservative,no,z,1,1.2590982779,1,410
2019_Oct_25,128,001,2,recog,50,LIMELIGHT,LF,target,left,yellow,imageability,conservative,no,z,1,0.776781216799,1,411
2019_Oct_25,128,001,2,recog,51,FAUCET,LF,target,left,yellow,imageability,liberal,no,z,1,1.20035018334,3,414
2019_Oct_25,128,001,2,recog,52,INCLUDING,HF,target,right,aqua,pleasantness,liberal,no,z,1,1.01208777753,3,417
2019_Oct_25,128,001,2,recog,53,LONGER,HF,lure,-,-,-,liberal,no,m,1,0.917866389218,1,418
2019_Oct_25,128,001,2,recog,54,RETURN,HF,lure,-,-,-,liberal,no,m,1,2.77661477706,1,419
2019_Oct_25,128,001,2,recog,55,TELEPHONE,HF,lure,-,-,-,conservative,no,m,1,0.706225799332,3,422
2019_Oct_25,128,001,2,recog,56,LEPROSY,LF,lure,-,-,-,liberal,no,m,1,0.600398722153,1,423
2019_Oct_25,128,001,2,recog,57,PIECE,HF,target,left,yellow,imageability,conservative,no,z,1,0.647372121857,1,424
2019_Oct_25,128,001,2,recog,58,EBULLIENT,LF,lure,-,-,-,conservative,no,m,1,0.670781100951,3,427
2019_Oct_25,128,001,2,recog,59,WOBBLE,LF,target,right,aqua,pleasantness,liberal,no,z,1,0.600543532056,3,430
2019_Oct_25,128,001,2,recog,60,NINETIES,LF,target,right,aqua,pleasantness,liberal,no,z,1,0.682776126823,3,433
2019_Oct_25,128,001,2,recog,61,RESEARCH,HF,target,right,aqua,pleasantness,conservative,no,z,1,0.671109214529,1,434
2019_Oct_25,128,001,2,recog,62,SEGMENTED,LF,lure,-,-,-,liberal,no,m,1,0.741475829211,1,435
2019_Oct_25,128,001,2,recog,63,FOLLOWED,HF,target,left,yellow,imageability,conservative,no,z,1,0.729510865142,1,436
2019_Oct_25,128,001,2,recog,64,SPACE,HF,lure,-,-,-,liberal,no,m,1,0.941467103956,1,437
2019_Oct_25,128,001,2,recog,65,FULCRUM,LF,lure,-,-,-,conservative,yes,z,0,1.15330126252,-3,434
2019_Oct_25,128,001,2,recog,66,AFRAID,HF,target,left,yellow,imageability,conservative,no,z,1,0.788471591963,1,435
2019_Oct_25,128,001,2,recog,67,AMONG,HF,target,left,yellow,imageability,liberal,no,z,1,1.29449238447,3,438
2019_Oct_25,128,001,2,recog,68,ALTHOUGH,HF,target,right,aqua,pleasantness,conservative,no,z,1,0.623895320404,1,439
2019_Oct_25,128,001,2,recog,69,PREPARED,HF,lure,-,-,-,conservative,no,m,1,0.729706266859,3,442
2019_Oct_25,128,001,2,recog,70,WEEKS,HF,lure,-,-,-,liberal,no,z,0,0.470864614105,-1,441
2019_Oct_25,128,001,2,recog,71,HEALTH,HF,lure,-,-,-,liberal,no,m,1,1.43566187658,1,442
2019_Oct_25,128,001,2,recog,72,BOILERS,LF,target,left,yellow,imageability,conservative,no,z,1,0.729703700608,1,443
2019_Oct_25,128,001,2,recog,73,SPOKE,HF,lure,-,-,-,conservative,no,m,1,1.16501986645,3,446
2019_Oct_25,128,001,2,recog,74,GLEANED,LF,target,left,yellow,imageability,liberal,no,z,1,0.800344904194,3,449
2019_Oct_25,128,001,2,recog,75,MOTHER,HF,target,left,yellow,imageability,liberal,no,z,1,0.576810838673,3,452
2019_Oct_25,128,001,2,recog,76,LOYALIST,LF,target,right,aqua,pleasantness,liberal,no,z,1,0.635639586848,3,455
2019_Oct_25,128,001,2,recog,77,THUDDING,LF,lure,-,-,-,liberal,no,m,1,0.682900773322,1,456
2019_Oct_25,128,001,2,recog,78,VOICE,HF,target,right,aqua,pleasantness,liberal,no,z,1,0.588550339222,3,459
2019_Oct_25,128,001,2,recog,79,PORCHES,LF,lure,-,-,-,liberal,no,m,1,0.623838129657,1,460
2019_Oct_25,128,001,2,recog,80,MOSAICS,LF,lure,-,-,-,conservative,no,m,1,0.6709431414,3,463
2019_Oct_25,128,001,2,recog,81,HANDS,HF,lure,-,-,-,liberal,no,m,1,0.706154310899,1,464
2019_Oct_25,128,001,2,recog,82,GLASS,HF,target,right,aqua,pleasantness,liberal,no,z,1,0.6944522043,3,467
2019_Oct_25,128,001,2,recog,83,ASHEN,LF,lure,-,-,-,liberal,no,m,1,0.682708304463,1,468
2019_Oct_25,128,001,2,recog,84,RANGE,HF,lure,-,-,-,conservative,no,m,1,0.8473333348,3,471
2019_Oct_25,128,001,2,recog,85,REBATE,LF,lure,-,-,-,conservative,no,m,1,0.623847294841,3,474
2019_Oct_25,128,001,2,recog,86,HITCHING,LF,target,left,yellow,imageability,liberal,no,z,1,0.64754736017,3,477
2019_Oct_25,128,001,2,recog,87,VEHEMENCE,LF,lure,-,-,-,conservative,no,m,1,0.823540884418,3,480
2019_Oct_25,128,001,2,recog,88,FORCE,HF,lure,-,-,-,liberal,no,z,0,2.03574788266,-1,479
2019_Oct_25,128,001,2,recog,89,GRACES,LF,lure,-,-,-,conservative,no,m,1,0.753051089667,3,482
2019_Oct_25,128,001,2,recog,90,BEYOND,HF,lure,-,-,-,liberal,no,m,1,0.882638355781,1,483
2019_Oct_25,128,001,2,recog,91,BIJOU,LF,target,left,yellow,imageability,liberal,no,m,0,0.565007915053,-3,480
2019_Oct_25,128,001,2,recog,92,SPUDS,LF,lure,-,-,-,liberal,no,m,1,1.43578395682,1,481
2019_Oct_25,128,001,2,recog,93,SEQUEL,LF,lure,-,-,-,conservative,no,m,1,0.717779063348,3,484
2019_Oct_25,128,001,2,recog,94,ADENOIDS,LF,target,left,yellow,imageability,conservative,no,z,1,0.800332439544,1,485
2019_Oct_25,128,001,2,recog,95,MORNING,HF,target,right,aqua,pleasantness,conservative,yes,z,1,1.12969944796,1,486
2019_Oct_25,128,001,3,source,0,BAIZE,LF,target,right,aqua,pleasantness,liberal,no,2,0,4.50636247055,-,-
2019_Oct_25,128,001,3,source,1,GROUND,HF,target,right,aqua,pleasantness,conservative,no,8,1,2.78865929493,-,-
2019_Oct_25,128,001,3,source,2,HERSELF,HF,target,left,yellow,imageability,liberal,no,1,1,0.906410276151,-,-
2019_Oct_25,128,001,3,source,3,MOUTH,HF,target,right,aqua,pleasantness,liberal,no,9,1,1.35309053662,-,-
2019_Oct_25,128,001,3,source,4,OFTEN,HF,target,right,aqua,pleasantness,conservative,no,7,1,1.69446026966,-,-
2019_Oct_25,128,001,3,source,5,STOOD,HF,target,left,yellow,imageability,liberal,no,3,1,1.54147025678,-,-
2019_Oct_25,128,001,3,source,6,DIMMED,LF,target,left,yellow,imageability,conservative,no,2,1,1.5297142589,-,-
2019_Oct_25,128,001,3,source,7,EVIDENCE,HF,target,right,aqua,pleasantness,liberal,no,8,1,1.43543091394,-,-
2019_Oct_25,128,001,3,source,8,UNTIL,HF,target,left,yellow,imageability,conservative,yes,3,1,1.08272531504,-,-
2019_Oct_25,128,001,3,source,9,PHRASED,LF,target,left,yellow,imageability,liberal,no,2,1,7.81235789383,-,-
2019_Oct_25,128,001,3,source,10,HORDE,LF,target,left,yellow,imageability,liberal,no,1,1,1.43574546305,-,-
2019_Oct_25,128,001,3,source,11,ANVIL,LF,target,right,aqua,pleasantness,conservative,no,9,1,0.812049577045,-,-
2019_Oct_25,128,001,3,source,12,NEGATION,LF,target,left,yellow,imageability,conservative,no,8,0,0.953100654981,-,-
2019_Oct_25,128,001,3,source,13,TRADE,HF,target,right,aqua,pleasantness,liberal,no,8,1,1.87090398773,-,-
2019_Oct_25,128,001,3,source,14,TAILED,LF,target,left,yellow,imageability,liberal,no,2,1,4.05927564253,-,-
2019_Oct_25,128,001,3,source,15,SEDAN,LF,target,right,aqua,pleasantness,liberal,no,7,1,2.87098830743,-,-
2019_Oct_25,128,001,3,source,16,FALCON,LF,target,right,aqua,pleasantness,conservative,yes,7,1,1.40033522576,-,-
2019_Oct_25,128,001,3,source,17,HAPPEN,HF,target,left,yellow,imageability,conservative,no,2,1,5.14163948273,-,-
2019_Oct_25,128,001,3,source,18,LACING,LF,target,right,aqua,pleasantness,liberal,no,8,1,1.07067786432,-,-
2019_Oct_25,128,001,3,source,19,MOMENT,HF,target,right,aqua,pleasantness,liberal,no,7,1,1.29420863038,-,-
2019_Oct_25,128,001,3,source,20,TOILED,LF,target,left,yellow,imageability,liberal,no,3,1,1.61210852751,-,-
2019_Oct_25,128,001,3,source,21,INVOLVED,HF,target,left,yellow,imageability,liberal,no,3,1,0.965026758671,-,-
2019_Oct_25,128,001,3,source,22,MAKES,HF,target,left,yellow,imageability,liberal,no,2,1,1.71819113001,-,-
2019_Oct_25,128,001,3,source,23,AFFABLE,LF,target,right,aqua,pleasantness,liberal,yes,7,1,0.929471711477,-,-
2019_Oct_25,128,001,3,source,24,ANCHORAGE,LF,target,left,yellow,imageability,liberal,no,1,1,1.81223508036,-,-
2019_Oct_25,128,001,3,source,25,BESOTTED,LF,target,right,aqua,pleasantness,liberal,no,8,1,1.22362388432,-,-
2019_Oct_25,128,001,3,source,26,REPORT,HF,target,right,aqua,pleasantness,conservative,no,9,1,0.917995801613,-,-
2019_Oct_25,128,001,3,source,27,URBANE,LF,target,left,yellow,imageability,liberal,no,1,1,1.08293868052,-,-
2019_Oct_25,128,001,3,source,28,APART,HF,target,right,aqua,pleasantness,conservative,no,8,1,1.54146219142,-,-
2019_Oct_25,128,001,3,source,29,ACROSS,HF,target,right,aqua,pleasantness,conservative,no,8,1,0.941601648853,-,-
2019_Oct_25,128,001,3,source,30,RAKING,LF,target,right,aqua,pleasantness,conservative,no,2,0,1.20027429562,-,-
2019_Oct_25,128,001,3,source,31,JOTTED,LF,target,right,aqua,pleasantness,conservative,no,3,0,1.32980693724,-,-
2019_Oct_25,128,001,3,source,32,CUBED,LF,target,right,aqua,pleasantness,conservative,no,8,1,1.35325770957,-,-
2019_Oct_25,128,001,3,source,33,CADDIE,LF,target,left,yellow,imageability,conservative,no,1,1,1.15328403198,-,-
2019_Oct_25,128,001,3,source,34,HIMSELF,HF,target,right,aqua,pleasantness,conservative,no,9,1,1.08249838509,-,-
2019_Oct_25,128,001,3,source,35,PEOPLED,LF,target,right,aqua,pleasantness,conservative,no,7,1,1.9414645377,-,-
2019_Oct_25,128,001,3,source,36,TODAY,HF,target,right,aqua,pleasantness,liberal,no,7,1,2.94132705995,-,-
2019_Oct_25,128,001,3,source,37,WRITE,HF,target,left,yellow,imageability,conservative,no,3,1,1.63558166289,-,-
2019_Oct_25,128,001,3,source,38,BICEPS,LF,target,left,yellow,imageability,conservative,no,1,1,0.976834081579,-,-
2019_Oct_25,128,001,3,source,39,PILGRIM,LF,target,left,yellow,imageability,conservative,no,1,1,0.847165428634,-,-
2019_Oct_25,128,001,3,source,40,CORNER,HF,target,right,aqua,pleasantness,liberal,no,1,0,1.23570176345,-,-
2019_Oct_25,128,001,3,source,41,SINCE,HF,target,left,yellow,imageability,conservative,yes,8,0,1.56500094951,-,-
2019_Oct_25,128,001,3,source,42,SITTING,HF,target,left,yellow,imageability,liberal,no,3,1,6.12992307845,-,-
2019_Oct_25,128,001,3,source,43,POUNDS,HF,target,left,yellow,imageability,liberal,no,2,1,1.67106852111,-,-
2019_Oct_25,128,001,3,source,44,BELIEVE,HF,target,left,yellow,imageability,conservative,no,3,1,1.76480452129,-,-
2019_Oct_25,128,001,3,source,45,DUSTER,LF,target,left,yellow,imageability,conservative,no,3,1,1.34176420255,-,-
2019_Oct_25,128,001,3,source,46,EVENING,HF,target,left,yellow,imageability,conservative,no,7,0,1.23562880859,-,-
2019_Oct_25,128,001,3,source,47,VENDETTA,LF,target,right,aqua,pleasantness,liberal,no,9,1,1.00029695195,-,-
2019_Oct_25,128,001,3,recog,0,BILATERAL,LF,lure,-,-,-,liberal,no,m,1,1.10635755801,1,487
2019_Oct_25,128,001,3,recog,1,TRYING,HF,lure,-,-,-,conservative,no,m,1,2.17682132364,3,490
2019_Oct_25,128,001,3,recog,2,JEWELLED,LF,lure,-,-,-,liberal,no,m,1,0.800326940434,1,491
2019_Oct_25,128,001,3,recog,3,STAFF,HF,lure,-,-,-,conservative,no,m,1,0.612189181124,3,494
2019_Oct_25,128,001,3,recog,4,CUBED,LF,target,right,aqua,pleasantness,conservative,no,z,1,0.600134398254,1,495
2019_Oct_25,128,001,3,recog,5,HAPPEN,HF,target,left,yellow,imageability,conservative,no,z,1,0.847219319914,1,496
2019_Oct_25,128,001,3,recog,6,YELLOWED,LF,lure,-,-,-,conservative,no,m,1,0.635580563065,3,499
2019_Oct_25,128,001,3,recog,7,ALMOST,HF,lure,-,-,-,liberal,no,z,0,0.870857795209,-1,498
2019_Oct_25,128,001,3,recog,8,WRITE,HF,target,left,yellow,imageability,conservative,no,z,1,0.788512651986,1,499
2019_Oct_25,128,001,3,recog,9,STOOD,HF,target,left,yellow,imageability,liberal,no,z,1,0.729471638156,3,502
2019_Oct_25,128,001,3,recog,10,POUNDS,HF,target,left,yellow,imageability,liberal,no,z,1,0.588561337443,3,505
2019_Oct_25,128,001,3,recog,11,MEANS,HF,lure,-,-,-,liberal,no,m,1,0.741376112011,1,506
2019_Oct_25,128,001,3,recog,12,HOWEVER,HF,lure,-,-,-,liberal,no,m,1,0.705942778458,1,507
2019_Oct_25,128,001,3,recog,13,GROUND,HF,target,right,aqua,pleasantness,conservative,no,z,1,0.659245434089,1,508
2019_Oct_25,128,001,3,recog,14,GIPSY,LF,lure,-,-,-,conservative,no,m,1,0.600322467825,3,511
2019_Oct_25,128,001,3,recog,15,MAKES,HF,target,left,yellow,imageability,liberal,no,z,1,1.02356515383,3,514
2019_Oct_25,128,001,3,recog,16,MYSELF,HF,lure,-,-,-,conservative,yes,m,1,0.988741854901,3,517
2019_Oct_25,128,001,3,recog,17,ANCHORAGE,LF,target,left,yellow,imageability,liberal,no,z,1,0.635694577951,3,520
2019_Oct_25,128,001,3,recog,18,BACHELORS,LF,lure,-,-,-,liberal,no,m,1,0.729494734419,1,521
2019_Oct_25,128,001,3,recog,19,BROUGHT,HF,lure,-,-,-,liberal,no,m,1,0.941500831832,1,522
2019_Oct_25,128,001,3,recog,20,TODAY,HF,target,right,aqua,pleasantness,liberal,no,z,1,0.635727572612,3,525
2019_Oct_25,128,001,3,recog,21,SOMEONE,HF,lure,-,-,-,conservative,no,m,1,0.553317539889,3,528
2019_Oct_25,128,001,3,recog,22,CADDIE,LF,target,left,yellow,imageability,conservative,no,z,1,0.647168288171,1,529
2019_Oct_25,128,001,3,recog,23,CORNER,HF,target,right,aqua,pleasantness,liberal,no,z,1,0.74153815246,3,532
2019_Oct_25,128,001,3,recog,24,VENDETTA,LF,target,right,aqua,pleasantness,liberal,no,z,1,0.670633358189,3,535
2019_Oct_25,128,001,3,recog,25,CLEAR,HF,lure,-,-,-,liberal,no,m,1,0.706149178397,1,536
2019_Oct_25,128,001,3,recog,26,MOUTH,HF,target,right,aqua,pleasantness,liberal,no,z,1,0.658982210012,3,539
2019_Oct_25,128,001,3,recog,27,DUSTER,LF,target,left,yellow,imageability,conservative,no,z,1,0.670580200124,1,540
2019_Oct_25,128,001,3,recog,28,TERMS,HF,lure,-,-,-,conservative,no,m,1,0.70611141784,3,543
2019_Oct_25,128,001,3,recog,29,REPORT,HF,target,right,aqua,pleasantness,conservative,no,z,1,0.600487441132,1,544
2019_Oct_25,128,001,3,recog,30,TWENTY,HF,lure,-,-,-,conservative,yes,m,1,0.882904879324,3,547
2019_Oct_25,128,001,3,recog,31,ARDENTLY,LF,lure,-,-,-,liberal,no,m,1,0.906430439555,1,548
2019_Oct_25,128,001,3,recog,32,LIKELY,HF,lure,-,-,-,conservative,no,m,1,2.0472028959,3,551
2019_Oct_25,128,001,3,recog,33,NIGHT,HF,lure,-,-,-,liberal,no,m,1,1.16497074107,1,552
2019_Oct_25,128,001,3,recog,34,HIMSELF,HF,target,right,aqua,pleasantness,conservative,no,z,1,0.847633219611,1,553
2019_Oct_25,128,001,3,recog,35,MOMENT,HF,target,right,aqua,pleasantness,liberal,no,z,1,2.27074502679,3,556
2019_Oct_25,128,001,3,recog,36,SEDAN,LF,target,right,aqua,pleasantness,liberal,no,z,1,0.670664153206,3,559
2019_Oct_25,128,001,3,recog,37,ACROSS,HF,target,right,aqua,pleasantness,conservative,no,z,1,0.835712615032,1,560
2019_Oct_25,128,001,3,recog,38,OPENED,HF,lure,-,-,-,liberal,no,m,1,1.42384428866,1,561
2019_Oct_25,128,001,3,recog,39,BAIZE,LF,target,right,aqua,pleasantness,liberal,no,z,1,0.870923417924,3,564
2019_Oct_25,128,001,3,recog,40,EVENING,HF,target,left,yellow,imageability,conservative,no,z,1,0.823875963536,1,565
2019_Oct_25,128,001,3,recog,41,DIFFERENT,HF,lure,-,-,-,liberal,yes,m,1,0.988527022994,1,566
2019_Oct_25,128,001,3,recog,42,RAKING,LF,target,right,aqua,pleasantness,conservative,no,z,1,0.976815017997,1,567
2019_Oct_25,128,001,3,recog,43,BATCHES,LF,lure,-,-,-,conservative,no,z,0,2.42392824174,-3,564
2019_Oct_25,128,001,3,recog,44,BESOTTED,LF,target,right,aqua,pleasantness,liberal,no,z,1,1.07094218822,3,567
2019_Oct_25,128,001,3,recog,45,PILGRIM,LF,target,left,yellow,imageability,conservative,no,z,1,0.682464877183,1,568
2019_Oct_25,128,001,3,recog,46,TOILED,LF,target,left,yellow,imageability,liberal,no,z,1,0.694431307681,3,571
2019_Oct_25,128,001,3,recog,47,SIMILAR,HF,lure,-,-,-,liberal,no,m,1,0.694249837043,1,572
2019_Oct_25,128,001,3,recog,48,DYNAMISM,LF,lure,-,-,-,liberal,no,m,1,0.600477909341,1,573
2019_Oct_25,128,001,3,recog,49,PHRASED,LF,target,left,yellow,imageability,liberal,no,m,0,0.835705649493,-3,570
2019_Oct_25,128,001,3,recog,50,UNTIL,HF,target,left,yellow,imageability,conservative,no,m,0,1.21223229415,-1,569
2019_Oct_25,128,001,3,recog,51,SITTING,HF,target,left,yellow,imageability,liberal,no,z,1,0.82382280547,3,572
2019_Oct_25,128,001,3,recog,52,FALCON,LF,target,right,aqua,pleasantness,conservative,no,z,1,0.776808345743,1,573
2019_Oct_25,128,001,3,recog,53,VISCOUS,LF,lure,-,-,-,liberal,no,m,1,0.647398150979,1,574
2019_Oct_25,128,001,3,recog,54,FIVER,LF,lure,-,-,-,conservative,no,m,1,0.859156055217,3,577
2019_Oct_25,128,001,3,recog,55,RECENT,HF,lure,-,-,-,conservative,no,m,1,0.976584055366,3,580
2019_Oct_25,128,001,3,recog,56,HERSELF,HF,target,left,yellow,imageability,liberal,no,z,1,0.623883222361,3,583
2019_Oct_25,128,001,3,recog,57,HORDE,LF,target,left,yellow,imageability,liberal,yes,z,1,0.717957234519,3,586
2019_Oct_25,128,001,3,recog,58,ANYONE,HF,lure,-,-,-,liberal,no,m,1,1.10624684259,1,587
2019_Oct_25,128,001,3,recog,59,MASKING,LF,lure,-,-,-,conservative,no,z,0,1.34153140689,-3,584
2019_Oct_25,128,001,3,recog,60,POWER,HF,lure,-,-,-,liberal,no,z,0,0.82376341508,-1,583
2019_Oct_25,128,001,3,recog,61,JOTTED,LF,target,right,aqua,pleasantness,conservative,no,z,1,0.929684710347,1,584
2019_Oct_25,128,001,3,recog,62,BELIEVE,HF,target,left,yellow,imageability,conservative,no,z,1,0.824165949949,1,585
2019_Oct_25,128,001,3,recog,63,AFFABLE,LF,target,right,aqua,pleasantness,liberal,no,z,1,0.894508001938,3,588
2019_Oct_25,128,001,3,recog,64,TRADE,HF,target,right,aqua,pleasantness,liberal,no,z,1,0.906148518503,3,591
2019_Oct_25,128,001,3,recog,65,WIZENED,LF,lure,-,-,-,liberal,no,m,1,0.72972972973,1,592
2019_Oct_25,128,001,3,recog,66,TAILED,LF,target,left,yellow,imageability,liberal,no,z,1,0.694554854358,3,595
2019_Oct_25,128,001,3,recog,67,DUCHY,LF,lure,-,-,-,conservative,no,m,1,0.588692216266,3,598
2019_Oct_25,128,001,3,recog,68,APART,HF,target,right,aqua,pleasantness,conservative,no,z,1,0.600416319306,1,599
2019_Oct_25,128,001,3,recog,69,EVIDENCE,HF,target,right,aqua,pleasantness,liberal,no,z,1,0.623882489147,3,602
2019_Oct_25,128,001,3,recog,70,BEFALL,LF,lure,-,-,-,liberal,no,m,1,0.576784076336,1,603
2019_Oct_25,128,001,3,recog,71,BICEPS,LF,target,left,yellow,imageability,conservative,no,z,1,0.600067309109,1,604
2019_Oct_25,128,001,3,recog,72,URBANE,LF,target,left,yellow,imageability,liberal,no,z,1,0.659184943876,3,607
2019_Oct_25,128,001,3,recog,73,WHITE,HF,lure,-,-,-,conservative,no,m,1,0.576919721056,3,610
2019_Oct_25,128,001,3,recog,74,MAYBE,HF,lure,-,-,-,conservative,no,z,0,1.09450220954,-3,607
2019_Oct_25,128,001,3,recog,75,TIPSY,LF,lure,-,-,-,liberal,no,m,1,0.84743561825,1,608
2019_Oct_25,128,001,3,recog,76,LACING,LF,target,right,aqua,pleasantness,liberal,no,z,1,1.71805878476,3,611
2019_Oct_25,128,001,3,recog,77,OFTEN,HF,target,right,aqua,pleasantness,conservative,no,z,1,0.694231506675,1,612
2019_Oct_25,128,001,3,recog,78,ACIDITY,LF,lure,-,-,-,conservative,no,m,1,0.647091300627,3,615
2019_Oct_25,128,001,3,recog,79,CENTRAL,HF,lure,-,-,-,liberal,no,m,1,0.623771040512,1,616
2019_Oct_25,128,001,3,recog,80,DOING,HF,lure,-,-,-,conservative,no,m,1,1.16481200009,3,619
2019_Oct_25,128,001,3,recog,81,FOAMING,LF,lure,-,-,-,conservative,no,m,1,0.600369393565,3,622
2019_Oct_25,128,001,3,recog,82,SINCE,HF,target,left,yellow,imageability,conservative,no,z,1,0.871138616439,1,623
2019_Oct_25,128,001,3,recog,83,ROMANCES,LF,lure,-,-,-,liberal,no,m,1,0.600254278857,1,624
2019_Oct_25,128,001,3,recog,84,ROOFED,LF,lure,-,-,-,conservative,no,m,1,0.670928477106,3,627
2019_Oct_25,128,001,3,recog,85,GALACTIC,LF,lure,-,-,-,conservative,no,m,1,0.553007390071,3,630
2019_Oct_25,128,001,3,recog,86,YEOMAN,LF,lure,-,-,-,conservative,no,m,1,0.788596605069,3,633
2019_Oct_25,128,001,3,recog,87,SNOBBISH,LF,lure,-,-,-,liberal,no,m,1,0.870904354342,1,634
2019_Oct_25,128,001,3,recog,88,TWAIN,LF,lure,-,-,-,liberal,no,m,1,0.965024925634,1,635
2019_Oct_25,128,001,3,recog,89,DIMMED,LF,target,left,yellow,imageability,conservative,no,z,1,0.823931687853,1,636
2019_Oct_25,128,001,3,recog,90,NEGATION,LF,target,left,yellow,imageability,conservative,no,z,1,0.929875712776,1,637
2019_Oct_25,128,001,3,recog,91,PEOPLED,LF,target,right,aqua,pleasantness,conservative,no,z,1,0.635467648001,1,638
2019_Oct_25,128,001,3,recog,92,INVOLVED,HF,target,left,yellow,imageability,liberal,no,m,0,0.835719947179,-3,635
2019_Oct_25,128,001,3,recog,93,JEERED,LF,lure,-,-,-,conservative,no,m,1,0.670872752789,3,638
2019_Oct_25,128,001,3,recog,94,USUAL,HF,lure,-,-,-,conservative,no,m,1,1.17664021961,3,641
2019_Oct_25,128,001,3,recog,95,ANVIL,LF,target,right,aqua,pleasantness,conservative,no,z,1,0.717743135827,1,642
