date,subj,session,cycle,task,trial,item,wf,type,source,colour,encoding,bias,null,response,corr,rt,points,total
2019_Oct_29,129,001,0,source,0,PLACE,HF,target,right,yellow,imageability,conservative,no,9,1,2.18856054146,-,-
2019_Oct_29,129,001,0,source,1,VALUE,HF,target,left,aqua,pleasantness,conservative,no,1,1,2.07094973337,-,-
2019_Oct_29,129,001,0,source,2,REPORT,HF,target,left,aqua,pleasantness,conservative,no,8,0,1.92989968963,-,-
2019_Oct_29,129,001,0,source,3,CIPHER,LF,target,left,aqua,pleasantness,liberal,no,1,1,1.3650080983,-,-
2019_Oct_29,129,001,0,source,4,BLUECOATS,LF,target,left,aqua,pleasantness,liberal,no,1,1,1.17683395815,-,-
2019_Oct_29,129,001,0,source,5,COVER,HF,target,left,aqua,pleasantness,liberal,no,1,1,1.36494357588,-,-
2019_Oct_29,129,001,0,source,6,TURNED,HF,target,right,yellow,imageability,conservative,no,9,1,0.776770022297,-,-
2019_Oct_29,129,001,0,source,7,REACHED,HF,target,left,aqua,pleasantness,conservative,no,1,1,0.847359016678,-,-
2019_Oct_29,129,001,0,source,8,YELLOWED,LF,target,right,yellow,imageability,liberal,no,9,1,0.706200457963,-,-
2019_Oct_29,129,001,0,source,9,DIFFERENT,HF,target,right,yellow,imageability,conservative,no,9,1,2.28266172581,-,-
2019_Oct_29,129,001,0,source,10,BRING,HF,target,right,yellow,imageability,liberal,no,9,1,1.85887590212,-,-
2019_Oct_29,129,001,0,source,11,SEVEN,HF,target,right,yellow,imageability,conservative,no,8,1,1.95316735429,-,-
2019_Oct_29,129,001,0,source,12,JEOPARDY,LF,target,right,yellow,imageability,conservative,no,8,1,0.847338120213,-,-
2019_Oct_29,129,001,0,source,13,THUDDING,LF,target,right,yellow,imageability,conservative,no,8,1,0.800341602224,-,-
2019_Oct_29,129,001,0,source,14,AREAS,HF,target,right,yellow,imageability,liberal,no,8,1,0.80025874957,-,-
2019_Oct_29,129,001,0,source,15,MALIGNED,LF,target,left,aqua,pleasantness,liberal,no,1,1,1.12965670406,-,-
2019_Oct_29,129,001,0,source,16,BUSINESS,HF,target,left,aqua,pleasantness,conservative,no,1,1,1.88278402513,-,-
2019_Oct_29,129,001,0,source,17,JADED,LF,target,left,aqua,pleasantness,conservative,no,1,1,0.752981045806,-,-
2019_Oct_29,129,001,0,source,18,UNBEATEN,LF,target,left,aqua,pleasantness,conservative,no,1,1,0.847378080121,-,-
2019_Oct_29,129,001,0,source,19,COUNCIL,HF,target,left,aqua,pleasantness,liberal,no,1,1,1.57696204982,-,-
2019_Oct_29,129,001,0,source,20,CHROMIUM,LF,target,left,aqua,pleasantness,conservative,yes,9,0,2.40026520181,-,-
2019_Oct_29,129,001,0,source,21,BOOKS,HF,target,left,aqua,pleasantness,liberal,no,1,1,2.75322850395,-,-
2019_Oct_29,129,001,0,source,22,WEBBED,LF,target,right,yellow,imageability,liberal,no,2,0,1.64733144801,-,-
2019_Oct_29,129,001,0,source,23,BUMBLING,LF,target,right,yellow,imageability,conservative,no,9,1,1.48274795123,-,-
2019_Oct_29,129,001,0,source,24,BEAUTIFUL,HF,target,left,aqua,pleasantness,liberal,no,1,1,1.22384807316,-,-
2019_Oct_29,129,001,0,source,25,ECONOMIC,HF,target,right,yellow,imageability,liberal,yes,1,0,1.4355750964,-,-
2019_Oct_29,129,001,0,source,26,EVENING,HF,target,right,yellow,imageability,liberal,no,9,1,1.64738973815,-,-
2019_Oct_29,129,001,0,source,27,HAWKED,LF,target,left,aqua,pleasantness,liberal,no,8,0,1.48264493532,-,-
2019_Oct_29,129,001,0,source,28,SPUDS,LF,target,left,aqua,pleasantness,liberal,no,8,0,0.91804002883,-,-
2019_Oct_29,129,001,0,source,29,URCHIN,LF,target,left,aqua,pleasantness,conservative,no,2,1,1.81216460256,-,-
2019_Oct_29,129,001,0,source,30,BUBBLED,LF,target,right,yellow,imageability,liberal,no,8,1,0.941196245675,-,-
2019_Oct_29,129,001,0,source,31,REBATE,LF,target,left,aqua,pleasantness,conservative,no,2,1,1.38855841515,-,-
2019_Oct_29,129,001,0,source,32,MYSELF,HF,target,right,yellow,imageability,conservative,no,1,0,1.1531894239,-,-
2019_Oct_29,129,001,0,source,33,RINSING,LF,target,right,yellow,imageability,liberal,no,8,1,2.02400857268,-,-
2019_Oct_29,129,001,0,source,34,OCCUPANCY,LF,target,right,yellow,imageability,conservative,no,9,1,1.52972833861,-,-
2019_Oct_29,129,001,0,source,35,FABLE,LF,target,right,yellow,imageability,liberal,no,9,1,1.15324551441,-,-
2019_Oct_29,129,001,0,source,36,GIRLS,HF,target,left,aqua,pleasantness,conservative,no,1,1,1.97685478129,-,-
2019_Oct_29,129,001,0,source,37,KRAALS,LF,target,right,yellow,imageability,conservative,yes,1,0,1.12952106034,-,-
2019_Oct_29,129,001,0,source,38,POWER,HF,target,right,yellow,imageability,conservative,no,9,1,3.15325101348,-,-
2019_Oct_29,129,001,0,source,39,TEMERITY,LF,target,left,aqua,pleasantness,liberal,no,3,1,2.94146679992,-,-
2019_Oct_29,129,001,0,source,40,ENERGY,HF,target,left,aqua,pleasantness,conservative,no,1,1,1.31803687603,-,-
2019_Oct_29,129,001,0,source,41,PARENTS,HF,target,left,aqua,pleasantness,liberal,no,1,1,1.17653040949,-,-
2019_Oct_29,129,001,0,source,42,IGNOBLE,LF,target,right,yellow,imageability,conservative,no,8,1,1.76505956959,-,-
2019_Oct_29,129,001,0,source,43,TWAIN,LF,target,right,yellow,imageability,liberal,yes,9,1,1.01201326816,-,-
2019_Oct_29,129,001,0,source,44,GETTING,HF,target,right,yellow,imageability,liberal,no,9,1,2.77681401486,-,-
2019_Oct_29,129,001,0,source,45,MOVED,HF,target,left,aqua,pleasantness,liberal,no,1,1,2.188571173,-,-
2019_Oct_29,129,001,0,source,46,HOWEVER,HF,target,right,yellow,imageability,liberal,no,9,1,1.24738409244,-,-
2019_Oct_29,129,001,0,source,47,LIMELIGHT,LF,target,left,aqua,pleasantness,conservative,no,1,1,0.965063675564,-,-
2019_Oct_29,129,001,0,recog,0,GIRLS,HF,target,left,aqua,pleasantness,conservative,no,z,1,1.64738130624,1,1
2019_Oct_29,129,001,0,recog,1,KITCHEN,HF,lure,-,-,-,liberal,yes,z,0,1.2473419329,-1,0
2019_Oct_29,129,001,0,recog,2,HATCHES,LF,lure,-,-,-,liberal,no,m,1,2.88266121257,1,1
2019_Oct_29,129,001,0,recog,3,TROUBLE,HF,lure,-,-,-,liberal,no,m,1,1.0357120599,1,2
2019_Oct_29,129,001,0,recog,4,PLACE,HF,target,right,yellow,imageability,conservative,no,z,1,1.48243487085,1,3
2019_Oct_29,129,001,0,recog,5,VILLAGE,HF,lure,-,-,-,conservative,no,m,1,1.61206481277,3,6
2019_Oct_29,129,001,0,recog,6,BEYOND,HF,lure,-,-,-,liberal,no,m,1,1.1299661184,1,7
2019_Oct_29,129,001,0,recog,7,DIFFERENT,HF,target,right,yellow,imageability,conservative,no,z,1,0.953266337553,1,8
2019_Oct_29,129,001,0,recog,8,FABLE,LF,target,right,yellow,imageability,liberal,no,z,1,1.0355232585,3,11
2019_Oct_29,129,001,0,recog,9,BUSINESS,HF,target,left,aqua,pleasantness,conservative,yes,z,1,1.70616966317,1,12
2019_Oct_29,129,001,0,recog,10,IMPORTANT,HF,lure,-,-,-,liberal,no,m,1,2.28258107279,1,13
2019_Oct_29,129,001,0,recog,11,ASSERTIVE,LF,lure,-,-,-,conservative,no,m,1,0.964746195927,3,16
2019_Oct_29,129,001,0,recog,12,WEEKS,HF,lure,-,-,-,liberal,no,m,1,0.95317248676,1,17
2019_Oct_29,129,001,0,recog,13,VACATED,LF,lure,-,-,-,conservative,no,m,1,0.788524467562,3,20
2019_Oct_29,129,001,0,recog,14,BUMBLING,LF,target,right,yellow,imageability,conservative,no,z,1,0.764885798982,1,21
2019_Oct_29,129,001,0,recog,15,SENSE,HF,lure,-,-,-,conservative,no,m,1,0.694365726277,3,24
2019_Oct_29,129,001,0,recog,16,KRAALS,LF,target,right,yellow,imageability,conservative,no,z,1,0.953323527881,1,25
2019_Oct_29,129,001,0,recog,17,HOWEVER,HF,target,right,yellow,imageability,liberal,no,z,1,1.63563089363,3,28
2019_Oct_29,129,001,0,recog,18,UPROOTED,LF,lure,-,-,-,conservative,no,m,1,1.9651369965,3,31
2019_Oct_29,129,001,0,recog,19,RINSING,LF,target,right,yellow,imageability,liberal,no,z,1,2.35326098513,3,34
2019_Oct_29,129,001,0,recog,20,URCHIN,LF,target,left,aqua,pleasantness,conservative,no,z,1,1.67086196821,1,35
2019_Oct_29,129,001,0,recog,21,BLUECOATS,LF,target,left,aqua,pleasantness,liberal,no,z,1,1.2120305719,3,38
2019_Oct_29,129,001,0,recog,22,BASIC,HF,lure,-,-,-,conservative,no,m,1,1.51774733167,3,41
2019_Oct_29,129,001,0,recog,23,TWAIN,LF,target,right,yellow,imageability,liberal,no,m,0,1.78858715696,-3,38
2019_Oct_29,129,001,0,recog,24,WOMAN,HF,lure,-,-,-,conservative,no,m,1,1.09460636558,3,41
2019_Oct_29,129,001,0,recog,25,MALIGNED,LF,target,left,aqua,pleasantness,liberal,no,z,1,0.847319423375,3,44
2019_Oct_29,129,001,0,recog,26,MYSELF,HF,target,right,yellow,imageability,conservative,no,z,1,0.764968285031,1,45
2019_Oct_29,129,001,0,recog,27,SEVEN,HF,target,right,yellow,imageability,conservative,no,z,1,0.670932722912,1,46
2019_Oct_29,129,001,0,recog,28,HINDERED,LF,lure,-,-,-,liberal,no,m,1,0.764975617124,1,47
2019_Oct_29,129,001,0,recog,29,GETTING,HF,target,right,yellow,imageability,liberal,no,z,1,0.800227588174,3,50
2019_Oct_29,129,001,0,recog,30,BUOYANCY,LF,lure,-,-,-,conservative,no,m,1,0.8473843124,3,53
2019_Oct_29,129,001,0,recog,31,TOWARDS,HF,lure,-,-,-,conservative,no,m,1,1.37688022366,3,56
2019_Oct_29,129,001,0,recog,32,ROUND,HF,lure,-,-,-,liberal,no,m,1,1.6591350183,1,57
2019_Oct_29,129,001,0,recog,33,SUBJECT,HF,lure,-,-,-,liberal,no,m,1,0.68259148436,1,58
2019_Oct_29,129,001,0,recog,34,BRING,HF,target,right,yellow,imageability,liberal,no,z,1,0.671007876868,3,61
2019_Oct_29,129,001,0,recog,35,DOWDY,LF,lure,-,-,-,conservative,no,m,1,0.62383685506,3,64
2019_Oct_29,129,001,0,recog,36,TEMERITY,LF,target,left,aqua,pleasantness,liberal,no,z,1,1.4121003001,3,67
2019_Oct_29,129,001,0,recog,37,WEBBED,LF,target,right,yellow,imageability,liberal,no,z,1,0.706303107268,3,70
2019_Oct_29,129,001,0,recog,38,ECONOMIC,HF,target,right,yellow,imageability,liberal,no,z,1,0.812044356231,3,73
2019_Oct_29,129,001,0,recog,39,HAWKED,LF,target,left,aqua,pleasantness,liberal,no,z,1,0.576824939675,3,76
2019_Oct_29,129,001,0,recog,40,ABUSING,LF,lure,-,-,-,liberal,no,m,1,0.788506870538,1,77
2019_Oct_29,129,001,0,recog,41,JEOPARDY,LF,target,right,yellow,imageability,conservative,no,z,1,0.74150961934,1,78
2019_Oct_29,129,001,0,recog,42,IGNOBLE,LF,target,right,yellow,imageability,conservative,no,z,1,0.9532542396,1,79
2019_Oct_29,129,001,0,recog,43,REBATE,LF,target,left,aqua,pleasantness,conservative,no,z,1,0.800192760731,1,80
2019_Oct_29,129,001,0,recog,44,WOBBLE,LF,lure,-,-,-,conservative,no,m,1,0.706148033496,3,83
2019_Oct_29,129,001,0,recog,45,UNBEATEN,LF,target,left,aqua,pleasantness,conservative,no,z,1,0.823866989963,1,84
2019_Oct_29,129,001,0,recog,46,AREAS,HF,target,right,yellow,imageability,liberal,no,z,1,0.800021556354,3,87
2019_Oct_29,129,001,0,recog,47,ESCALATED,LF,lure,-,-,-,liberal,no,m,1,0.765157086431,1,88
2019_Oct_29,129,001,0,recog,48,REACHED,HF,target,left,aqua,pleasantness,conservative,no,z,1,0.611967662536,1,89
2019_Oct_29,129,001,0,recog,49,INDEED,HF,lure,-,-,-,liberal,no,z,0,1.40033962256,-1,88
2019_Oct_29,129,001,0,recog,50,VALUE,HF,target,left,aqua,pleasantness,conservative,no,z,1,1.78856039482,1,89
2019_Oct_29,129,001,0,recog,51,MYRIADS,LF,lure,-,-,-,conservative,no,m,1,0.929592474926,3,92
2019_Oct_29,129,001,0,recog,52,POWER,HF,target,right,yellow,imageability,conservative,no,z,1,0.929683759487,1,93
2019_Oct_29,129,001,0,recog,53,LIMELIGHT,LF,target,left,aqua,pleasantness,conservative,no,z,1,0.917894853384,1,94
2019_Oct_29,129,001,0,recog,54,ENERGY,HF,target,left,aqua,pleasantness,conservative,no,z,1,0.682403049564,1,95
2019_Oct_29,129,001,0,recog,55,PARENTS,HF,target,left,aqua,pleasantness,liberal,no,z,1,0.918064224737,3,98
2019_Oct_29,129,001,0,recog,56,BOOKS,HF,target,left,aqua,pleasantness,liberal,no,z,1,0.635624294744,3,101
2019_Oct_29,129,001,0,recog,57,JADED,LF,target,left,aqua,pleasantness,conservative,no,z,1,0.57676005065,1,102
2019_Oct_29,129,001,0,recog,58,GRUBS,LF,lure,-,-,-,liberal,no,m,1,0.670872966352,1,103
2019_Oct_29,129,001,0,recog,59,FULCRUM,LF,lure,-,-,-,liberal,no,m,1,1.14153432849,1,104
2019_Oct_29,129,001,0,recog,60,GLIDED,LF,lure,-,-,-,liberal,no,m,1,0.694428415674,1,105
2019_Oct_29,129,001,0,recog,61,ANYONE,HF,lure,-,-,-,conservative,no,m,1,1.24745008128,3,108
2019_Oct_29,129,001,0,recog,62,WRITE,HF,lure,-,-,-,liberal,no,m,1,2.74158294027,1,109
2019_Oct_29,129,001,0,recog,63,ROYALS,LF,lure,-,-,-,conservative,no,m,1,0.753213106557,3,112
2019_Oct_29,129,001,0,recog,64,SPACE,HF,lure,-,-,-,conservative,no,z,0,0.564766579146,-3,109
2019_Oct_29,129,001,0,recog,65,MINISTER,HF,lure,-,-,-,conservative,no,m,1,2.07069567634,3,112
2019_Oct_29,129,001,0,recog,66,SKYLIGHT,LF,lure,-,-,-,liberal,no,m,1,1.36505062444,1,113
2019_Oct_29,129,001,0,recog,67,BUBBLED,LF,target,right,yellow,imageability,liberal,no,z,1,0.823600468374,3,116
2019_Oct_29,129,001,0,recog,68,COUNCIL,HF,target,left,aqua,pleasantness,liberal,no,z,1,0.823849392939,3,119
2019_Oct_29,129,001,0,recog,69,BUILDING,HF,lure,-,-,-,liberal,no,m,1,1.28270535177,1,120
2019_Oct_29,129,001,0,recog,70,INCLUDING,HF,lure,-,-,-,liberal,no,m,1,0.623890745945,1,121
2019_Oct_29,129,001,0,recog,71,MOVED,HF,target,left,aqua,pleasantness,liberal,no,m,0,0.835743147976,-3,118
2019_Oct_29,129,001,0,recog,72,TRUTH,HF,lure,-,-,-,conservative,no,m,1,1.89450364295,3,121
2019_Oct_29,129,001,0,recog,73,SPUDS,LF,target,left,aqua,pleasantness,liberal,no,z,1,0.729446126345,3,124
2019_Oct_29,129,001,0,recog,74,DINER,LF,lure,-,-,-,conservative,no,m,1,0.682806314692,3,127
2019_Oct_29,129,001,0,recog,75,TABLE,HF,lure,-,-,-,conservative,no,m,1,0.600310367506,3,130
2019_Oct_29,129,001,0,recog,76,REPORT,HF,target,left,aqua,pleasantness,conservative,no,z,1,0.823815298706,1,131
2019_Oct_29,129,001,0,recog,77,COVER,HF,target,left,aqua,pleasantness,liberal,no,z,1,0.812004762928,3,134
2019_Oct_29,129,001,0,recog,78,INSIDE,HF,lure,-,-,-,liberal,no,m,1,0.800359565852,1,135
2019_Oct_29,129,001,0,recog,79,CHROMIUM,LF,target,left,aqua,pleasantness,conservative,no,z,1,0.894149869452,1,136
2019_Oct_29,129,001,0,recog,80,ALERTING,LF,lure,-,-,-,liberal,no,m,1,0.69439432144,1,137
2019_Oct_29,129,001,0,recog,81,ANEMONES,LF,lure,-,-,-,liberal,no,m,1,0.788734165428,1,138
2019_Oct_29,129,001,0,recog,82,ETHER,LF,lure,-,-,-,conservative,no,m,1,0.694458110652,3,141
2019_Oct_29,129,001,0,recog,83,NIGHT,HF,lure,-,-,-,conservative,no,m,1,0.717969567414,3,144
2019_Oct_29,129,001,0,recog,84,FREEDOM,HF,lure,-,-,-,conservative,yes,m,1,1.92980180619,3,147
2019_Oct_29,129,001,0,recog,85,YELLOWED,LF,target,right,yellow,imageability,liberal,no,z,1,1.03558081543,3,150
2019_Oct_29,129,001,0,recog,86,TURNED,HF,target,right,yellow,imageability,conservative,no,z,1,2.0001965001,1,151
2019_Oct_29,129,001,0,recog,87,BEAUTIFUL,HF,target,left,aqua,pleasantness,liberal,no,z,1,0.553134213233,3,154
2019_Oct_29,129,001,0,recog,88,BURGH,LF,lure,-,-,-,liberal,no,m,1,0.623794695524,1,155
2019_Oct_29,129,001,0,recog,89,THUDDING,LF,target,right,yellow,imageability,conservative,no,z,1,0.647276823913,1,156
2019_Oct_29,129,001,0,recog,90,PULSAR,LF,lure,-,-,-,conservative,no,m,1,0.670918058726,3,159
2019_Oct_29,129,001,0,recog,91,EVENING,HF,target,right,yellow,imageability,liberal,no,z,1,0.812074784418,3,162
2019_Oct_29,129,001,0,recog,92,ROMANCES,LF,lure,-,-,-,conservative,no,m,1,0.658852366103,3,165
2019_Oct_29,129,001,0,recog,93,CIPHER,LF,target,left,aqua,pleasantness,liberal,no,z,1,0.635625761163,3,168
2019_Oct_29,129,001,0,recog,94,OCCUPANCY,LF,target,right,yellow,imageability,conservative,no,z,1,0.788627116867,1,169
2019_Oct_29,129,001,0,recog,95,SNOBBISH,LF,lure,-,-,-,liberal,yes,z,0,1.38846676399,-1,168
2019_Oct_29,129,001,1,source,0,SERIOUS,HF,target,left,aqua,pleasantness,conservative,no,1,1,1.80010000975,-,-
2019_Oct_29,129,001,1,source,1,IDEAS,HF,target,right,yellow,imageability,conservative,no,1,0,0.812103379582,-,-
2019_Oct_29,129,001,1,source,2,TERMS,HF,target,right,yellow,imageability,liberal,no,1,0,1.42384997951,-,-
2019_Oct_29,129,001,1,source,3,INJECT,LF,target,left,aqua,pleasantness,conservative,no,1,1,0.64717747405,-,-
2019_Oct_29,129,001,1,source,4,ARDENTLY,LF,target,right,yellow,imageability,liberal,no,7,1,2.5296803134,-,-
2019_Oct_29,129,001,1,source,5,EMIGRATED,LF,target,right,yellow,imageability,conservative,no,9,1,1.12971242797,-,-
2019_Oct_29,129,001,1,source,6,DUSTER,LF,target,right,yellow,imageability,conservative,no,9,1,0.812133441164,-,-
2019_Oct_29,129,001,1,source,7,SEPULCHRE,LF,target,left,aqua,pleasantness,conservative,no,1,1,1.29440810578,-,-
2019_Oct_29,129,001,1,source,8,WIPERS,LF,target,left,aqua,pleasantness,conservative,no,2,1,0.988532606185,-,-
2019_Oct_29,129,001,1,source,9,HALLMARK,LF,target,right,yellow,imageability,conservative,no,8,1,0.788240348949,-,-
2019_Oct_29,129,001,1,source,10,ABOVE,HF,target,left,aqua,pleasantness,liberal,no,8,0,1.023782011,-,-
2019_Oct_29,129,001,1,source,11,FLUFF,LF,target,left,aqua,pleasantness,liberal,no,2,1,0.717927041273,-,-
2019_Oct_29,129,001,1,source,12,SEQUEL,LF,target,right,yellow,imageability,liberal,no,8,1,1.03557165031,-,-
2019_Oct_29,129,001,1,source,13,MONEY,HF,target,left,aqua,pleasantness,liberal,yes,8,0,0.776447410195,-,-
2019_Oct_29,129,001,1,source,14,BAYING,LF,target,right,yellow,imageability,liberal,no,8,1,0.729715580771,-,-
2019_Oct_29,129,001,1,source,15,CUFFED,LF,target,right,yellow,imageability,liberal,no,9,1,0.670824941142,-,-
2019_Oct_29,129,001,1,source,16,BOASTS,LF,target,left,aqua,pleasantness,conservative,no,2,1,0.823844260474,-,-
2019_Oct_29,129,001,1,source,17,KNOWLEDGE,HF,target,left,aqua,pleasantness,liberal,no,1,1,1.09461149804,-,-
2019_Oct_29,129,001,1,source,18,VARIOUS,HF,target,left,aqua,pleasantness,conservative,no,1,1,1.200273927,-,-
2019_Oct_29,129,001,1,source,19,FOLLOWED,HF,target,left,aqua,pleasantness,liberal,no,2,1,0.682595883616,-,-
2019_Oct_29,129,001,1,source,20,DEGREE,HF,target,right,yellow,imageability,conservative,no,9,1,0.976587159892,-,-
2019_Oct_29,129,001,1,source,21,NUCLEAR,HF,target,right,yellow,imageability,liberal,no,9,1,0.753160315485,-,-
2019_Oct_29,129,001,1,source,22,FOUND,HF,target,right,yellow,imageability,conservative,no,1,0,1.36492414583,-,-
2019_Oct_29,129,001,1,source,23,MEANS,HF,target,right,yellow,imageability,liberal,no,9,1,0.694464709535,-,-
2019_Oct_29,129,001,1,source,24,SLIGHTLY,HF,target,right,yellow,imageability,conservative,no,9,1,1.01209355458,-,-
2019_Oct_29,129,001,1,source,25,SUMMER,HF,target,left,aqua,pleasantness,conservative,no,1,1,0.600373790113,-,-
2019_Oct_29,129,001,1,source,26,SCHOOL,HF,target,right,yellow,imageability,liberal,no,9,1,0.882665978427,-,-
2019_Oct_29,129,001,1,source,27,ATONEMENT,LF,target,right,yellow,imageability,conservative,no,9,1,0.706212922521,-,-
2019_Oct_29,129,001,1,source,28,CAUGHT,HF,target,left,aqua,pleasantness,liberal,no,1,1,0.941556618057,-,-
2019_Oct_29,129,001,1,source,29,ENDEARING,LF,target,left,aqua,pleasantness,liberal,no,1,1,0.85933892381,-,-
2019_Oct_29,129,001,1,source,30,GULLIBLE,LF,target,right,yellow,imageability,liberal,no,9,1,0.729560507,-,-
2019_Oct_29,129,001,1,source,31,SLOWLY,HF,target,left,aqua,pleasantness,liberal,no,1,1,1.30638141402,-,-
2019_Oct_29,129,001,1,source,32,TUFTS,LF,target,right,yellow,imageability,conservative,no,9,1,0.647313850984,-,-
2019_Oct_29,129,001,1,source,33,SHORT,HF,target,left,aqua,pleasantness,conservative,no,1,1,0.682462072915,-,-
2019_Oct_29,129,001,1,source,34,SITTING,HF,target,left,aqua,pleasantness,conservative,no,1,1,0.671014109147,-,-
2019_Oct_29,129,001,1,source,35,EARLIER,HF,target,right,yellow,imageability,conservative,yes,1,0,0.635656922559,-,-
2019_Oct_29,129,001,1,source,36,DAGGERS,LF,target,right,yellow,imageability,liberal,yes,1,0,0.529817423547,-,-
2019_Oct_29,129,001,1,source,37,CONCERNED,HF,target,right,yellow,imageability,conservative,yes,9,1,0.400460968702,-,-
2019_Oct_29,129,001,1,source,38,ASKED,HF,target,right,yellow,imageability,liberal,no,9,1,0.812063053069,-,-
2019_Oct_29,129,001,1,source,39,UTILIZE,LF,target,right,yellow,imageability,conservative,no,8,1,1.29420683982,-,-
2019_Oct_29,129,001,1,source,40,INFECT,LF,target,left,aqua,pleasantness,conservative,no,1,1,1.04732572898,-,-
2019_Oct_29,129,001,1,source,41,TAGGED,LF,target,left,aqua,pleasantness,liberal,no,7,0,1.23557428987,-,-
2019_Oct_29,129,001,1,source,42,STUDENT,HF,target,right,yellow,imageability,liberal,no,9,1,1.1885007849,-,-
2019_Oct_29,129,001,1,source,43,BOLDNESS,LF,target,left,aqua,pleasantness,liberal,no,1,1,1.72997440366,-,-
2019_Oct_29,129,001,1,source,44,NURTURING,LF,target,left,aqua,pleasantness,liberal,no,1,1,0.800315573293,-,-
2019_Oct_29,129,001,1,source,45,EGOISM,LF,target,left,aqua,pleasantness,conservative,no,1,1,0.812081383302,-,-
2019_Oct_29,129,001,1,source,46,PUPPETS,LF,target,left,aqua,pleasantness,liberal,no,1,1,0.694205153435,-,-
2019_Oct_29,129,001,1,source,47,CLEAR,HF,target,left,aqua,pleasantness,conservative,no,1,1,1.43565318319,-,-
2019_Oct_29,129,001,1,recog,0,TAGGED,LF,target,left,aqua,pleasantness,liberal,no,z,1,1.35337903183,3,171
2019_Oct_29,129,001,1,recog,1,BIOLOGIST,LF,lure,-,-,-,conservative,no,m,1,2.43568874384,3,174
2019_Oct_29,129,001,1,recog,2,WEDGES,LF,lure,-,-,-,liberal,no,m,1,1.23564907722,1,175
2019_Oct_29,129,001,1,recog,3,HUSBAND,HF,lure,-,-,-,conservative,no,m,1,0.58851962838,3,178
2019_Oct_29,129,001,1,recog,4,NUMBER,HF,lure,-,-,-,liberal,no,m,1,0.894402460064,1,179
2019_Oct_29,129,001,1,recog,5,UNLESS,HF,lure,-,-,-,conservative,no,m,1,1.14146137417,3,182
2019_Oct_29,129,001,1,recog,6,GULLIBLE,LF,target,right,yellow,imageability,liberal,no,z,1,1.5649597798,3,185
2019_Oct_29,129,001,1,recog,7,WITHIN,HF,lure,-,-,-,liberal,no,m,1,1.01197037541,1,186
2019_Oct_29,129,001,1,recog,8,EMIGRATED,LF,target,right,yellow,imageability,conservative,no,z,1,0.694191955667,1,187
2019_Oct_29,129,001,1,recog,9,SITTING,HF,target,left,aqua,pleasantness,conservative,no,z,1,1.09440803245,1,188
2019_Oct_29,129,001,1,recog,10,HOMESTEAD,LF,lure,-,-,-,conservative,no,m,1,0.764918426797,3,191
2019_Oct_29,129,001,1,recog,11,JUROR,LF,lure,-,-,-,liberal,no,m,1,0.576550352784,1,192
2019_Oct_29,129,001,1,recog,12,WREATH,LF,lure,-,-,-,liberal,no,m,1,0.812013928044,1,193
2019_Oct_29,129,001,1,recog,13,BAWLED,LF,lure,-,-,-,conservative,no,m,1,0.623530373563,3,196
2019_Oct_29,129,001,1,recog,14,BOASTS,LF,target,left,aqua,pleasantness,conservative,no,z,1,0.564956113756,1,197
2019_Oct_29,129,001,1,recog,15,LIVED,HF,lure,-,-,-,conservative,no,m,1,0.906180368027,3,200
2019_Oct_29,129,001,1,recog,16,WIPERS,LF,target,left,aqua,pleasantness,conservative,no,z,1,0.576788279209,1,201
2019_Oct_29,129,001,1,recog,17,SKETCHY,LF,lure,-,-,-,liberal,no,m,1,0.5884976321,1,202
2019_Oct_29,129,001,1,recog,18,SUMMER,HF,target,left,aqua,pleasantness,conservative,no,z,1,0.576784613163,1,203
2019_Oct_29,129,001,1,recog,19,AFOOT,LF,lure,-,-,-,conservative,no,m,1,0.600304501832,3,206
2019_Oct_29,129,001,1,recog,20,EARLIER,HF,target,right,yellow,imageability,conservative,no,m,0,0.741452795617,-1,205
2019_Oct_29,129,001,1,recog,21,WINDOW,HF,lure,-,-,-,conservative,yes,z,0,0.717977999321,-3,202
2019_Oct_29,129,001,1,recog,22,OFFER,HF,lure,-,-,-,conservative,no,m,1,1.49444410635,3,205
2019_Oct_29,129,001,1,recog,23,DEGREE,HF,target,right,yellow,imageability,conservative,no,z,1,0.823641894701,1,206
2019_Oct_29,129,001,1,recog,24,YOUNG,HF,lure,-,-,-,conservative,no,m,1,0.612058580492,3,209
2019_Oct_29,129,001,1,recog,25,PUPPETS,LF,target,left,aqua,pleasantness,liberal,no,z,1,0.918100151994,3,212
2019_Oct_29,129,001,1,recog,26,UTILIZE,LF,target,right,yellow,imageability,conservative,no,m,0,0.564926785383,-1,211
2019_Oct_29,129,001,1,recog,27,ALIAS,LF,lure,-,-,-,conservative,no,m,1,1.15337639227,3,214
2019_Oct_29,129,001,1,recog,28,CLEAR,HF,target,left,aqua,pleasantness,conservative,no,z,1,0.564914320825,1,215
2019_Oct_29,129,001,1,recog,29,WOODCOCK,LF,lure,-,-,-,liberal,no,m,1,0.647301019821,1,216
2019_Oct_29,129,001,1,recog,30,DAPPER,LF,lure,-,-,-,conservative,no,m,1,0.753318688699,3,219
2019_Oct_29,129,001,1,recog,31,DEFEATING,LF,lure,-,-,-,liberal,no,m,1,1.2592327551,1,220
2019_Oct_29,129,001,1,recog,32,BOLDNESS,LF,target,left,aqua,pleasantness,liberal,yes,z,1,0.941471199171,3,223
2019_Oct_29,129,001,1,recog,33,SLIGHTLY,HF,target,right,yellow,imageability,conservative,no,z,1,0.929514021529,1,224
2019_Oct_29,129,001,1,recog,34,SEQUEL,LF,target,right,yellow,imageability,liberal,no,z,1,0.670936388959,3,227
2019_Oct_29,129,001,1,recog,35,NURTURING,LF,target,left,aqua,pleasantness,liberal,no,z,1,0.588528793497,3,230
2019_Oct_29,129,001,1,recog,36,UNWARY,LF,lure,-,-,-,liberal,no,m,1,0.612057847283,1,231
2019_Oct_29,129,001,1,recog,37,ENTIRELY,HF,lure,-,-,-,liberal,no,m,1,0.682366389098,1,232
2019_Oct_29,129,001,1,recog,38,ENDEARING,LF,target,left,aqua,pleasantness,liberal,no,z,1,0.635663521443,3,235
2019_Oct_29,129,001,1,recog,39,CAUGHT,HF,target,left,aqua,pleasantness,liberal,no,z,1,0.647421999359,3,238
2019_Oct_29,129,001,1,recog,40,STUDENT,HF,target,right,yellow,imageability,liberal,no,z,1,0.588496898891,3,241
2019_Oct_29,129,001,1,recog,41,PRIVATE,HF,lure,-,-,-,liberal,no,m,1,0.905994499464,1,242
2019_Oct_29,129,001,1,recog,42,MAJOR,HF,lure,-,-,-,conservative,no,m,1,1.20031352031,3,245
2019_Oct_29,129,001,1,recog,43,ATONEMENT,LF,target,right,yellow,imageability,conservative,no,z,1,0.717997795973,1,246
2019_Oct_29,129,001,1,recog,44,NUTSHELL,LF,lure,-,-,-,liberal,no,m,1,0.717963335135,1,247
2019_Oct_29,129,001,1,recog,45,MEANS,HF,target,right,yellow,imageability,liberal,no,z,1,0.68264574185,3,250
2019_Oct_29,129,001,1,recog,46,SHORT,HF,target,left,aqua,pleasantness,conservative,no,z,1,0.717869117737,1,251
2019_Oct_29,129,001,1,recog,47,VARIOUS,HF,target,left,aqua,pleasantness,conservative,no,z,1,0.717925941459,1,252
2019_Oct_29,129,001,1,recog,48,ABOVE,HF,target,left,aqua,pleasantness,liberal,no,z,1,0.623842720735,3,255
2019_Oct_29,129,001,1,recog,49,FLUFF,LF,target,left,aqua,pleasantness,liberal,no,z,1,0.600407517742,3,258
2019_Oct_29,129,001,1,recog,50,FOUND,HF,target,right,yellow,imageability,conservative,no,m,0,1.38853421925,-1,257
2019_Oct_29,129,001,1,recog,51,DEDICATE,LF,lure,-,-,-,liberal,no,m,1,1.36507408714,1,258
2019_Oct_29,129,001,1,recog,52,NUCLEAR,HF,target,right,yellow,imageability,liberal,no,z,1,0.623814125571,3,261
2019_Oct_29,129,001,1,recog,53,INFECT,LF,target,left,aqua,pleasantness,conservative,no,z,1,0.600215050295,1,262
2019_Oct_29,129,001,1,recog,54,CERTAIN,HF,lure,-,-,-,liberal,no,m,1,0.706256181871,1,263
2019_Oct_29,129,001,1,recog,55,GUESSWORK,LF,lure,-,-,-,conservative,no,m,1,0.823862224102,3,266
2019_Oct_29,129,001,1,recog,56,CONCERNED,HF,target,right,yellow,imageability,conservative,no,m,0,0.635534843207,-1,265
2019_Oct_29,129,001,1,recog,57,ALMOST,HF,lure,-,-,-,liberal,no,m,1,1.435480879,1,266
2019_Oct_29,129,001,1,recog,58,LABOUR,HF,lure,-,-,-,conservative,no,m,1,0.612210354822,3,269
2019_Oct_29,129,001,1,recog,59,DUSTER,LF,target,right,yellow,imageability,conservative,no,m,0,0.494411845143,-1,268
2019_Oct_29,129,001,1,recog,60,FOLLOWED,HF,target,left,aqua,pleasantness,liberal,no,z,1,0.776469406474,3,271
2019_Oct_29,129,001,1,recog,61,EIGHT,HF,lure,-,-,-,liberal,no,m,1,0.659224469835,1,272
2019_Oct_29,129,001,1,recog,62,MORNING,HF,lure,-,-,-,conservative,no,m,1,0.929641233346,3,275
2019_Oct_29,129,001,1,recog,63,FACILE,LF,lure,-,-,-,liberal,no,m,1,0.894473947973,1,276
2019_Oct_29,129,001,1,recog,64,SCHOOL,HF,target,right,yellow,imageability,liberal,no,z,1,0.706126403821,3,279
2019_Oct_29,129,001,1,recog,65,SCOFFED,LF,lure,-,-,-,conservative,no,m,1,0.729428895926,3,282
2019_Oct_29,129,001,1,recog,66,BEQUEST,LF,lure,-,-,-,conservative,no,m,1,0.623834288827,3,285
2019_Oct_29,129,001,1,recog,67,CORNER,HF,lure,-,-,-,liberal,no,m,1,1.22386786981,1,286
2019_Oct_29,129,001,1,recog,68,SEPULCHRE,LF,target,left,aqua,pleasantness,conservative,no,z,1,0.6589150555,1,287
2019_Oct_29,129,001,1,recog,69,URBANE,LF,lure,-,-,-,liberal,no,m,1,0.788640681239,1,288
2019_Oct_29,129,001,1,recog,70,WHETHER,HF,lure,-,-,-,liberal,no,m,1,0.776616781548,1,289
2019_Oct_29,129,001,1,recog,71,HOTEL,HF,lure,-,-,-,liberal,no,m,1,0.541401397644,1,290
2019_Oct_29,129,001,1,recog,72,TOPICAL,LF,lure,-,-,-,liberal,yes,z,0,0.859199980643,-1,289
2019_Oct_29,129,001,1,recog,73,BAYING,LF,target,right,yellow,imageability,liberal,no,m,0,0.835515853085,-3,286
2019_Oct_29,129,001,1,recog,74,ASKED,HF,target,right,yellow,imageability,liberal,no,z,1,0.941157018976,3,289
2019_Oct_29,129,001,1,recog,75,DAGGERS,LF,target,right,yellow,imageability,liberal,no,z,1,0.670940788215,3,292
2019_Oct_29,129,001,1,recog,76,TUFTS,LF,target,right,yellow,imageability,conservative,no,z,1,0.529708908567,1,293
2019_Oct_29,129,001,1,recog,77,STOOD,HF,lure,-,-,-,conservative,no,m,1,0.670832273235,3,296
2019_Oct_29,129,001,1,recog,78,EGOISM,LF,target,left,aqua,pleasantness,conservative,no,z,1,0.612069578632,1,297
2019_Oct_29,129,001,1,recog,79,WICKEDLY,LF,lure,-,-,-,conservative,no,m,1,0.588518161962,3,300
2019_Oct_29,129,001,1,recog,80,HELICAL,LF,lure,-,-,-,conservative,no,m,1,0.71764915494,3,303
2019_Oct_29,129,001,1,recog,81,MONEY,HF,target,left,aqua,pleasantness,liberal,no,z,1,0.917979172456,3,306
2019_Oct_29,129,001,1,recog,82,SERIOUS,HF,target,left,aqua,pleasantness,conservative,no,z,1,1.22378465056,1,307
2019_Oct_29,129,001,1,recog,83,AQUARIUM,LF,lure,-,-,-,conservative,no,m,1,0.776716498016,3,310
2019_Oct_29,129,001,1,recog,84,CHAIR,HF,lure,-,-,-,liberal,no,m,1,0.682600282872,1,311
2019_Oct_29,129,001,1,recog,85,BROUGHT,HF,lure,-,-,-,conservative,no,m,1,0.812006962556,3,314
2019_Oct_29,129,001,1,recog,86,DOUBT,HF,lure,-,-,-,conservative,no,m,1,0.647301019821,3,317
2019_Oct_29,129,001,1,recog,87,ARDENTLY,LF,target,right,yellow,imageability,liberal,no,m,0,0.564964179059,-3,314
2019_Oct_29,129,001,1,recog,88,HALLMARK,LF,target,right,yellow,imageability,conservative,no,z,1,0.682617513291,1,315
2019_Oct_29,129,001,1,recog,89,INJECT,LF,target,left,aqua,pleasantness,conservative,no,z,1,0.54139406555,1,316
2019_Oct_29,129,001,1,recog,90,TERMS,HF,target,right,yellow,imageability,liberal,no,m,0,0.670833373049,-3,313
2019_Oct_29,129,001,1,recog,91,STRAIGHT,HF,lure,-,-,-,liberal,no,m,1,3.09443846064,1,314
2019_Oct_29,129,001,1,recog,92,KNOWLEDGE,HF,target,left,aqua,pleasantness,liberal,no,z,1,0.764972317682,3,317
2019_Oct_29,129,001,1,recog,93,IDEAS,HF,target,right,yellow,imageability,conservative,no,z,1,1.5651247519,1,318
2019_Oct_29,129,001,1,recog,94,CUFFED,LF,target,right,yellow,imageability,liberal,yes,z,1,1.07088044509,3,321
2019_Oct_29,129,001,1,recog,95,SLOWLY,HF,target,left,aqua,pleasantness,liberal,no,z,1,0.741498987805,3,324
2019_Oct_29,129,001,2,source,0,LEVEL,HF,target,right,yellow,imageability,liberal,no,1,0,2.09454880864,-,-
2019_Oct_29,129,001,2,source,1,TIPSY,LF,target,right,yellow,imageability,liberal,no,9,1,0.623797261756,-,-
2019_Oct_29,129,001,2,source,2,REWRITE,LF,target,left,aqua,pleasantness,liberal,no,2,1,1.60035582648,-,-
2019_Oct_29,129,001,2,source,3,FATHER,HF,target,left,aqua,pleasantness,liberal,no,2,1,0.765062502429,-,-
2019_Oct_29,129,001,2,source,4,OUGHT,HF,target,right,yellow,imageability,liberal,no,8,1,0.706167830148,-,-
2019_Oct_29,129,001,2,source,5,MITIGATE,LF,target,right,yellow,imageability,conservative,no,9,1,0.870720532134,-,-
2019_Oct_29,129,001,2,source,6,HAGGLING,LF,target,right,yellow,imageability,conservative,no,9,1,1.05917292522,-,-
2019_Oct_29,129,001,2,source,7,CANNOT,HF,target,right,yellow,imageability,conservative,no,9,1,0.800076180449,-,-
2019_Oct_29,129,001,2,source,8,OTHERS,HF,target,left,aqua,pleasantness,liberal,no,1,1,0.847426838541,-,-
2019_Oct_29,129,001,2,source,9,KANGAROO,LF,target,left,aqua,pleasantness,conservative,no,1,1,1.2709109466,-,-
2019_Oct_29,129,001,2,source,10,VOYAGES,LF,target,left,aqua,pleasantness,conservative,no,1,1,1.03550896092,-,-
2019_Oct_29,129,001,2,source,11,AEROSOL,LF,target,left,aqua,pleasantness,liberal,no,8,0,1.20042716775,-,-
2019_Oct_29,129,001,2,source,12,GENERAL,HF,target,right,yellow,imageability,liberal,no,8,1,0.612049048771,-,-
2019_Oct_29,129,001,2,source,13,HIMSELF,HF,target,right,yellow,imageability,liberal,no,9,1,0.600238879597,-,-
2019_Oct_29,129,001,2,source,14,MUTATIONS,LF,target,right,yellow,imageability,liberal,no,9,1,0.717828791224,-,-
2019_Oct_29,129,001,2,source,15,TRYING,HF,target,left,aqua,pleasantness,conservative,no,9,0,1.24712673596,-,-
2019_Oct_29,129,001,2,source,16,WAITING,HF,target,left,aqua,pleasantness,conservative,no,1,1,0.964743629694,-,-
2019_Oct_29,129,001,2,source,17,SIZZLING,LF,target,right,yellow,imageability,conservative,no,9,1,0.812076984046,-,-
2019_Oct_29,129,001,2,source,18,COMES,HF,target,right,yellow,imageability,liberal,no,8,1,1.50594009533,-,-
2019_Oct_29,129,001,2,source,19,NEITHER,HF,target,left,aqua,pleasantness,conservative,no,8,0,0.823730979634,-,-
2019_Oct_29,129,001,2,source,20,RAKING,LF,target,left,aqua,pleasantness,liberal,yes,8,0,0.811808629434,-,-
2019_Oct_29,129,001,2,source,21,UNJUSTLY,LF,target,left,aqua,pleasantness,conservative,no,3,1,2.18861296593,-,-
2019_Oct_29,129,001,2,source,22,POLICE,HF,target,right,yellow,imageability,conservative,no,1,0,1.30612515736,-,-
2019_Oct_29,129,001,2,source,23,ANSWER,HF,target,right,yellow,imageability,conservative,yes,9,1,2.03534802147,-,-
2019_Oct_29,129,001,2,source,24,REFECTORY,LF,target,left,aqua,pleasantness,conservative,no,9,0,1.71769974638,-,-
2019_Oct_29,129,001,2,source,25,MEETING,HF,target,left,aqua,pleasantness,liberal,no,1,1,1.87064427836,-,-
2019_Oct_29,129,001,2,source,26,FORCE,HF,target,left,aqua,pleasantness,liberal,no,1,1,1.67072449146,-,-
2019_Oct_29,129,001,2,source,27,EASILY,HF,target,left,aqua,pleasantness,liberal,no,1,1,0.612094141144,-,-
2019_Oct_29,129,001,2,source,28,PASSED,HF,target,left,aqua,pleasantness,conservative,no,1,1,1.17686438634,-,-
2019_Oct_29,129,001,2,source,29,MUMBLES,LF,target,left,aqua,pleasantness,conservative,no,1,1,0.624024556647,-,-
2019_Oct_29,129,001,2,source,30,FAMILY,HF,target,left,aqua,pleasantness,liberal,yes,1,1,0.706223187452,-,-
2019_Oct_29,129,001,2,source,31,FUTURE,HF,target,right,yellow,imageability,conservative,yes,1,0,0.600070974662,-,-
2019_Oct_29,129,001,2,source,32,GAPED,LF,target,left,aqua,pleasantness,liberal,no,1,1,0.870869007022,-,-
2019_Oct_29,129,001,2,source,33,CASES,HF,target,right,yellow,imageability,conservative,no,8,1,1.44735740362,-,-
2019_Oct_29,129,001,2,source,34,DOSSIERS,LF,target,right,yellow,imageability,liberal,no,9,1,1.34129940823,-,-
2019_Oct_29,129,001,2,source,35,MOTHER,HF,target,right,yellow,imageability,liberal,no,9,1,1.18851984834,-,-
2019_Oct_29,129,001,2,source,36,BAGGY,LF,target,right,yellow,imageability,conservative,no,9,1,0.776502400894,-,-
2019_Oct_29,129,001,2,source,37,VERBALLY,LF,target,left,aqua,pleasantness,liberal,no,1,1,1.81205388795,-,-
2019_Oct_29,129,001,2,source,38,OXIDE,LF,target,left,aqua,pleasantness,liberal,no,1,1,0.870907500511,-,-
2019_Oct_29,129,001,2,source,39,AUSPICES,LF,target,right,yellow,imageability,conservative,no,7,1,1.27071407989,-,-
2019_Oct_29,129,001,2,source,40,SORRY,HF,target,left,aqua,pleasantness,conservative,no,1,1,1.31788216886,-,-
2019_Oct_29,129,001,2,source,41,WASHBASIN,LF,target,right,yellow,imageability,liberal,no,9,1,1.15320408808,-,-
2019_Oct_29,129,001,2,source,42,CLASS,HF,target,left,aqua,pleasantness,conservative,no,1,1,0.859166253014,-,-
2019_Oct_29,129,001,2,source,43,MUNCH,LF,target,right,yellow,imageability,conservative,no,9,1,0.670703961603,-,-
2019_Oct_29,129,001,2,source,44,AVIDLY,LF,target,right,yellow,imageability,liberal,no,8,1,1.02364893351,-,-
2019_Oct_29,129,001,2,source,45,PEWTER,LF,target,right,yellow,imageability,liberal,no,8,1,1.31767577044,-,-
2019_Oct_29,129,001,2,source,46,UNSAVOURY,LF,target,left,aqua,pleasantness,conservative,no,1,1,0.96475352802,-,-
2019_Oct_29,129,001,2,source,47,BEGAN,HF,target,right,yellow,imageability,conservative,no,7,1,1.14149363538,-,-
2019_Oct_29,129,001,2,recog,0,REWRITE,LF,target,left,aqua,pleasantness,liberal,yes,z,1,1.01208035681,3,327
2019_Oct_29,129,001,2,recog,1,WASHBASIN,LF,target,right,yellow,imageability,liberal,no,z,1,0.83569475616,3,330
2019_Oct_29,129,001,2,recog,2,RATHER,HF,lure,-,-,-,conservative,no,m,1,1.42375979476,3,333
2019_Oct_29,129,001,2,recog,3,RAKING,LF,target,left,aqua,pleasantness,liberal,no,z,1,1.14141004951,3,336
2019_Oct_29,129,001,2,recog,4,EASILY,HF,target,left,aqua,pleasantness,liberal,no,z,1,0.647435563732,3,339
2019_Oct_29,129,001,2,recog,5,FATHER,HF,target,left,aqua,pleasantness,liberal,no,z,1,0.647413934057,3,342
2019_Oct_29,129,001,2,recog,6,KANGAROO,LF,target,left,aqua,pleasantness,conservative,no,z,1,0.588491033217,1,343
2019_Oct_29,129,001,2,recog,7,UNSAVOURY,LF,target,left,aqua,pleasantness,conservative,no,z,1,0.659172778577,1,344
2019_Oct_29,129,001,2,recog,8,AUSPICES,LF,target,right,yellow,imageability,conservative,no,z,1,0.741587339528,1,345
2019_Oct_29,129,001,2,recog,9,COMES,HF,target,right,yellow,imageability,liberal,no,z,1,0.647284889216,3,348
2019_Oct_29,129,001,2,recog,10,SUCCESS,HF,lure,-,-,-,conservative,no,m,1,0.76475272149,3,351
2019_Oct_29,129,001,2,recog,11,NOTHING,HF,lure,-,-,-,conservative,no,m,1,0.670900828306,3,354
2019_Oct_29,129,001,2,recog,12,DOSSIERS,LF,target,right,yellow,imageability,liberal,no,z,1,1.47090698726,3,357
2019_Oct_29,129,001,2,recog,13,ENZYME,LF,lure,-,-,-,liberal,no,m,1,0.753234736232,1,358
2019_Oct_29,129,001,2,recog,14,MUTATIONS,LF,target,right,yellow,imageability,liberal,no,z,1,0.765032074242,3,361
2019_Oct_29,129,001,2,recog,15,HIGHER,HF,lure,-,-,-,liberal,no,m,1,0.694433548139,1,362
2019_Oct_29,129,001,2,recog,16,VERBALLY,LF,target,left,aqua,pleasantness,liberal,no,z,1,0.647259593494,3,365
2019_Oct_29,129,001,2,recog,17,AEROSOL,LF,target,left,aqua,pleasantness,liberal,no,z,1,0.905933276485,3,368
2019_Oct_29,129,001,2,recog,18,AFTERNOON,HF,lure,-,-,-,liberal,no,m,1,0.694147596503,1,369
2019_Oct_29,129,001,2,recog,19,COOING,LF,lure,-,-,-,liberal,no,m,1,0.859109429292,1,370
2019_Oct_29,129,001,2,recog,20,SMUDGE,LF,lure,-,-,-,conservative,no,m,1,0.753251966651,3,373
2019_Oct_29,129,001,2,recog,21,GAPED,LF,target,left,aqua,pleasantness,liberal,no,z,1,0.670766284396,3,376
2019_Oct_29,129,001,2,recog,22,VIGILANT,LF,lure,-,-,-,liberal,no,z,0,0.964997686725,-1,375
2019_Oct_29,129,001,2,recog,23,BEGAN,HF,target,right,yellow,imageability,conservative,yes,m,0,0.635540342277,-1,374
2019_Oct_29,129,001,2,recog,24,EDUCATION,HF,lure,-,-,-,conservative,no,m,1,2.01203709746,3,377
2019_Oct_29,129,001,2,recog,25,ENAMELLED,LF,lure,-,-,-,conservative,no,m,1,0.694341530369,3,380
2019_Oct_29,129,001,2,recog,26,MIXER,LF,lure,-,-,-,liberal,no,m,1,0.776808149182,1,381
2019_Oct_29,129,001,2,recog,27,RANGE,HF,lure,-,-,-,liberal,no,m,1,0.847371114632,1,382
2019_Oct_29,129,001,2,recog,28,AVIDLY,LF,target,right,yellow,imageability,liberal,no,z,1,0.741445830129,3,385
2019_Oct_29,129,001,2,recog,29,FAMILY,HF,target,left,aqua,pleasantness,liberal,no,z,1,0.541455288529,3,388
2019_Oct_29,129,001,2,recog,30,FUTURE,HF,target,right,yellow,imageability,conservative,no,z,1,0.529630821774,1,389
2019_Oct_29,129,001,2,recog,31,OPENED,HF,lure,-,-,-,conservative,no,m,1,0.682594050593,3,392
2019_Oct_29,129,001,2,recog,32,NEITHER,HF,target,left,aqua,pleasantness,conservative,no,z,1,0.694442713256,1,393
2019_Oct_29,129,001,2,recog,33,DWELT,LF,lure,-,-,-,liberal,no,m,1,0.658940717827,1,394
2019_Oct_29,129,001,2,recog,34,UPKEEP,LF,lure,-,-,-,conservative,no,m,1,0.694127799851,3,397
2019_Oct_29,129,001,2,recog,35,MOTHER,HF,target,right,yellow,imageability,liberal,no,z,1,1.01209355458,3,400
2019_Oct_29,129,001,2,recog,36,CALLED,HF,lure,-,-,-,liberal,no,m,1,0.647322649496,1,401
2019_Oct_29,129,001,2,recog,37,SORRY,HF,target,left,aqua,pleasantness,conservative,no,m,0,1.75320907391,-1,400
2019_Oct_29,129,001,2,recog,38,POLICE,HF,target,right,yellow,imageability,conservative,no,z,1,0.753299625257,1,401
2019_Oct_29,129,001,2,recog,39,GATEHOUSE,LF,lure,-,-,-,liberal,no,m,1,0.882567728378,1,402
2019_Oct_29,129,001,2,recog,40,ANSWER,HF,target,right,yellow,imageability,conservative,no,m,0,0.717852253922,-1,401
2019_Oct_29,129,001,2,recog,41,MARKET,HF,lure,-,-,-,conservative,no,m,1,0.694252445436,3,404
2019_Oct_29,129,001,2,recog,42,FORCE,HF,target,left,aqua,pleasantness,liberal,no,z,1,3.68280741451,3,407
2019_Oct_29,129,001,2,recog,43,SHALL,HF,lure,-,-,-,liberal,no,m,1,1.48237181485,1,408
2019_Oct_29,129,001,2,recog,44,CLASS,HF,target,left,aqua,pleasantness,conservative,no,z,1,1.16506044944,1,409
2019_Oct_29,129,001,2,recog,45,WAGGED,LF,lure,-,-,-,conservative,no,m,1,1.62382292408,3,412
2019_Oct_29,129,001,2,recog,46,LINEAGE,LF,lure,-,-,-,conservative,no,m,1,1.85915378846,3,415
2019_Oct_29,129,001,2,recog,47,HAVING,HF,lure,-,-,-,conservative,no,m,1,0.847446268588,3,418
2019_Oct_29,129,001,2,recog,48,AVAILABLE,HF,lure,-,-,-,conservative,no,m,1,0.635517246183,3,421
2019_Oct_29,129,001,2,recog,49,PEWTER,LF,target,right,yellow,imageability,liberal,no,z,1,0.600190487782,3,424
2019_Oct_29,129,001,2,recog,50,CLOSE,HF,lure,-,-,-,liberal,no,m,1,0.835522451969,1,425
2019_Oct_29,129,001,2,recog,51,GLEANED,LF,lure,-,-,-,conservative,no,m,1,0.65916984574,3,428
2019_Oct_29,129,001,2,recog,52,PLEASE,HF,lure,-,-,-,liberal,no,m,1,0.611987459188,1,429
2019_Oct_29,129,001,2,recog,53,PASSED,HF,target,left,aqua,pleasantness,conservative,no,z,1,1.00008285265,1,430
2019_Oct_29,129,001,2,recog,54,SNUBBED,LF,lure,-,-,-,conservative,yes,m,1,1.50616079134,3,433
2019_Oct_29,129,001,2,recog,55,DEEPEN,LF,lure,-,-,-,liberal,no,m,1,1.50621614864,1,434
2019_Oct_29,129,001,2,recog,56,VOYAGES,LF,target,left,aqua,pleasantness,conservative,no,z,1,0.61208204319,1,435
2019_Oct_29,129,001,2,recog,57,HOODLUMS,LF,lure,-,-,-,conservative,no,m,1,0.600222748992,3,438
2019_Oct_29,129,001,2,recog,58,OXIDE,LF,target,left,aqua,pleasantness,liberal,no,z,1,0.517981225442,3,441
2019_Oct_29,129,001,2,recog,59,HARDLY,HF,lure,-,-,-,conservative,no,m,1,1.36493257774,3,444
2019_Oct_29,129,001,2,recog,60,OTHERS,HF,target,left,aqua,pleasantness,liberal,no,z,1,0.729539610534,3,447
2019_Oct_29,129,001,2,recog,61,RALLIED,LF,lure,-,-,-,liberal,no,m,1,0.564905888917,1,448
2019_Oct_29,129,001,2,recog,62,CANNOT,HF,target,right,yellow,imageability,conservative,no,z,1,0.635564538185,1,449
2019_Oct_29,129,001,2,recog,63,SPOKE,HF,lure,-,-,-,liberal,no,m,1,0.694439780418,1,450
2019_Oct_29,129,001,2,recog,64,CLICKS,LF,lure,-,-,-,liberal,no,m,1,1.02375671528,1,451
2019_Oct_29,129,001,2,recog,65,OBNOXIOUS,LF,lure,-,-,-,liberal,no,m,1,0.647335480659,1,452
2019_Oct_29,129,001,2,recog,66,ENOUGH,HF,lure,-,-,-,conservative,no,m,1,0.588481134891,3,455
2019_Oct_29,129,001,2,recog,67,REFECTORY,LF,target,left,aqua,pleasantness,conservative,yes,m,0,1.10587872571,-1,454
2019_Oct_29,129,001,2,recog,68,CASES,HF,target,right,yellow,imageability,conservative,no,m,0,2.95330996351,-1,453
2019_Oct_29,129,001,2,recog,69,SIESTA,LF,lure,-,-,-,liberal,no,m,1,1.61209340793,1,454
2019_Oct_29,129,001,2,recog,70,EVIDENCE,HF,lure,-,-,-,conservative,no,m,1,0.529624956099,3,457
2019_Oct_29,129,001,2,recog,71,LEVEL,HF,target,right,yellow,imageability,liberal,no,m,0,0.541482783879,-3,454
2019_Oct_29,129,001,2,recog,72,MUMBLES,LF,target,left,aqua,pleasantness,conservative,no,z,1,0.905972869789,1,455
2019_Oct_29,129,001,2,recog,73,HAGGLING,LF,target,right,yellow,imageability,conservative,no,z,1,0.753184511393,1,456
2019_Oct_29,129,001,2,recog,74,NEARLY,HF,lure,-,-,-,liberal,no,m,1,0.635410197622,1,457
2019_Oct_29,129,001,2,recog,75,TRYING,HF,target,left,aqua,pleasantness,conservative,no,z,1,2.58857315266,1,458
2019_Oct_29,129,001,2,recog,76,UNJUSTLY,LF,target,left,aqua,pleasantness,conservative,no,m,0,0.882547565122,-1,457
2019_Oct_29,129,001,2,recog,77,SUSPEND,LF,lure,-,-,-,liberal,no,m,1,1.11794001908,1,458
2019_Oct_29,129,001,2,recog,78,SIZZLING,LF,target,right,yellow,imageability,conservative,no,z,1,0.91807778911,1,459
2019_Oct_29,129,001,2,recog,79,RUDIMENTS,LF,lure,-,-,-,conservative,no,m,1,0.776824279787,3,462
2019_Oct_29,129,001,2,recog,80,MUNCH,LF,target,right,yellow,imageability,conservative,no,z,1,1.24740792174,1,463
2019_Oct_29,129,001,2,recog,81,HOLED,LF,lure,-,-,-,conservative,no,m,1,0.694363160044,3,466
2019_Oct_29,129,001,2,recog,82,BAGGY,LF,target,right,yellow,imageability,conservative,no,z,1,0.717934373366,1,467
2019_Oct_29,129,001,2,recog,83,TIPSY,LF,target,right,yellow,imageability,liberal,no,z,1,0.765146454896,3,470
2019_Oct_29,129,001,2,recog,84,GLASS,HF,lure,-,-,-,liberal,no,m,1,0.706128970054,1,471
2019_Oct_29,129,001,2,recog,85,PRACTICE,HF,lure,-,-,-,conservative,no,m,1,1.52970267629,3,474
2019_Oct_29,129,001,2,recog,86,OTTOMAN,LF,lure,-,-,-,conservative,no,m,1,0.659064630202,3,477
2019_Oct_29,129,001,2,recog,87,CHOICE,HF,lure,-,-,-,liberal,no,m,1,0.494329725699,1,478
2019_Oct_29,129,001,2,recog,88,OUGHT,HF,target,right,yellow,imageability,liberal,no,m,0,0.635620262093,-3,475
2019_Oct_29,129,001,2,recog,89,SUDDENLY,HF,lure,-,-,-,liberal,no,m,1,1.05882318437,1,476
2019_Oct_29,129,001,2,recog,90,MITIGATE,LF,target,right,yellow,imageability,conservative,no,z,1,0.588524760846,1,477
2019_Oct_29,129,001,2,recog,91,HIMSELF,HF,target,right,yellow,imageability,liberal,no,z,1,1.15339802195,3,480
2019_Oct_29,129,001,2,recog,92,GENERAL,HF,target,right,yellow,imageability,liberal,no,z,1,0.635493783485,3,483
2019_Oct_29,129,001,2,recog,93,WAITING,HF,target,left,aqua,pleasantness,conservative,no,z,1,0.95315122369,1,484
2019_Oct_29,129,001,2,recog,94,DUNGEON,LF,lure,-,-,-,conservative,no,m,1,1.41214979173,3,487
2019_Oct_29,129,001,2,recog,95,MEETING,HF,target,left,aqua,pleasantness,liberal,no,z,1,0.812093847861,3,490
2019_Oct_29,129,001,3,source,0,WHATEVER,HF,target,right,yellow,imageability,conservative,no,9,1,0.870628880969,-,-
2019_Oct_29,129,001,3,source,1,OBVIOUSLY,HF,target,left,aqua,pleasantness,liberal,no,1,1,1.00031124736,-,-
2019_Oct_29,129,001,3,source,2,KIMONO,LF,target,left,aqua,pleasantness,liberal,no,8,0,0.882690174335,-,-
2019_Oct_29,129,001,3,source,3,BIDDER,LF,target,left,aqua,pleasantness,conservative,no,2,1,1.0705985261,-,-
2019_Oct_29,129,001,3,source,4,HOSPITAL,HF,target,right,yellow,imageability,conservative,no,9,1,1.34146731316,-,-
2019_Oct_29,129,001,3,source,5,MAUSOLEUM,LF,target,right,yellow,imageability,liberal,no,9,1,1.0471548912,-,-
2019_Oct_29,129,001,3,source,6,ACTION,HF,target,left,aqua,pleasantness,liberal,yes,7,0,0.929731051488,-,-
2019_Oct_29,129,001,3,source,7,NICETIES,LF,target,left,aqua,pleasantness,liberal,no,1,1,1.41185504158,-,-
2019_Oct_29,129,001,3,source,8,TOTAL,HF,target,left,aqua,pleasantness,conservative,no,7,0,1.55337873854,-,-
2019_Oct_29,129,001,3,source,9,GIBBERISH,LF,target,left,aqua,pleasantness,liberal,no,3,1,0.75322043865,-,-
2019_Oct_29,129,001,3,source,10,TELEPHONE,HF,target,left,aqua,pleasantness,liberal,no,1,1,0.565179375995,-,-
2019_Oct_29,129,001,3,source,11,BOWER,LF,target,right,yellow,imageability,liberal,no,9,1,1.04748190256,-,-
2019_Oct_29,129,001,3,source,12,TWENTY,HF,target,left,aqua,pleasantness,conservative,no,1,1,1.49449836384,-,-
2019_Oct_29,129,001,3,source,13,THEORY,HF,target,right,yellow,imageability,liberal,no,7,1,1.17657440205,-,-
2019_Oct_29,129,001,3,source,14,TAVERNS,LF,target,right,yellow,imageability,conservative,no,8,1,1.47069472317,-,-
2019_Oct_29,129,001,3,source,15,WHITE,HF,target,left,aqua,pleasantness,conservative,no,1,1,0.988314476412,-,-
2019_Oct_29,129,001,3,source,16,CESSATION,LF,target,left,aqua,pleasantness,liberal,no,3,1,1.22358668404,-,-
2019_Oct_29,129,001,3,source,17,MOLARS,LF,target,left,aqua,pleasantness,liberal,no,1,1,0.741226967146,-,-
2019_Oct_29,129,001,3,source,18,RESEARCH,HF,target,left,aqua,pleasantness,conservative,no,1,1,1.15338189134,-,-
2019_Oct_29,129,001,3,source,19,GUSHED,LF,target,left,aqua,pleasantness,conservative,no,1,1,0.72979880003,-,-
2019_Oct_29,129,001,3,source,20,FRONT,HF,target,left,aqua,pleasantness,liberal,no,1,1,0.623843820548,-,-
2019_Oct_29,129,001,3,source,21,JAUNDICE,LF,target,left,aqua,pleasantness,conservative,yes,1,1,0.788556362167,-,-
2019_Oct_29,129,001,3,source,22,DEVELOPED,HF,target,right,yellow,imageability,liberal,no,7,1,2.04747017121,-,-
2019_Oct_29,129,001,3,source,23,GUILDHALL,LF,target,right,yellow,imageability,conservative,no,9,1,1.18851874853,-,-
2019_Oct_29,129,001,3,source,24,GIVEN,HF,target,right,yellow,imageability,liberal,no,8,1,1.38856391422,-,-
2019_Oct_29,129,001,3,source,25,TIMES,HF,target,right,yellow,imageability,conservative,no,8,1,0.647243462889,-,-
2019_Oct_29,129,001,3,source,26,TALKING,HF,target,right,yellow,imageability,liberal,no,8,1,0.706192759265,-,-
2019_Oct_29,129,001,3,source,27,REEDY,LF,target,right,yellow,imageability,liberal,no,8,1,0.588610546336,-,-
2019_Oct_29,129,001,3,source,28,ANIMAL,HF,target,left,aqua,pleasantness,liberal,no,1,1,0.670860135189,-,-
2019_Oct_29,129,001,3,source,29,POUNDS,HF,target,left,aqua,pleasantness,conservative,no,1,1,0.894407959134,-,-
2019_Oct_29,129,001,3,source,30,USUAL,HF,target,left,aqua,pleasantness,liberal,no,1,1,0.623820724455,-,-
2019_Oct_29,129,001,3,source,31,TETHER,LF,target,left,aqua,pleasantness,conservative,no,2,1,0.929726652232,-,-
2019_Oct_29,129,001,3,source,32,TITAN,LF,target,right,yellow,imageability,conservative,no,9,1,1.0237974084,-,-
2019_Oct_29,129,001,3,source,33,ENHANCES,LF,target,right,yellow,imageability,conservative,no,7,1,1.01206825886,-,-
2019_Oct_29,129,001,3,source,34,TOGETHER,HF,target,left,aqua,pleasantness,conservative,no,3,1,0.823888619638,-,-
2019_Oct_29,129,001,3,source,35,HOURS,HF,target,right,yellow,imageability,conservative,no,7,1,0.882547198517,-,-
2019_Oct_29,129,001,3,source,36,EXACTLY,HF,target,right,yellow,imageability,liberal,no,7,1,1.16471950711,-,-
2019_Oct_29,129,001,3,source,37,FURTHER,HF,target,right,yellow,imageability,conservative,no,8,1,1.04717212162,-,-
2019_Oct_29,129,001,3,source,38,PUMPKIN,LF,target,left,aqua,pleasantness,conservative,no,1,1,0.670802944862,-,-
2019_Oct_29,129,001,3,source,39,MOBILIZE,LF,target,right,yellow,imageability,liberal,yes,1,0,0.812028958836,-,-
2019_Oct_29,129,001,3,source,40,SAFARI,LF,target,left,aqua,pleasantness,conservative,no,1,1,0.670850603468,-,-
2019_Oct_29,129,001,3,source,41,HEEDED,LF,target,right,yellow,imageability,conservative,no,8,1,0.965000619562,-,-
2019_Oct_29,129,001,3,source,42,FLAGGED,LF,target,right,yellow,imageability,liberal,no,7,1,0.800027055424,-,-
2019_Oct_29,129,001,3,source,43,ALLOWED,HF,target,right,yellow,imageability,liberal,no,7,1,0.847182313232,-,-
2019_Oct_29,129,001,3,source,44,SINCE,HF,target,right,yellow,imageability,conservative,no,7,1,0.882575793681,-,-
2019_Oct_29,129,001,3,source,45,ELLIPSE,LF,target,left,aqua,pleasantness,liberal,no,3,1,0.729521646906,-,-
2019_Oct_29,129,001,3,source,46,YEOMAN,LF,target,right,yellow,imageability,conservative,yes,3,0,1.09439300166,-,-
2019_Oct_29,129,001,3,source,47,JELLIES,LF,target,right,yellow,imageability,liberal,no,9,1,1.0825678017,-,-
2019_Oct_29,129,001,3,recog,0,MOBILIZE,LF,target,right,yellow,imageability,liberal,no,z,1,0.847553683754,3,493
2019_Oct_29,129,001,3,recog,1,GIBBERISH,LF,target,left,aqua,pleasantness,liberal,no,z,1,0.647348678427,3,496
2019_Oct_29,129,001,3,recog,2,TOTAL,HF,target,left,aqua,pleasantness,conservative,no,z,1,0.67092465761,1,497
2019_Oct_29,129,001,3,recog,3,FURTHER,HF,target,right,yellow,imageability,conservative,yes,z,1,0.718004028252,1,498
2019_Oct_29,129,001,3,recog,4,OBVIOUSLY,HF,target,left,aqua,pleasantness,liberal,no,m,0,0.918128747158,-3,495
2019_Oct_29,129,001,3,recog,5,CAPITAL,HF,lure,-,-,-,conservative,no,m,1,0.918158075531,3,498
2019_Oct_29,129,001,3,recog,6,DIZZINESS,LF,lure,-,-,-,liberal,no,m,1,1.40010242934,1,499
2019_Oct_29,129,001,3,recog,7,MAUSOLEUM,LF,target,right,yellow,imageability,liberal,no,z,1,0.659093958575,3,502
2019_Oct_29,129,001,3,recog,8,MERELY,HF,lure,-,-,-,liberal,no,z,0,0.906165337236,-1,501
2019_Oct_29,129,001,3,recog,9,CESSATION,LF,target,left,aqua,pleasantness,liberal,no,z,1,0.8827502975,3,504
2019_Oct_29,129,001,3,recog,10,BIDDER,LF,target,left,aqua,pleasantness,conservative,yes,z,1,0.81201282823,1,505
2019_Oct_29,129,001,3,recog,11,TETHER,LF,target,left,aqua,pleasantness,conservative,no,z,1,1.31797895249,1,506
2019_Oct_29,129,001,3,recog,12,PROBABLY,HF,lure,-,-,-,conservative,no,m,1,1.01208512267,3,509
2019_Oct_29,129,001,3,recog,13,MOUTH,HF,lure,-,-,-,conservative,no,m,1,0.600218349736,3,512
2019_Oct_29,129,001,3,recog,14,PIRACY,LF,lure,-,-,-,conservative,no,m,1,0.635607797534,3,515
2019_Oct_29,129,001,3,recog,15,COILING,LF,lure,-,-,-,conservative,no,m,1,0.659275794487,3,518
2019_Oct_29,129,001,3,recog,16,GIVEN,HF,target,right,yellow,imageability,liberal,no,z,1,0.659241700254,3,521
2019_Oct_29,129,001,3,recog,17,HAPPEN,HF,lure,-,-,-,liberal,no,m,1,2.01208145662,1,522
2019_Oct_29,129,001,3,recog,18,GUILDHALL,LF,target,right,yellow,imageability,conservative,no,z,1,0.635572970092,1,523
2019_Oct_29,129,001,3,recog,19,BOWER,LF,target,right,yellow,imageability,liberal,no,z,1,0.929696957255,3,526
2019_Oct_29,129,001,3,recog,20,TOADS,LF,lure,-,-,-,liberal,no,m,1,1.14150793296,1,527
2019_Oct_29,129,001,3,recog,21,TIMES,HF,target,right,yellow,imageability,conservative,no,z,1,0.635531543765,1,528
2019_Oct_29,129,001,3,recog,22,EXHALED,LF,lure,-,-,-,conservative,no,m,1,0.80024225236,3,531
2019_Oct_29,129,001,3,recog,23,ALDER,LF,lure,-,-,-,liberal,no,m,1,0.870902368046,1,532
2019_Oct_29,129,001,3,recog,24,ELLIPSE,LF,target,left,aqua,pleasantness,liberal,no,z,1,0.588693765595,3,535
2019_Oct_29,129,001,3,recog,25,ALONE,HF,lure,-,-,-,liberal,no,m,1,0.541474718576,1,536
2019_Oct_29,129,001,3,recog,26,WHATEVER,HF,target,right,yellow,imageability,conservative,no,z,1,0.682446308914,1,537
2019_Oct_29,129,001,3,recog,27,TARIFF,LF,lure,-,-,-,conservative,no,m,1,0.647427498429,3,540
2019_Oct_29,129,001,3,recog,28,HEEDED,LF,target,right,yellow,imageability,conservative,no,z,1,0.588563987544,1,541
2019_Oct_29,129,001,3,recog,29,NEBULOUS,LF,lure,-,-,-,conservative,no,m,1,1.29448729238,3,544
2019_Oct_29,129,001,3,recog,30,HOSPITAL,HF,target,right,yellow,imageability,conservative,no,z,1,0.800330237479,1,545
2019_Oct_29,129,001,3,recog,31,RESEARCH,HF,target,left,aqua,pleasantness,conservative,no,z,1,0.623769399802,1,546
2019_Oct_29,129,001,3,recog,32,LITANY,LF,lure,-,-,-,liberal,no,m,1,0.69440605279,1,547
2019_Oct_29,129,001,3,recog,33,TWENTY,HF,target,left,aqua,pleasantness,conservative,no,z,1,1.05910180391,1,548
2019_Oct_29,129,001,3,recog,34,PAMPERED,LF,lure,-,-,-,conservative,no,m,1,0.588634009035,3,551
2019_Oct_29,129,001,3,recog,35,TALKING,HF,target,right,yellow,imageability,liberal,no,z,1,0.694477540699,3,554
2019_Oct_29,129,001,3,recog,36,SINCE,HF,target,right,yellow,imageability,conservative,no,m,0,0.823820064566,-1,553
2019_Oct_29,129,001,3,recog,37,NICETIES,LF,target,left,aqua,pleasantness,liberal,no,z,1,0.823843527265,3,556
2019_Oct_29,129,001,3,recog,38,TAVERNS,LF,target,right,yellow,imageability,conservative,no,z,1,0.623785163802,1,557
2019_Oct_29,129,001,3,recog,39,SOMEONE,HF,lure,-,-,-,conservative,no,m,1,0.635697615677,3,560
2019_Oct_29,129,001,3,recog,40,MOLARS,LF,target,left,aqua,pleasantness,liberal,no,z,1,0.706240784475,3,563
2019_Oct_29,129,001,3,recog,41,PUMPKIN,LF,target,left,aqua,pleasantness,conservative,no,z,1,0.541440624342,1,564
2019_Oct_29,129,001,3,recog,42,REEDY,LF,target,right,yellow,imageability,liberal,no,z,1,0.670911093237,3,567
2019_Oct_29,129,001,3,recog,43,MAYBE,HF,lure,-,-,-,liberal,no,z,0,0.706205957033,-1,566
2019_Oct_29,129,001,3,recog,44,TIGHTNESS,LF,lure,-,-,-,liberal,no,m,1,0.694428415674,1,567
2019_Oct_29,129,001,3,recog,45,SECOND,HF,lure,-,-,-,liberal,no,m,1,0.823768739914,1,568
2019_Oct_29,129,001,3,recog,46,ROBBERIES,LF,lure,-,-,-,liberal,no,m,1,0.717859586015,1,569
2019_Oct_29,129,001,3,recog,47,USUAL,HF,target,left,aqua,pleasantness,liberal,no,z,1,0.823773505774,3,572
2019_Oct_29,129,001,3,recog,48,ENHANCES,LF,target,right,yellow,imageability,conservative,no,m,0,0.764945922146,-1,571
2019_Oct_29,129,001,3,recog,49,CUTLER,LF,lure,-,-,-,liberal,no,m,1,1.05914066401,1,572
2019_Oct_29,129,001,3,recog,50,RUNNING,HF,lure,-,-,-,liberal,no,m,1,0.75342023819,1,573
2019_Oct_29,129,001,3,recog,51,KERNEL,LF,lure,-,-,-,conservative,no,m,1,0.659110455785,3,576
2019_Oct_29,129,001,3,recog,52,JAUNDICE,LF,target,left,aqua,pleasantness,conservative,no,z,1,0.635591300325,1,577
2019_Oct_29,129,001,3,recog,53,SAFARI,LF,target,left,aqua,pleasantness,conservative,no,z,1,0.600405684719,1,578
2019_Oct_29,129,001,3,recog,54,TOGETHER,HF,target,left,aqua,pleasantness,conservative,no,z,1,0.600256476621,1,579
2019_Oct_29,129,001,3,recog,55,SOVIET,HF,lure,-,-,-,liberal,no,m,1,0.623793229105,1,580
2019_Oct_29,129,001,3,recog,56,ACCORDING,HF,lure,-,-,-,conservative,no,m,1,0.753323087955,3,583
2019_Oct_29,129,001,3,recog,57,WALKED,HF,lure,-,-,-,conservative,no,m,1,0.412079037032,3,586
2019_Oct_29,129,001,3,recog,58,DEVELOPED,HF,target,right,yellow,imageability,liberal,no,z,1,0.623603694495,3,589
2019_Oct_29,129,001,3,recog,59,HOURS,HF,target,right,yellow,imageability,conservative,no,m,0,0.635658755582,-1,588
2019_Oct_29,129,001,3,recog,60,GUSHED,LF,target,left,aqua,pleasantness,conservative,no,z,1,0.611956664396,1,589
2019_Oct_29,129,001,3,recog,61,ALLOWED,HF,target,right,yellow,imageability,liberal,no,z,1,0.529695710799,3,592
2019_Oct_29,129,001,3,recog,62,KIMONO,LF,target,left,aqua,pleasantness,liberal,no,z,1,0.564987641757,3,595
2019_Oct_29,129,001,3,recog,63,THEORY,HF,target,right,yellow,imageability,liberal,no,z,1,0.647281589774,3,598
2019_Oct_29,129,001,3,recog,64,UNION,HF,lure,-,-,-,conservative,no,m,1,0.717928507692,3,601
2019_Oct_29,129,001,3,recog,65,LOANED,LF,lure,-,-,-,liberal,no,m,1,0.670971949611,1,602
2019_Oct_29,129,001,3,recog,66,CHIEF,HF,lure,-,-,-,liberal,no,m,1,0.576697361253,1,603
2019_Oct_29,129,001,3,recog,67,IDLING,LF,lure,-,-,-,conservative,no,m,1,0.600510167047,3,606
2019_Oct_29,129,001,3,recog,68,DARKEN,LF,lure,-,-,-,conservative,no,m,1,0.635493783485,3,609
2019_Oct_29,129,001,3,recog,69,FLAGGED,LF,target,right,yellow,imageability,liberal,yes,z,1,0.600357292903,3,612
2019_Oct_29,129,001,3,recog,70,DETACH,LF,lure,-,-,-,conservative,no,m,1,0.564698024074,3,615
2019_Oct_29,129,001,3,recog,71,CELLO,LF,lure,-,-,-,liberal,no,m,1,0.776805949554,1,616
2019_Oct_29,129,001,3,recog,72,MIDDLE,HF,lure,-,-,-,conservative,no,m,1,0.670835572677,3,619
2019_Oct_29,129,001,3,recog,73,TELEPHONE,HF,target,left,aqua,pleasantness,liberal,no,z,1,0.659079660993,3,622
2019_Oct_29,129,001,3,recog,74,ANIMAL,HF,target,left,aqua,pleasantness,liberal,no,z,1,0.564993874036,3,625
2019_Oct_29,129,001,3,recog,75,RUSSET,LF,lure,-,-,-,conservative,no,m,1,0.541499647693,3,628
2019_Oct_29,129,001,3,recog,76,NECESSARY,HF,lure,-,-,-,conservative,no,m,1,0.600103969082,3,631
2019_Oct_29,129,001,3,recog,77,OLDER,HF,lure,-,-,-,liberal,no,m,1,0.35320159517,1,632
2019_Oct_29,129,001,3,recog,78,TITAN,LF,target,right,yellow,imageability,conservative,yes,z,1,0.682819145855,1,633
2019_Oct_29,129,001,3,recog,79,DOING,HF,lure,-,-,-,conservative,no,m,1,0.800343801851,3,636
2019_Oct_29,129,001,3,recog,80,SIMILAR,HF,lure,-,-,-,conservative,no,m,1,0.576762250278,3,639
2019_Oct_29,129,001,3,recog,81,EXACTLY,HF,target,right,yellow,imageability,liberal,no,m,0,0.506126697104,-3,636
2019_Oct_29,129,001,3,recog,82,FLOOR,HF,lure,-,-,-,liberal,no,z,0,1.01209318797,-1,635
2019_Oct_29,129,001,3,recog,83,DEJECTED,LF,lure,-,-,-,liberal,no,m,1,0.435782228033,1,636
2019_Oct_29,129,001,3,recog,84,POUNDS,HF,target,left,aqua,pleasantness,conservative,no,z,1,0.64736700866,1,637
2019_Oct_29,129,001,3,recog,85,WHITE,HF,target,left,aqua,pleasantness,conservative,no,z,1,0.694650211494,1,638
2019_Oct_29,129,001,3,recog,86,FRONT,HF,target,left,aqua,pleasantness,liberal,no,m,0,0.953418845093,-3,635
2019_Oct_29,129,001,3,recog,87,SCABS,LF,lure,-,-,-,liberal,no,m,1,0.67100017817,1,636
2019_Oct_29,129,001,3,recog,88,ACTION,HF,target,left,aqua,pleasantness,liberal,no,m,0,1.29439307498,-3,633
2019_Oct_29,129,001,3,recog,89,THING,HF,lure,-,-,-,liberal,no,m,1,0.776570589361,1,634
2019_Oct_29,129,001,3,recog,90,YEOMAN,LF,target,right,yellow,imageability,conservative,no,z,1,0.741208636913,1,635
2019_Oct_29,129,001,3,recog,91,CARRIED,HF,lure,-,-,-,conservative,no,m,1,0.600468374116,3,638
2019_Oct_29,129,001,3,recog,92,CUCKOO,LF,lure,-,-,-,liberal,no,m,1,0.706154265775,1,639
2019_Oct_29,129,001,3,recog,93,JELLIES,LF,target,right,yellow,imageability,liberal,no,z,1,0.623791029477,3,642
2019_Oct_29,129,001,3,recog,94,EFFECT,HF,lure,-,-,-,liberal,no,m,1,1.14141298235,1,643
2019_Oct_29,129,001,3,recog,95,AXIOM,LF,lure,-,-,-,conservative,no,m,1,0.671024740682,3,646
2019_Oct_29,129,001,4,source,0,VOICE,HF,target,left,aqua,pleasantness,conservative,no,1,1,0.953245807692,-,-
2019_Oct_29,129,001,4,source,1,BELIEVE,HF,target,right,yellow,imageability,conservative,no,7,1,0.541501114112,-,-
2019_Oct_29,129,001,4,source,2,SOCIAL,HF,target,left,aqua,pleasantness,liberal,no,3,1,0.294112255814,-,-
2019_Oct_29,129,001,4,source,3,SEEMED,HF,target,left,aqua,pleasantness,conservative,no,3,1,0.259255117984,-,-
2019_Oct_29,129,001,4,source,4,HIKING,LF,target,right,yellow,imageability,conservative,no,7,1,0.176439124929,-,-
2019_Oct_29,129,001,4,source,5,DIPLOMAS,LF,target,left,aqua,pleasantness,liberal,yes,7,0,0.717929607506,-,-
2019_Oct_29,129,001,4,source,6,EYEBALL,LF,target,left,aqua,pleasantness,conservative,no,3,1,0.694444546279,-,-
2019_Oct_29,129,001,4,source,7,SLEEP,HF,target,right,yellow,imageability,liberal,yes,7,1,0.847398609982,-,-
2019_Oct_29,129,001,4,source,8,MUSIC,HF,target,right,yellow,imageability,conservative,no,3,0,0.753298525443,-,-
2019_Oct_29,129,001,4,source,9,LIARS,LF,target,left,aqua,pleasantness,liberal,yes,7,0,0.729437694438,-,-
2019_Oct_29,129,001,4,source,10,GUARDSMEN,LF,target,right,yellow,imageability,liberal,yes,7,1,0.564704622958,-,-
2019_Oct_29,129,001,4,source,11,UNABATED,LF,target,left,aqua,pleasantness,liberal,no,3,1,1.31790379854,-,-
2019_Oct_29,129,001,4,source,12,YEARN,LF,target,left,aqua,pleasantness,liberal,no,3,1,1.01199897057,-,-
2019_Oct_29,129,001,4,source,13,SWAGGER,LF,target,left,aqua,pleasantness,conservative,no,1,1,1.14142654672,-,-
2019_Oct_29,129,001,4,source,14,EITHER,HF,target,right,yellow,imageability,conservative,no,1,0,0.717905778203,-,-
2019_Oct_29,129,001,4,source,15,FUNNILY,LF,target,right,yellow,imageability,conservative,no,7,1,1.03531832649,-,-
2019_Oct_29,129,001,4,source,16,TREES,HF,target,left,aqua,pleasantness,conservative,no,1,1,0.541497448065,-,-
2019_Oct_29,129,001,4,source,17,VORACIOUS,LF,target,left,aqua,pleasantness,conservative,no,1,1,0.859110529106,-,-
2019_Oct_29,129,001,4,source,18,ATTACK,HF,target,left,aqua,pleasantness,liberal,no,1,1,0.823890452662,-,-
2019_Oct_29,129,001,4,source,19,CENTRAL,HF,target,left,aqua,pleasantness,liberal,no,1,1,0.576450269711,-,-
2019_Oct_29,129,001,4,source,20,WESTERN,HF,target,right,yellow,imageability,conservative,no,8,1,1.09435597459,-,-
2019_Oct_29,129,001,4,source,21,ENSCONCED,LF,target,right,yellow,imageability,conservative,no,2,0,1.1531659612,-,-
2019_Oct_29,129,001,4,source,22,ESPECIAL,LF,target,left,aqua,pleasantness,liberal,no,2,1,0.635787067214,-,-
2019_Oct_29,129,001,4,source,23,GORGED,LF,target,right,yellow,imageability,liberal,no,8,1,0.741272426124,-,-
2019_Oct_29,129,001,4,source,24,MODERN,HF,target,right,yellow,imageability,conservative,no,1,0,0.800297976269,-,-
2019_Oct_29,129,001,4,source,25,REQUIRED,HF,target,left,aqua,pleasantness,conservative,no,7,0,1.11772775498,-,-
2019_Oct_29,129,001,4,source,26,GRACES,LF,target,left,aqua,pleasantness,liberal,no,1,1,0.941402277495,-,-
2019_Oct_29,129,001,4,source,27,WATCH,HF,target,right,yellow,imageability,conservative,no,9,1,1.3768596938,-,-
2019_Oct_29,129,001,4,source,28,THANK,HF,target,right,yellow,imageability,liberal,no,9,1,0.612216953706,-,-
2019_Oct_29,129,001,4,source,29,GERANIUMS,LF,target,right,yellow,imageability,liberal,no,9,1,1.09432957906,-,-
2019_Oct_29,129,001,4,source,30,USING,HF,target,right,yellow,imageability,liberal,no,9,1,0.670841071747,-,-
2019_Oct_29,129,001,4,source,31,RAIDER,LF,target,right,yellow,imageability,liberal,no,9,1,0.612119070261,-,-
2019_Oct_29,129,001,4,source,32,PIQUE,LF,target,left,aqua,pleasantness,conservative,no,1,1,1.00004289275,-,-
2019_Oct_29,129,001,4,source,33,COHESIVE,LF,target,left,aqua,pleasantness,conservative,no,1,1,1.37673541482,-,-
2019_Oct_29,129,001,4,source,34,LETTER,HF,target,left,aqua,pleasantness,conservative,no,1,1,0.67084767063,-,-
2019_Oct_29,129,001,4,source,35,VOUCH,LF,target,right,yellow,imageability,conservative,no,3,0,1.02383406886,-,-
2019_Oct_29,129,001,4,source,36,SNEAKED,LF,target,right,yellow,imageability,conservative,no,9,1,1.01217164137,-,-
2019_Oct_29,129,001,4,source,37,FISHY,LF,target,right,yellow,imageability,liberal,no,9,1,0.717950137367,-,-
2019_Oct_29,129,001,4,source,38,AFRAID,HF,target,right,yellow,imageability,liberal,no,9,1,1.2590674164,-,-
2019_Oct_29,129,001,4,source,39,DRINK,HF,target,right,yellow,imageability,liberal,no,9,1,0.694190122644,-,-
2019_Oct_29,129,001,4,source,40,STICKER,LF,target,right,yellow,imageability,conservative,no,9,1,0.64722623247,-,-
2019_Oct_29,129,001,4,source,41,DAUGHTER,HF,target,left,aqua,pleasantness,conservative,no,1,1,0.647090588745,-,-
2019_Oct_29,129,001,4,source,42,MOMENT,HF,target,left,aqua,pleasantness,liberal,no,1,1,0.800420788831,-,-
2019_Oct_29,129,001,4,source,43,OFTEN,HF,target,right,yellow,imageability,liberal,no,3,0,0.929678993626,-,-
2019_Oct_29,129,001,4,source,44,DECIDED,HF,target,left,aqua,pleasantness,liberal,no,7,0,0.765051870894,-,-
2019_Oct_29,129,001,4,source,45,UNRAVEL,LF,target,left,aqua,pleasantness,conservative,no,1,1,1.63572914368,-,-
2019_Oct_29,129,001,4,source,46,AHEAD,HF,target,left,aqua,pleasantness,liberal,no,1,1,0.988465517532,-,-
2019_Oct_29,129,001,4,source,47,USELESSLY,LF,target,right,yellow,imageability,liberal,no,9,1,1.67084473779,-,-
2019_Oct_29,129,001,4,recog,0,REQUIRED,HF,target,left,aqua,pleasantness,conservative,no,z,1,0.812001830091,1,647
2019_Oct_29,129,001,4,recog,1,RAIDER,LF,target,right,yellow,imageability,liberal,no,z,1,0.611832385416,3,650
2019_Oct_29,129,001,4,recog,2,FALCON,LF,lure,-,-,-,liberal,no,m,1,0.823927113127,1,651
2019_Oct_29,129,001,4,recog,3,FIELD,HF,lure,-,-,-,conservative,no,m,1,0.741508886131,3,654
2019_Oct_29,129,001,4,recog,4,BREAK,HF,lure,-,-,-,conservative,no,m,1,0.612017154165,3,657
2019_Oct_29,129,001,4,recog,5,BLOOD,HF,lure,-,-,-,liberal,no,m,1,0.57645173613,1,658
2019_Oct_29,129,001,4,recog,6,INVOLVED,HF,lure,-,-,-,liberal,no,m,1,0.565007805013,1,659
2019_Oct_29,129,001,4,recog,7,SYMBOLIZE,LF,lure,-,-,-,conservative,no,m,1,0.553291853238,3,662
2019_Oct_29,129,001,4,recog,8,MATERIAL,HF,lure,-,-,-,conservative,no,m,1,0.894446452623,3,665
2019_Oct_29,129,001,4,recog,9,GORGED,LF,target,right,yellow,imageability,liberal,no,z,1,0.588543457683,3,668
2019_Oct_29,129,001,4,recog,10,TONAL,LF,lure,-,-,-,conservative,no,m,1,0.588548956753,3,671
2019_Oct_29,129,001,4,recog,11,CAIRN,LF,lure,-,-,-,liberal,no,m,1,0.647319716659,1,672
2019_Oct_29,129,001,4,recog,12,VESTIBULE,LF,lure,-,-,-,liberal,no,m,1,0.647170141956,1,673
2019_Oct_29,129,001,4,recog,13,OFTEN,HF,target,right,yellow,imageability,liberal,no,z,1,0.541568202765,3,676
2019_Oct_29,129,001,4,recog,14,GNOMES,LF,lure,-,-,-,liberal,yes,z,0,0.623701211335,-1,675
2019_Oct_29,129,001,4,recog,15,COHESIVE,LF,target,left,aqua,pleasantness,conservative,no,z,1,0.741312386032,1,676
2019_Oct_29,129,001,4,recog,16,VORACIOUS,LF,target,left,aqua,pleasantness,conservative,no,z,1,0.694185723388,1,677
2019_Oct_29,129,001,4,recog,17,PIGLETS,LF,lure,-,-,-,liberal,no,m,1,0.647146679258,1,678
2019_Oct_29,129,001,4,recog,18,ADENOIDS,LF,lure,-,-,-,liberal,yes,z,0,0.647349045031,-1,677
2019_Oct_29,129,001,4,recog,19,RIVER,HF,lure,-,-,-,liberal,no,m,1,0.682593317384,1,678
2019_Oct_29,129,001,4,recog,20,CHURCH,HF,lure,-,-,-,conservative,no,z,0,0.553059059278,-3,675
2019_Oct_29,129,001,4,recog,21,USING,HF,target,right,yellow,imageability,liberal,yes,z,1,0.741397804918,3,678
2019_Oct_29,129,001,4,recog,22,LIKELY,HF,lure,-,-,-,conservative,no,m,1,0.447077317656,3,681
2019_Oct_29,129,001,4,recog,23,HERSELF,HF,lure,-,-,-,liberal,no,m,1,0.541241924616,1,682
2019_Oct_29,129,001,4,recog,24,UNRAVEL,LF,target,left,aqua,pleasantness,conservative,no,z,1,0.765114926895,1,683
2019_Oct_29,129,001,4,recog,25,TACITLY,LF,lure,-,-,-,conservative,no,m,1,0.694371958556,3,686
2019_Oct_29,129,001,4,recog,26,ATTACK,HF,target,left,aqua,pleasantness,liberal,no,z,1,0.588521828008,3,689
2019_Oct_29,129,001,4,recog,27,YEARN,LF,target,left,aqua,pleasantness,liberal,no,z,1,0.670933089516,3,692
2019_Oct_29,129,001,4,recog,28,LETTER,HF,target,left,aqua,pleasantness,conservative,no,z,1,0.529727605404,1,693
2019_Oct_29,129,001,4,recog,29,LAUNCHER,LF,lure,-,-,-,conservative,no,m,1,0.576763716697,3,696
2019_Oct_29,129,001,4,recog,30,BLACK,HF,lure,-,-,-,conservative,no,m,1,0.659218970765,3,699
2019_Oct_29,129,001,4,recog,31,EYEBALL,LF,target,left,aqua,pleasantness,conservative,no,z,1,0.63554767437,1,700
2019_Oct_29,129,001,4,recog,32,HIKING,LF,target,right,yellow,imageability,conservative,no,z,1,0.800439119064,1,701
2019_Oct_29,129,001,4,recog,33,HEALTH,HF,lure,-,-,-,liberal,no,m,1,0.67088689733,1,702
2019_Oct_29,129,001,4,recog,34,LEARN,HF,lure,-,-,-,liberal,no,m,1,0.812276050377,1,703
2019_Oct_29,129,001,4,recog,35,WATCH,HF,target,right,yellow,imageability,conservative,no,z,1,0.60035545988,1,704
2019_Oct_29,129,001,4,recog,36,MOMENT,HF,target,left,aqua,pleasantness,liberal,no,z,1,0.58845510596,3,707
2019_Oct_29,129,001,4,recog,37,SEEMED,HF,target,left,aqua,pleasantness,conservative,no,m,0,0.588688633129,-1,706
2019_Oct_29,129,001,4,recog,38,WRONG,HF,lure,-,-,-,conservative,no,z,0,1.15333093329,-3,703
2019_Oct_29,129,001,4,recog,39,STICKER,LF,target,right,yellow,imageability,conservative,no,z,1,0.647376906986,1,704
2019_Oct_29,129,001,4,recog,40,VOUCH,LF,target,right,yellow,imageability,conservative,no,z,1,1.96514762803,1,705
2019_Oct_29,129,001,4,recog,41,LIARS,LF,target,left,aqua,pleasantness,liberal,no,z,1,1.75336818033,3,708
2019_Oct_29,129,001,4,recog,42,FUDGE,LF,lure,-,-,-,liberal,no,m,1,0.647363709218,1,709
2019_Oct_29,129,001,4,recog,43,BECAME,HF,lure,-,-,-,conservative,no,m,1,0.988322908319,3,712
2019_Oct_29,129,001,4,recog,44,USELESSLY,LF,target,right,yellow,imageability,liberal,no,z,1,0.788647280123,3,715
2019_Oct_29,129,001,4,recog,45,WESTERN,HF,target,right,yellow,imageability,conservative,no,z,1,0.553211200212,1,716
2019_Oct_29,129,001,4,recog,46,TODAY,HF,lure,-,-,-,conservative,no,m,1,0.741201671424,3,719
2019_Oct_29,129,001,4,recog,47,DAUGHTER,HF,target,left,aqua,pleasantness,conservative,no,z,1,0.576888728886,1,720
2019_Oct_29,129,001,4,recog,48,ENSCONCED,LF,target,right,yellow,imageability,conservative,no,z,1,0.694476807489,1,721
2019_Oct_29,129,001,4,recog,49,AHEAD,HF,target,left,aqua,pleasantness,liberal,no,z,1,0.729702016399,3,724
2019_Oct_29,129,001,4,recog,50,TEACUP,LF,lure,-,-,-,liberal,no,m,1,0.694598153632,1,725
2019_Oct_29,129,001,4,recog,51,FISHY,LF,target,right,yellow,imageability,liberal,no,z,1,0.56514124911,3,728
2019_Oct_29,129,001,4,recog,52,ENLIGHTEN,LF,lure,-,-,-,liberal,no,m,1,0.929467096132,1,729
2019_Oct_29,129,001,4,recog,53,SMALL,HF,lure,-,-,-,liberal,no,m,1,0.788506503934,1,730
2019_Oct_29,129,001,4,recog,54,DIPLOMAS,LF,target,left,aqua,pleasantness,liberal,no,z,1,0.623822924083,3,733
2019_Oct_29,129,001,4,recog,55,VIOLATING,LF,lure,-,-,-,conservative,no,m,1,0.741468193013,3,736
2019_Oct_29,129,001,4,recog,56,DRINK,HF,target,right,yellow,imageability,liberal,no,z,1,0.576773981627,3,739
2019_Oct_29,129,001,4,recog,57,HIVES,LF,lure,-,-,-,conservative,no,m,1,0.859137291246,3,742
2019_Oct_29,129,001,4,recog,58,ESPECIAL,LF,target,left,aqua,pleasantness,liberal,no,z,1,0.670904127749,3,745
2019_Oct_29,129,001,4,recog,59,ADVERSELY,LF,lure,-,-,-,conservative,no,m,1,0.694429148884,3,748
2019_Oct_29,129,001,4,recog,60,IRONICAL,LF,lure,-,-,-,liberal,no,m,1,0.635520545625,1,749
2019_Oct_29,129,001,4,recog,61,SLEEP,HF,target,right,yellow,imageability,liberal,no,m,0,0.729830328031,-3,746
2019_Oct_29,129,001,4,recog,62,GRACES,LF,target,left,aqua,pleasantness,liberal,no,z,1,0.635679652048,3,749
2019_Oct_29,129,001,4,recog,63,GUARDSMEN,LF,target,right,yellow,imageability,liberal,no,z,1,0.647280856565,3,752
2019_Oct_29,129,001,4,recog,64,MEMBERS,HF,lure,-,-,-,liberal,no,m,1,0.776503867313,1,753
2019_Oct_29,129,001,4,recog,65,UNEARTHED,LF,lure,-,-,-,conservative,no,m,1,1.04737815344,3,756
2019_Oct_29,129,001,4,recog,66,SEMANTIC,LF,lure,-,-,-,conservative,no,m,1,0.706188360009,3,759
2019_Oct_29,129,001,4,recog,67,CENTRAL,HF,target,left,aqua,pleasantness,liberal,no,z,1,0.729456757881,3,762
2019_Oct_29,129,001,4,recog,68,TREES,HF,target,left,aqua,pleasantness,conservative,no,z,1,0.647430064662,1,763
2019_Oct_29,129,001,4,recog,69,LEMURS,LF,lure,-,-,-,conservative,no,m,1,0.588485534146,3,766
2019_Oct_29,129,001,4,recog,70,VOICE,HF,target,left,aqua,pleasantness,conservative,no,z,1,0.647123949769,1,767
2019_Oct_29,129,001,4,recog,71,MAKES,HF,lure,-,-,-,liberal,no,m,1,0.565123285482,1,768
2019_Oct_29,129,001,4,recog,72,HANDS,HF,lure,-,-,-,liberal,no,m,1,0.447243022963,1,769
2019_Oct_29,129,001,4,recog,73,FUNNILY,LF,target,right,yellow,imageability,conservative,no,z,1,0.706184327357,1,770
2019_Oct_29,129,001,4,recog,74,QUALITY,HF,lure,-,-,-,conservative,no,m,1,0.576725589812,3,773
2019_Oct_29,129,001,4,recog,75,DOCTOR,HF,lure,-,-,-,liberal,no,m,1,0.753158849066,1,774
2019_Oct_29,129,001,4,recog,76,SOCIAL,HF,target,left,aqua,pleasantness,liberal,no,z,1,0.612036217608,3,777
2019_Oct_29,129,001,4,recog,77,GIMMICKS,LF,lure,-,-,-,liberal,no,m,1,0.706141801217,1,778
2019_Oct_29,129,001,4,recog,78,PONCE,LF,lure,-,-,-,conservative,no,m,1,0.729697617143,3,781
2019_Oct_29,129,001,4,recog,79,MODERN,HF,target,right,yellow,imageability,conservative,no,m,0,0.565094323714,-1,780
2019_Oct_29,129,001,4,recog,80,AFRAID,HF,target,right,yellow,imageability,liberal,no,z,1,0.670828607188,3,783
2019_Oct_29,129,001,4,recog,81,UNABATED,LF,target,left,aqua,pleasantness,liberal,no,m,0,0.918044061481,-3,780
2019_Oct_29,129,001,4,recog,82,EXPECT,HF,lure,-,-,-,conservative,no,m,1,2.03568529776,3,783
2019_Oct_29,129,001,4,recog,83,BELIEVE,HF,target,right,yellow,imageability,conservative,no,m,0,1.50625390892,-1,782
2019_Oct_29,129,001,4,recog,84,PIQUE,LF,target,left,aqua,pleasantness,conservative,no,m,0,0.847403375843,-1,781
2019_Oct_29,129,001,4,recog,85,DECIDED,HF,target,left,aqua,pleasantness,liberal,no,m,0,1.02369475909,-3,778
2019_Oct_29,129,001,4,recog,86,TAUNTED,LF,lure,-,-,-,liberal,no,z,0,0.694127066642,-1,777
2019_Oct_29,129,001,4,recog,87,SWAGGER,LF,target,left,aqua,pleasantness,conservative,no,m,0,1.10636117745,-1,776
2019_Oct_29,129,001,4,recog,88,EITHER,HF,target,right,yellow,imageability,conservative,no,z,1,0.505874839702,1,777
2019_Oct_29,129,001,4,recog,89,MUSIC,HF,target,right,yellow,imageability,conservative,no,z,1,0.647059793954,1,778
2019_Oct_29,129,001,4,recog,90,TAPER,LF,lure,-,-,-,conservative,no,m,1,0.659222270207,3,781
2019_Oct_29,129,001,4,recog,91,HUMAN,HF,lure,-,-,-,conservative,no,m,1,0.576467133526,3,784
2019_Oct_29,129,001,4,recog,92,SNEAKED,LF,target,right,yellow,imageability,conservative,no,z,1,0.741446196733,1,785
2019_Oct_29,129,001,4,recog,93,GERANIUMS,LF,target,right,yellow,imageability,liberal,no,m,0,0.69442731586,-3,782
2019_Oct_29,129,001,4,recog,94,PICTURE,HF,lure,-,-,-,liberal,no,m,1,0.706146200473,1,783
2019_Oct_29,129,001,4,recog,95,THANK,HF,target,right,yellow,imageability,liberal,yes,z,1,0.788358762255,3,786
