date,subj,session,cycle,task,trial,item,wf,type,source,colour,encoding,bias,null,response,corr,rt,points,total
2019_Oct_09,13,001,0,source,0,KIPPERS,LF,target,right,yellow,imageability,conservative,no,7,1,4.56668331046,-,-
2019_Oct_09,13,001,0,source,1,TOGETHER,HF,target,right,yellow,imageability,liberal,no,7,1,3.91673522149,-,-
2019_Oct_09,13,001,0,source,2,ENMESHED,LF,target,left,aqua,pleasantness,conservative,no,3,1,4.66665530196,-,-
2019_Oct_09,13,001,0,source,3,MERELY,HF,target,left,aqua,pleasantness,conservative,no,7,0,3.56650294163,-,-
2019_Oct_09,13,001,0,source,4,YELLOWED,LF,target,right,yellow,imageability,conservative,no,7,1,1.21687519063,-,-
2019_Oct_09,13,001,0,source,5,DOING,HF,target,left,aqua,pleasantness,liberal,no,7,0,1.95023909868,-,-
2019_Oct_09,13,001,0,source,6,VILLAGE,HF,target,left,aqua,pleasantness,conservative,no,3,1,1.36677525457,-,-
2019_Oct_09,13,001,0,source,7,EMPATHY,LF,target,left,aqua,pleasantness,liberal,no,3,1,1.88356861934,-,-
2019_Oct_09,13,001,0,source,8,CASES,HF,target,right,yellow,imageability,conservative,no,7,1,1.7833048116,-,-
2019_Oct_09,13,001,0,source,9,CLASS,HF,target,right,yellow,imageability,conservative,no,7,1,1.86688523556,-,-
2019_Oct_09,13,001,0,source,10,GABLE,LF,target,right,yellow,imageability,liberal,no,3,0,1.06668221065,-,-
2019_Oct_09,13,001,0,source,11,INMATE,LF,target,right,yellow,imageability,liberal,no,7,1,1.05000579233,-,-
2019_Oct_09,13,001,0,source,12,ANYONE,HF,target,right,yellow,imageability,conservative,no,3,0,1.06662941977,-,-
2019_Oct_09,13,001,0,source,13,ATTACK,HF,target,right,yellow,imageability,conservative,no,7,1,1.31687504399,-,-
2019_Oct_09,13,001,0,source,14,RIGGING,LF,target,left,aqua,pleasantness,conservative,no,7,0,1.48354794292,-,-
2019_Oct_09,13,001,0,source,15,HYSTERICS,LF,target,right,yellow,imageability,liberal,no,3,0,2.33342388435,-,-
2019_Oct_09,13,001,0,source,16,VAGABOND,LF,target,right,yellow,imageability,liberal,no,7,1,1.36691896307,-,-
2019_Oct_09,13,001,0,source,17,HAPPEN,HF,target,right,yellow,imageability,liberal,no,3,0,1.366977253,-,-
2019_Oct_09,13,001,0,source,18,MIDDLE,HF,target,left,aqua,pleasantness,conservative,no,3,1,2.73344786021,-,-
2019_Oct_09,13,001,0,source,19,WHITE,HF,target,right,yellow,imageability,conservative,no,7,1,1.2499886353,-,-
2019_Oct_09,13,001,0,source,20,UNKEMPT,LF,target,left,aqua,pleasantness,liberal,no,7,0,1.25017486978,-,-
2019_Oct_09,13,001,0,source,21,BUZZARD,LF,target,left,aqua,pleasantness,liberal,yes,3,1,1.69994068358,-,-
2019_Oct_09,13,001,0,source,22,AGATE,LF,target,left,aqua,pleasantness,liberal,no,7,0,1.03349507872,-,-
2019_Oct_09,13,001,0,source,23,VOICE,HF,target,right,yellow,imageability,liberal,no,7,1,0.933600073907,-,-
2019_Oct_09,13,001,0,source,24,AMPLIFY,LF,target,left,aqua,pleasantness,conservative,no,3,1,1.93350219082,-,-
2019_Oct_09,13,001,0,source,25,EIGHT,HF,target,left,aqua,pleasantness,liberal,no,7,0,0.81693003449,-,-
2019_Oct_09,13,001,0,source,26,AGGRAVATE,LF,target,right,yellow,imageability,liberal,no,7,1,1.21692174926,-,-
2019_Oct_09,13,001,0,source,27,UNZIPPED,LF,target,right,yellow,imageability,conservative,no,3,0,4.65001701039,-,-
2019_Oct_09,13,001,0,source,28,CAPITAL,HF,target,right,yellow,imageability,liberal,no,7,1,1.10026417435,-,-
2019_Oct_09,13,001,0,source,29,BUGGED,LF,target,left,aqua,pleasantness,liberal,no,7,0,1.5501905604,-,-
2019_Oct_09,13,001,0,source,30,BLOOD,HF,target,left,aqua,pleasantness,conservative,no,7,0,2.43326866451,-,-
2019_Oct_09,13,001,0,source,31,KNOWLEDGE,HF,target,left,aqua,pleasantness,liberal,no,7,0,0.766888681635,-,-
2019_Oct_09,13,001,0,source,32,FAMILY,HF,target,left,aqua,pleasantness,liberal,no,7,0,1.08352360046,-,-
2019_Oct_09,13,001,0,source,33,DEGREE,HF,target,right,yellow,imageability,conservative,no,7,1,1.90027326611,-,-
2019_Oct_09,13,001,0,source,34,EARLIER,HF,target,left,aqua,pleasantness,conservative,yes,3,1,0.883359288849,-,-
2019_Oct_09,13,001,0,source,35,WAITING,HF,target,left,aqua,pleasantness,liberal,no,7,0,2.20015991237,-,-
2019_Oct_09,13,001,0,source,36,NETTLE,LF,target,left,aqua,pleasantness,conservative,no,3,1,1.0169843651,-,-
2019_Oct_09,13,001,0,source,37,PATCHY,LF,target,left,aqua,pleasantness,conservative,yes,3,1,0.683567812815,-,-
2019_Oct_09,13,001,0,source,38,TOLERABLY,LF,target,right,yellow,imageability,conservative,no,7,1,0.883556888036,-,-
2019_Oct_09,13,001,0,source,39,ACROSS,HF,target,left,aqua,pleasantness,liberal,no,7,0,0.633572285376,-,-
2019_Oct_09,13,001,0,source,40,VEHEMENCE,LF,target,left,aqua,pleasantness,conservative,no,7,0,1.43327379695,-,-
2019_Oct_09,13,001,0,source,41,SOMEONE,HF,target,right,yellow,imageability,liberal,no,3,0,0.93355388189,-,-
2019_Oct_09,13,001,0,source,42,WAKED,LF,target,left,aqua,pleasantness,liberal,no,7,0,1.40023623918,-,-
2019_Oct_09,13,001,0,source,43,LETTER,HF,target,left,aqua,pleasantness,conservative,no,3,1,1.2500109981,-,-
2019_Oct_09,13,001,0,source,44,TRUTH,HF,target,right,yellow,imageability,liberal,yes,3,0,0.883516928275,-,-
2019_Oct_09,13,001,0,source,45,SARDINES,LF,target,right,yellow,imageability,liberal,no,7,1,1.26694330553,-,-
2019_Oct_09,13,001,0,source,46,ARTIFACTS,LF,target,right,yellow,imageability,conservative,no,7,1,0.966923215668,-,-
2019_Oct_09,13,001,0,source,47,LOUDEST,LF,target,right,yellow,imageability,conservative,no,3,0,0.716643497337,-,-
2019_Oct_09,13,001,0,recog,0,DOTTY,LF,lure,-,-,-,conservative,no,m,1,1.90013615647,3,3
2019_Oct_09,13,001,0,recog,1,AMPLIFY,LF,target,left,aqua,pleasantness,conservative,no,z,1,3.23322423219,1,4
2019_Oct_09,13,001,0,recog,2,SWOOPING,LF,lure,-,-,-,liberal,no,z,0,3.86681998017,-1,3
2019_Oct_09,13,001,0,recog,3,PUMPKIN,LF,lure,-,-,-,liberal,no,z,0,7.48306585955,-1,2
2019_Oct_09,13,001,0,recog,4,CASES,HF,target,right,yellow,imageability,conservative,no,z,1,3.13352572675,1,3
2019_Oct_09,13,001,0,recog,5,SAYING,HF,lure,-,-,-,conservative,no,m,1,1.39998988175,3,6
2019_Oct_09,13,001,0,recog,6,THWART,LF,lure,-,-,-,conservative,no,m,1,1.25030061472,3,9
2019_Oct_09,13,001,0,recog,7,MERELY,HF,target,left,aqua,pleasantness,conservative,no,z,1,2.40020031205,1,10
2019_Oct_09,13,001,0,recog,8,ECLECTIC,LF,lure,-,-,-,liberal,no,m,1,1.20016944405,1,11
2019_Oct_09,13,001,0,recog,9,BUZZARD,LF,target,left,aqua,pleasantness,liberal,no,z,1,1.6335084964,3,14
2019_Oct_09,13,001,0,recog,10,HOSPITAL,HF,lure,-,-,-,conservative,yes,z,0,1.26688868164,-3,11
2019_Oct_09,13,001,0,recog,11,AGGRAVATE,LF,target,right,yellow,imageability,liberal,no,m,0,4.11676205685,-3,8
2019_Oct_09,13,001,0,recog,12,RIGGING,LF,target,left,aqua,pleasantness,conservative,no,z,1,1.70022663417,1,9
2019_Oct_09,13,001,0,recog,13,FORCE,HF,lure,-,-,-,liberal,no,m,1,1.28353430527,1,10
2019_Oct_09,13,001,0,recog,14,YELLOWED,LF,target,right,yellow,imageability,conservative,no,z,1,1.25027311947,1,11
2019_Oct_09,13,001,0,recog,15,SITTING,HF,lure,-,-,-,liberal,no,m,1,1.4669045189,1,12
2019_Oct_09,13,001,0,recog,16,MIDDLE,HF,target,left,aqua,pleasantness,conservative,no,z,1,1.30020192511,1,13
2019_Oct_09,13,001,0,recog,17,CAFETERIA,LF,lure,-,-,-,conservative,no,m,1,0.883615544568,3,16
2019_Oct_09,13,001,0,recog,18,DWARFED,LF,lure,-,-,-,conservative,no,m,1,1.11687350426,3,19
2019_Oct_09,13,001,0,recog,19,CHURCH,HF,lure,-,-,-,conservative,no,m,1,0.750220695197,3,22
2019_Oct_09,13,001,0,recog,20,FANATICS,LF,lure,-,-,-,conservative,no,m,1,0.800025222308,3,25
2019_Oct_09,13,001,0,recog,21,DERANGED,LF,lure,-,-,-,liberal,no,m,1,2.36680714906,1,26
2019_Oct_09,13,001,0,recog,22,DEGREE,HF,target,right,yellow,imageability,conservative,no,z,1,0.883607845897,1,27
2019_Oct_09,13,001,0,recog,23,PREPARED,HF,lure,-,-,-,conservative,no,m,1,0.783588562564,3,30
2019_Oct_09,13,001,0,recog,24,ARTIFACTS,LF,target,right,yellow,imageability,conservative,no,z,1,1.23358313683,1,31
2019_Oct_09,13,001,0,recog,25,CAUGHT,HF,lure,-,-,-,conservative,no,m,1,0.899905196383,3,34
2019_Oct_09,13,001,0,recog,26,CAPITAL,HF,target,right,yellow,imageability,liberal,no,z,1,1.06672546984,3,37
2019_Oct_09,13,001,0,recog,27,VILLAGE,HF,target,left,aqua,pleasantness,conservative,no,z,1,0.666893594121,1,38
2019_Oct_09,13,001,0,recog,28,STAFF,HF,lure,-,-,-,liberal,no,m,1,0.833545963257,1,39
2019_Oct_09,13,001,0,recog,29,WHITE,HF,target,right,yellow,imageability,conservative,no,z,1,1.86673749443,1,40
2019_Oct_09,13,001,0,recog,30,KNOWLEDGE,HF,target,left,aqua,pleasantness,liberal,no,z,1,0.716945211868,3,43
2019_Oct_09,13,001,0,recog,31,UPKEEP,LF,lure,-,-,-,liberal,no,m,1,1.23337783898,1,44
2019_Oct_09,13,001,0,recog,32,WREATH,LF,lure,-,-,-,conservative,no,m,1,1.08330253865,3,47
2019_Oct_09,13,001,0,recog,33,PATCHY,LF,target,left,aqua,pleasantness,conservative,no,z,1,0.9169133907,1,48
2019_Oct_09,13,001,0,recog,34,ACROSS,HF,target,left,aqua,pleasantness,liberal,no,m,0,1.80016563138,-3,45
2019_Oct_09,13,001,0,recog,35,SMALL,HF,lure,-,-,-,liberal,no,m,1,1.30021805565,1,46
2019_Oct_09,13,001,0,recog,36,LABOUR,HF,lure,-,-,-,conservative,no,m,1,3.75004765843,3,49
2019_Oct_09,13,001,0,recog,37,RATHER,HF,lure,-,-,-,conservative,no,m,1,0.883598680814,3,52
2019_Oct_09,13,001,0,recog,38,EARLIER,HF,target,left,aqua,pleasantness,conservative,no,m,0,0.966859060088,-1,51
2019_Oct_09,13,001,0,recog,39,UNZIPPED,LF,target,right,yellow,imageability,conservative,no,z,1,1.41685510077,1,52
2019_Oct_09,13,001,0,recog,40,CENTRAL,HF,lure,-,-,-,liberal,no,m,1,1.26686851845,1,53
2019_Oct_09,13,001,0,recog,41,DOING,HF,target,left,aqua,pleasantness,liberal,no,z,1,1.16687636376,3,56
2019_Oct_09,13,001,0,recog,42,ADHERE,LF,lure,-,-,-,conservative,no,m,1,1.11697212055,3,59
2019_Oct_09,13,001,0,recog,43,VEHEMENCE,LF,target,left,aqua,pleasantness,conservative,no,z,1,1.63351582846,1,60
2019_Oct_09,13,001,0,recog,44,ACCORDING,HF,lure,-,-,-,liberal,no,m,1,1.23365462448,1,61
2019_Oct_09,13,001,0,recog,45,EMPATHY,LF,target,left,aqua,pleasantness,liberal,no,z,1,0.933565246592,3,64
2019_Oct_09,13,001,0,recog,46,ZEBRA,LF,lure,-,-,-,liberal,no,m,1,0.783563266934,1,65
2019_Oct_09,13,001,0,recog,47,ASTERN,LF,lure,-,-,-,conservative,no,m,1,0.916886262055,3,68
2019_Oct_09,13,001,0,recog,48,EIGHT,HF,target,left,aqua,pleasantness,liberal,no,z,1,1.6668466689,3,71
2019_Oct_09,13,001,0,recog,49,SEVEN,HF,lure,-,-,-,liberal,no,m,1,1.23349881807,1,72
2019_Oct_09,13,001,0,recog,50,SARDINES,LF,target,right,yellow,imageability,liberal,no,z,1,1.06695716314,3,75
2019_Oct_09,13,001,0,recog,51,ANYONE,HF,target,right,yellow,imageability,conservative,no,z,1,3.83316982825,1,76
2019_Oct_09,13,001,0,recog,52,KIPPERS,LF,target,right,yellow,imageability,conservative,no,z,1,0.966838530302,1,77
2019_Oct_09,13,001,0,recog,53,GABLE,LF,target,right,yellow,imageability,liberal,no,z,1,1.25021556275,3,80
2019_Oct_09,13,001,0,recog,54,NETTLE,LF,target,left,aqua,pleasantness,conservative,no,z,1,0.716937879801,1,81
2019_Oct_09,13,001,0,recog,55,INMATE,LF,target,right,yellow,imageability,liberal,no,z,1,0.800270846531,3,84
2019_Oct_09,13,001,0,recog,56,ORDER,HF,lure,-,-,-,conservative,no,z,0,4.28340929354,-3,81
2019_Oct_09,13,001,0,recog,57,VOICE,HF,target,right,yellow,imageability,liberal,no,m,0,1.65016915077,-3,78
2019_Oct_09,13,001,0,recog,58,BOTANIST,LF,lure,-,-,-,conservative,no,m,1,0.966842196335,3,81
2019_Oct_09,13,001,0,recog,59,TOLERABLY,LF,target,right,yellow,imageability,conservative,no,z,1,1.28363255496,1,82
2019_Oct_09,13,001,0,recog,60,BLOOD,HF,target,left,aqua,pleasantness,conservative,no,z,1,0.733625662819,1,83
2019_Oct_09,13,001,0,recog,61,ZENITH,LF,lure,-,-,-,liberal,no,m,1,0.733621263578,1,84
2019_Oct_09,13,001,0,recog,62,BROUGHT,HF,lure,-,-,-,conservative,no,m,1,0.733549409329,3,87
2019_Oct_09,13,001,0,recog,63,TRUTH,HF,target,right,yellow,imageability,liberal,no,m,0,1.80012897105,-3,84
2019_Oct_09,13,001,0,recog,64,VAGABOND,LF,target,right,yellow,imageability,liberal,yes,m,0,0.716911117759,-3,81
2019_Oct_09,13,001,0,recog,65,UNKEMPT,LF,target,left,aqua,pleasantness,liberal,no,z,1,4.08340078834,3,84
2019_Oct_09,13,001,0,recog,66,TOGETHER,HF,target,right,yellow,imageability,liberal,no,z,1,1.80016489817,3,87
2019_Oct_09,13,001,0,recog,67,THANK,HF,lure,-,-,-,conservative,no,m,1,0.850269306797,3,90
2019_Oct_09,13,001,0,recog,68,VORACIOUS,LF,lure,-,-,-,liberal,no,m,1,1.06689300755,1,91
2019_Oct_09,13,001,0,recog,69,SOMEONE,HF,target,right,yellow,imageability,liberal,no,z,1,0.950232866428,3,94
2019_Oct_09,13,001,0,recog,70,PLEASE,HF,lure,-,-,-,liberal,no,m,1,4.16676198353,1,95
2019_Oct_09,13,001,0,recog,71,TRIED,HF,lure,-,-,-,conservative,no,m,1,1.05005491718,3,98
2019_Oct_09,13,001,0,recog,72,CLASS,HF,target,right,yellow,imageability,conservative,no,z,1,0.750269820041,1,99
2019_Oct_09,13,001,0,recog,73,DUGOUTS,LF,lure,-,-,-,liberal,no,m,1,0.633612245138,1,100
2019_Oct_09,13,001,0,recog,74,HAPPEN,HF,target,right,yellow,imageability,liberal,no,m,0,1.08358445661,-3,97
2019_Oct_09,13,001,0,recog,75,LETTER,HF,target,left,aqua,pleasantness,conservative,no,z,1,0.85034152765,1,98
2019_Oct_09,13,001,0,recog,76,DELEGATED,LF,lure,-,-,-,liberal,yes,m,1,0.816743800005,1,99
2019_Oct_09,13,001,0,recog,77,BUGGED,LF,target,left,aqua,pleasantness,liberal,no,z,1,0.933504023837,3,102
2019_Oct_09,13,001,0,recog,78,VEXED,LF,lure,-,-,-,conservative,no,m,1,1.06677752751,3,105
2019_Oct_09,13,001,0,recog,79,AGATE,LF,target,left,aqua,pleasantness,liberal,no,z,1,1.30025214976,3,108
2019_Oct_09,13,001,0,recog,80,ADMIRALS,LF,lure,-,-,-,conservative,yes,m,1,0.883614444758,3,111
2019_Oct_09,13,001,0,recog,81,HANDS,HF,lure,-,-,-,conservative,no,m,1,2.65013688968,3,114
2019_Oct_09,13,001,0,recog,82,WAITING,HF,target,left,aqua,pleasantness,liberal,no,z,1,0.700247897164,3,117
2019_Oct_09,13,001,0,recog,83,DYEING,LF,lure,-,-,-,liberal,no,m,1,1.00019100033,1,118
2019_Oct_09,13,001,0,recog,84,ALREADY,HF,lure,-,-,-,liberal,no,z,0,1.06695056428,-1,117
2019_Oct_09,13,001,0,recog,85,HYSTERICS,LF,target,right,yellow,imageability,liberal,no,z,1,0.766946238356,3,120
2019_Oct_09,13,001,0,recog,86,EVIDENCE,HF,lure,-,-,-,liberal,no,m,1,0.750233892916,1,121
2019_Oct_09,13,001,0,recog,87,FAMILY,HF,target,left,aqua,pleasantness,liberal,no,z,1,0.666908624857,3,124
2019_Oct_09,13,001,0,recog,88,ATTACK,HF,target,right,yellow,imageability,conservative,no,z,1,0.766993163581,1,125
2019_Oct_09,13,001,0,recog,89,ROCKER,LF,lure,-,-,-,liberal,no,m,1,0.80022868715,1,126
2019_Oct_09,13,001,0,recog,90,WAKED,LF,target,left,aqua,pleasantness,liberal,no,z,1,0.816895573778,3,129
2019_Oct_09,13,001,0,recog,91,TOILED,LF,lure,-,-,-,conservative,no,m,1,0.833558794374,3,132
2019_Oct_09,13,001,0,recog,92,ENMESHED,LF,target,left,aqua,pleasantness,conservative,no,m,0,0.766994263391,-1,131
2019_Oct_09,13,001,0,recog,93,WINDOW,HF,lure,-,-,-,liberal,no,m,1,2.88339888201,1,132
2019_Oct_09,13,001,0,recog,94,LOUDEST,LF,target,right,yellow,imageability,conservative,no,z,1,0.96673001572,1,133
2019_Oct_09,13,001,0,recog,95,COUNCIL,HF,lure,-,-,-,liberal,no,m,1,1.08329887262,1,134
2019_Oct_09,13,001,1,source,0,CHAIR,HF,target,left,aqua,pleasantness,conservative,no,2,1,5.79968758065,-,-
2019_Oct_09,13,001,1,source,1,ACACIA,LF,target,left,aqua,pleasantness,liberal,no,2,1,1.44998467598,-,-
2019_Oct_09,13,001,1,source,2,JUBILANT,LF,target,right,yellow,imageability,liberal,no,8,1,2.21660976983,-,-
2019_Oct_09,13,001,1,source,3,SIGNPOST,LF,target,right,yellow,imageability,conservative,no,7,1,5.94993775076,-,-
2019_Oct_09,13,001,1,source,4,TIERS,LF,target,left,aqua,pleasantness,liberal,no,7,0,0.966982605406,-,-
2019_Oct_09,13,001,1,source,5,LATER,HF,target,right,yellow,imageability,liberal,no,7,1,3.86675729101,-,-
2019_Oct_09,13,001,1,source,6,LONGER,HF,target,right,yellow,imageability,liberal,yes,7,1,1.18354618322,-,-
2019_Oct_09,13,001,1,source,7,IRATE,LF,target,left,aqua,pleasantness,conservative,no,7,0,3.1834112732,-,-
2019_Oct_09,13,001,1,source,8,EMBATTLED,LF,target,left,aqua,pleasantness,conservative,no,2,1,2.08330180545,-,-
2019_Oct_09,13,001,1,source,9,UNION,HF,target,left,aqua,pleasantness,liberal,no,1,1,1.49999450095,-,-
2019_Oct_09,13,001,1,source,10,TERMS,HF,target,right,yellow,imageability,liberal,no,1,0,0.933605572956,-,-
2019_Oct_09,13,001,1,source,11,CHIEF,HF,target,left,aqua,pleasantness,liberal,no,1,1,0.566916103564,-,-
2019_Oct_09,13,001,1,source,12,ADVERSELY,LF,target,right,yellow,imageability,liberal,no,7,1,5.44985819784,-,-
2019_Oct_09,13,001,1,source,13,SUGARY,LF,target,right,yellow,imageability,liberal,no,8,1,3.5501454682,-,-
2019_Oct_09,13,001,1,source,14,PUCKERED,LF,target,right,yellow,imageability,liberal,no,3,0,2.15015668626,-,-
2019_Oct_09,13,001,1,source,15,SIMILAR,HF,target,right,yellow,imageability,liberal,no,7,1,3.85008490533,-,-
2019_Oct_09,13,001,1,source,16,SOVIET,HF,target,right,yellow,imageability,conservative,no,7,1,1.76664452383,-,-
2019_Oct_09,13,001,1,source,17,AWAITS,LF,target,right,yellow,imageability,conservative,no,7,1,5.21663799829,-,-
2019_Oct_09,13,001,1,source,18,LANGUAGE,HF,target,right,yellow,imageability,conservative,no,7,1,1.3499716249,-,-
2019_Oct_09,13,001,1,source,19,ITSELF,HF,target,left,aqua,pleasantness,liberal,no,3,1,1.833296673,-,-
2019_Oct_09,13,001,1,source,20,WELCOMES,LF,target,left,aqua,pleasantness,conservative,no,1,1,2.63345533892,-,-
2019_Oct_09,13,001,1,source,21,VACATED,LF,target,left,aqua,pleasantness,liberal,no,2,1,5.10001451749,-,-
2019_Oct_09,13,001,1,source,22,REFECTORY,LF,target,right,yellow,imageability,conservative,no,7,1,2.36681374792,-,-
2019_Oct_09,13,001,1,source,23,EASILY,HF,target,left,aqua,pleasantness,liberal,no,3,1,2.86678551946,-,-
2019_Oct_09,13,001,1,source,24,SPOKE,HF,target,right,yellow,imageability,liberal,no,8,1,2.58359728772,-,-
2019_Oct_09,13,001,1,source,25,SNUBBED,LF,target,left,aqua,pleasantness,liberal,no,7,0,1.20015148049,-,-
2019_Oct_09,13,001,1,source,26,NUCLEAR,HF,target,right,yellow,imageability,conservative,no,8,1,4.41666666667,-,-
2019_Oct_09,13,001,1,source,27,SPLASHES,LF,target,left,aqua,pleasantness,conservative,no,2,1,2.4834467604,-,-
2019_Oct_09,13,001,1,source,28,JASMINE,LF,target,left,aqua,pleasantness,liberal,no,1,1,1.73363336149,-,-
2019_Oct_09,13,001,1,source,29,HARDLY,HF,target,left,aqua,pleasantness,conservative,no,8,0,3.41670112738,-,-
2019_Oct_09,13,001,1,source,30,BATCHES,LF,target,right,yellow,imageability,liberal,no,7,1,2.68342813695,-,-
2019_Oct_09,13,001,1,source,31,TELEPHONE,HF,target,left,aqua,pleasantness,conservative,no,1,1,3.41653175665,-,-
2019_Oct_09,13,001,1,source,32,WRONG,HF,target,left,aqua,pleasantness,conservative,no,8,0,2.36693142758,-,-
2019_Oct_09,13,001,1,source,33,LOCAL,HF,target,left,aqua,pleasantness,liberal,yes,7,0,1.18353408531,-,-
2019_Oct_09,13,001,1,source,34,CHOICE,HF,target,left,aqua,pleasantness,conservative,no,1,1,3.68340797377,-,-
2019_Oct_09,13,001,1,source,35,JOCKEYS,LF,target,right,yellow,imageability,conservative,no,9,1,1.96692761491,-,-
2019_Oct_09,13,001,1,source,36,BEGAN,HF,target,right,yellow,imageability,conservative,yes,8,1,1.06686661212,-,-
2019_Oct_09,13,001,1,source,37,GOADED,LF,target,right,yellow,imageability,liberal,no,2,0,4.69997111166,-,-
2019_Oct_09,13,001,1,source,38,STOOD,HF,target,left,aqua,pleasantness,conservative,yes,2,1,0.617012080313,-,-
2019_Oct_09,13,001,1,source,39,POUNDS,HF,target,left,aqua,pleasantness,liberal,no,9,0,4.16646503484,-,-
2019_Oct_09,13,001,1,source,40,BELIEVE,HF,target,right,yellow,imageability,conservative,no,8,1,1.56696852784,-,-
2019_Oct_09,13,001,1,source,41,GYMKHANA,LF,target,left,aqua,pleasantness,conservative,no,1,1,0.98335071033,-,-
2019_Oct_09,13,001,1,source,42,MOVED,HF,target,right,yellow,imageability,conservative,no,8,1,3.21676814246,-,-
2019_Oct_09,13,001,1,source,43,EMACIATED,LF,target,left,aqua,pleasantness,conservative,no,2,1,1.40019297999,-,-
2019_Oct_09,13,001,1,source,44,PLIABLE,LF,target,right,yellow,imageability,conservative,no,9,1,2.93323786983,-,-
2019_Oct_09,13,001,1,source,45,FIGURE,HF,target,right,yellow,imageability,liberal,no,9,1,1.11686543899,-,-
2019_Oct_09,13,001,1,source,46,SIESTA,LF,target,left,aqua,pleasantness,liberal,no,1,1,1.18360483975,-,-
2019_Oct_09,13,001,1,source,47,AQUARIUM,LF,target,right,yellow,imageability,conservative,no,9,1,2.5669095047,-,-
2019_Oct_09,13,001,1,recog,0,CARRIED,HF,lure,-,-,-,liberal,no,None,-1,-1,-1,133
2019_Oct_09,13,001,1,recog,1,SUDDENLY,HF,lure,-,-,-,liberal,no,z,0,7.79957943267,-1,132
2019_Oct_09,13,001,1,recog,2,WHATEVER,HF,lure,-,-,-,liberal,no,m,1,3.10010030267,1,133
2019_Oct_09,13,001,1,recog,3,CHIEF,HF,target,left,aqua,pleasantness,liberal,no,z,1,2.73345042643,3,136
2019_Oct_09,13,001,1,recog,4,SODDING,LF,lure,-,-,-,conservative,no,m,1,1.10031586542,3,139
2019_Oct_09,13,001,1,recog,5,SORRY,HF,lure,-,-,-,liberal,no,m,1,2.56688090965,1,140
2019_Oct_09,13,001,1,recog,6,GREATER,HF,lure,-,-,-,liberal,no,m,1,0.800230153563,1,141
2019_Oct_09,13,001,1,recog,7,GOADED,LF,target,right,yellow,imageability,liberal,no,z,1,0.700220401915,3,144
2019_Oct_09,13,001,1,recog,8,BELIEVE,HF,target,right,yellow,imageability,conservative,no,z,1,0.833504537083,1,145
2019_Oct_09,13,001,1,recog,9,PICTURE,HF,lure,-,-,-,conservative,no,m,1,0.966936779992,3,148
2019_Oct_09,13,001,1,recog,10,BEGAN,HF,target,right,yellow,imageability,conservative,no,z,1,1.95022626757,1,149
2019_Oct_09,13,001,1,recog,11,TERMS,HF,target,right,yellow,imageability,liberal,no,z,1,0.716701420661,3,152
2019_Oct_09,13,001,1,recog,12,ACACIA,LF,target,left,aqua,pleasantness,liberal,no,z,1,0.666655668567,3,155
2019_Oct_09,13,001,1,recog,13,SIESTA,LF,target,left,aqua,pleasantness,liberal,no,z,1,0.650289396659,3,158
2019_Oct_09,13,001,1,recog,14,RUINOUS,LF,lure,-,-,-,conservative,no,m,1,0.800234552802,3,161
2019_Oct_09,13,001,1,recog,15,SPLASHES,LF,target,left,aqua,pleasantness,conservative,no,z,1,0.950015837264,1,162
2019_Oct_09,13,001,1,recog,16,EXCEPT,HF,lure,-,-,-,conservative,no,m,1,1.81684204969,3,165
2019_Oct_09,13,001,1,recog,17,POUNDS,HF,target,left,aqua,pleasantness,liberal,no,z,1,0.716943378851,3,168
2019_Oct_09,13,001,1,recog,18,DUPLICITY,LF,lure,-,-,-,liberal,no,m,1,0.766897113512,1,169
2019_Oct_09,13,001,1,recog,19,ECONOMIC,HF,lure,-,-,-,conservative,no,m,1,0.800342334178,3,172
2019_Oct_09,13,001,1,recog,20,DEBACLE,LF,lure,-,-,-,conservative,yes,m,1,0.850023315971,3,175
2019_Oct_09,13,001,1,recog,21,SNUBBED,LF,target,left,aqua,pleasantness,liberal,no,z,1,4.49996883872,3,178
2019_Oct_09,13,001,1,recog,22,UNDER,HF,lure,-,-,-,liberal,no,m,1,1.66679901046,1,179
2019_Oct_09,13,001,1,recog,23,VEILING,LF,lure,-,-,-,conservative,no,m,1,0.733568472701,3,182
2019_Oct_09,13,001,1,recog,24,DEDICATE,LF,lure,-,-,-,liberal,no,m,1,2.35011826623,1,183
2019_Oct_09,13,001,1,recog,25,FIGURE,HF,target,right,yellow,imageability,liberal,no,z,1,0.633519494498,3,186
2019_Oct_09,13,001,1,recog,26,LATER,HF,target,right,yellow,imageability,liberal,no,z,1,0.950067161728,3,189
2019_Oct_09,13,001,1,recog,27,POSITION,HF,lure,-,-,-,conservative,no,m,1,0.850224947796,3,192
2019_Oct_09,13,001,1,recog,28,JASMINE,LF,target,left,aqua,pleasantness,liberal,yes,z,1,1.70017787593,3,195
2019_Oct_09,13,001,1,recog,29,SUGARY,LF,target,right,yellow,imageability,liberal,no,z,1,2.01685312111,3,198
2019_Oct_09,13,001,1,recog,30,AWAITS,LF,target,right,yellow,imageability,conservative,no,z,1,1.00016753772,1,199
2019_Oct_09,13,001,1,recog,31,IRATE,LF,target,left,aqua,pleasantness,conservative,no,z,1,0.816920869407,1,200
2019_Oct_09,13,001,1,recog,32,SPOKE,HF,target,right,yellow,imageability,liberal,no,z,1,0.850321364468,3,203
2019_Oct_09,13,001,1,recog,33,WONDROUS,LF,lure,-,-,-,liberal,no,m,1,0.916936853311,1,204
2019_Oct_09,13,001,1,recog,34,SOFTENING,LF,lure,-,-,-,liberal,no,m,1,1.41690899146,1,205
2019_Oct_09,13,001,1,recog,35,AQUARIUM,LF,target,right,yellow,imageability,conservative,no,z,1,1.00018953391,1,206
2019_Oct_09,13,001,1,recog,36,GLEANED,LF,lure,-,-,-,liberal,no,m,1,0.900016277187,1,207
2019_Oct_09,13,001,1,recog,37,WETTER,LF,lure,-,-,-,conservative,no,m,1,0.833581157176,3,210
2019_Oct_09,13,001,1,recog,38,ACTION,HF,lure,-,-,-,conservative,no,m,1,1.20025632904,3,213
2019_Oct_09,13,001,1,recog,39,STOOD,HF,target,left,aqua,pleasantness,conservative,no,z,1,0.900271433096,1,214
2019_Oct_09,13,001,1,recog,40,STEADFAST,LF,lure,-,-,-,liberal,no,m,1,0.883550289176,1,215
2019_Oct_09,13,001,1,recog,41,LOCAL,HF,target,left,aqua,pleasantness,liberal,no,z,1,0.700269526759,3,218
2019_Oct_09,13,001,1,recog,42,EMACIATED,LF,target,left,aqua,pleasantness,conservative,no,z,1,0.850196352737,1,219
2019_Oct_09,13,001,1,recog,43,REACHED,HF,lure,-,-,-,liberal,no,m,1,0.750186601089,1,220
2019_Oct_09,13,001,1,recog,44,SIGNPOST,LF,target,right,yellow,imageability,conservative,no,m,0,1.20022406795,-1,219
2019_Oct_09,13,001,1,recog,45,TIERS,LF,target,left,aqua,pleasantness,liberal,no,z,1,1.48334814411,3,222
2019_Oct_09,13,001,1,recog,46,WELCOMES,LF,target,left,aqua,pleasantness,conservative,no,z,1,0.600242911359,1,223
2019_Oct_09,13,001,1,recog,47,UNION,HF,target,left,aqua,pleasantness,liberal,no,z,1,0.600340794444,3,226
2019_Oct_09,13,001,1,recog,48,VACATED,LF,target,left,aqua,pleasantness,liberal,no,z,1,0.966927981511,3,229
2019_Oct_09,13,001,1,recog,49,AMONG,HF,lure,-,-,-,liberal,no,m,1,0.966926881702,1,230
2019_Oct_09,13,001,1,recog,50,CHEEKBONE,LF,lure,-,-,-,liberal,no,m,1,0.766900046338,1,231
2019_Oct_09,13,001,1,recog,51,ADVERSELY,LF,target,right,yellow,imageability,liberal,no,z,1,0.983539511039,3,234
2019_Oct_09,13,001,1,recog,52,DRUDGERY,LF,lure,-,-,-,liberal,no,m,1,0.783544936769,1,235
2019_Oct_09,13,001,1,recog,53,BATCHES,LF,target,right,yellow,imageability,liberal,yes,z,1,1.28331874252,3,238
2019_Oct_09,13,001,1,recog,54,TODAY,HF,lure,-,-,-,conservative,no,m,1,2.00028045154,3,241
2019_Oct_09,13,001,1,recog,55,LANGUAGE,HF,target,right,yellow,imageability,conservative,no,z,1,0.650305160601,1,242
2019_Oct_09,13,001,1,recog,56,MOVED,HF,target,right,yellow,imageability,conservative,no,z,1,0.566676711598,1,243
2019_Oct_09,13,001,1,recog,57,FONDLE,LF,lure,-,-,-,liberal,no,m,1,0.833589955656,1,244
2019_Oct_09,13,001,1,recog,58,NUCLEAR,HF,target,right,yellow,imageability,conservative,no,z,1,1.71663689848,1,245
2019_Oct_09,13,001,1,recog,59,CAVERN,LF,lure,-,-,-,liberal,no,m,1,0.716961709017,1,246
2019_Oct_09,13,001,1,recog,60,CHAIR,HF,target,left,aqua,pleasantness,conservative,no,z,1,1.20026072828,1,247
2019_Oct_09,13,001,1,recog,61,WRONG,HF,target,left,aqua,pleasantness,conservative,no,z,1,1.28334037212,1,248
2019_Oct_09,13,001,1,recog,62,FACILE,LF,lure,-,-,-,conservative,no,m,1,0.800190193801,3,251
2019_Oct_09,13,001,1,recog,63,NEOLITHIC,LF,lure,-,-,-,liberal,no,m,1,0.700353845523,1,252
2019_Oct_09,13,001,1,recog,64,REFECTORY,LF,target,right,yellow,imageability,conservative,no,z,1,1.13344983987,1,253
2019_Oct_09,13,001,1,recog,65,SIMILAR,HF,target,right,yellow,imageability,liberal,no,z,1,2.18350255742,3,256
2019_Oct_09,13,001,1,recog,66,WHOLE,HF,lure,-,-,-,conservative,no,m,1,0.933400641702,3,259
2019_Oct_09,13,001,1,recog,67,WHETHER,HF,lure,-,-,-,conservative,no,m,1,0.733567739495,3,262
2019_Oct_09,13,001,1,recog,68,CHOICE,HF,target,left,aqua,pleasantness,conservative,no,z,1,0.75023425952,1,263
2019_Oct_09,13,001,1,recog,69,BOOKS,HF,lure,-,-,-,conservative,no,m,1,0.900015177378,3,266
2019_Oct_09,13,001,1,recog,70,MAYBE,HF,lure,-,-,-,liberal,no,z,0,0.983552708759,-1,265
2019_Oct_09,13,001,1,recog,71,OPTIC,LF,lure,-,-,-,conservative,no,m,1,0.766693282068,3,268
2019_Oct_09,13,001,1,recog,72,POWER,HF,lure,-,-,-,conservative,no,m,1,1.10021908214,3,271
2019_Oct_09,13,001,1,recog,73,LEVEL,HF,lure,-,-,-,liberal,no,m,1,0.73352301389,1,272
2019_Oct_09,13,001,1,recog,74,VOLITION,LF,lure,-,-,-,conservative,no,m,1,0.833673541212,3,275
2019_Oct_09,13,001,1,recog,75,LONGER,HF,target,right,yellow,imageability,liberal,no,z,1,1.19995461451,3,278
2019_Oct_09,13,001,1,recog,76,GYMKHANA,LF,target,left,aqua,pleasantness,conservative,no,z,1,0.833600220549,1,279
2019_Oct_09,13,001,1,recog,77,EBULLIENT,LF,lure,-,-,-,conservative,no,m,1,1.11685480749,3,282
2019_Oct_09,13,001,1,recog,78,JOCKEYS,LF,target,right,yellow,imageability,conservative,no,z,1,0.733573971751,1,283
2019_Oct_09,13,001,1,recog,79,NEITHER,HF,lure,-,-,-,liberal,no,m,1,0.866912730814,1,284
2019_Oct_09,13,001,1,recog,80,AFIELD,LF,lure,-,-,-,liberal,no,m,1,0.766942572323,1,285
2019_Oct_09,13,001,1,recog,81,WRANGLING,LF,lure,-,-,-,conservative,no,m,1,1.066853781,3,288
2019_Oct_09,13,001,1,recog,82,EASILY,HF,target,left,aqua,pleasantness,liberal,no,z,1,0.783621556862,3,291
2019_Oct_09,13,001,1,recog,83,HARDLY,HF,target,left,aqua,pleasantness,conservative,no,z,1,1.35024144494,1,292
2019_Oct_09,13,001,1,recog,84,SCRABBLE,LF,lure,-,-,-,conservative,no,m,1,1.2168715246,3,295
2019_Oct_09,13,001,1,recog,85,SOVIET,HF,target,right,yellow,imageability,conservative,no,z,1,0.766681184158,1,296
2019_Oct_09,13,001,1,recog,86,TELEPHONE,HF,target,left,aqua,pleasantness,conservative,no,z,1,0.883599780625,1,297
2019_Oct_09,13,001,1,recog,87,PLIABLE,LF,target,right,yellow,imageability,conservative,no,z,1,0.766859719974,1,298
2019_Oct_09,13,001,1,recog,88,PUCKERED,LF,target,right,yellow,imageability,liberal,no,z,1,1.21690231928,3,301
2019_Oct_09,13,001,1,recog,89,ITSELF,HF,target,left,aqua,pleasantness,liberal,no,m,0,0.733631895076,-3,298
2019_Oct_09,13,001,1,recog,90,VARIOUS,HF,lure,-,-,-,conservative,no,m,1,1.73334814411,3,301
2019_Oct_09,13,001,1,recog,91,NARRATOR,LF,lure,-,-,-,conservative,no,m,1,0.683546916426,3,304
2019_Oct_09,13,001,1,recog,92,EMBATTLED,LF,target,left,aqua,pleasantness,conservative,yes,m,0,1.31688347587,-1,303
2019_Oct_09,13,001,1,recog,93,AHEAD,HF,lure,-,-,-,liberal,no,z,0,2.4334669969,-1,302
2019_Oct_09,13,001,1,recog,94,JUBILANT,LF,target,right,yellow,imageability,liberal,no,z,1,0.583676840642,3,305
2019_Oct_09,13,001,1,recog,95,INCLUDING,HF,lure,-,-,-,conservative,no,m,1,0.866895133855,3,308
2019_Oct_09,13,001,2,source,0,JOVIAL,LF,target,right,yellow,imageability,conservative,no,2,0,3.51678896553,-,-
2019_Oct_09,13,001,2,source,1,REQUIRED,HF,target,left,aqua,pleasantness,conservative,no,2,1,6.06666681331,-,-
2019_Oct_09,13,001,2,source,2,NUMBER,HF,target,right,yellow,imageability,conservative,no,9,1,5.93308096361,-,-
2019_Oct_09,13,001,2,source,3,BREAK,HF,target,left,aqua,pleasantness,conservative,no,1,1,2.85021211668,-,-
2019_Oct_09,13,001,2,source,4,RESEARCH,HF,target,left,aqua,pleasantness,liberal,no,1,1,1.6999641462,-,-
2019_Oct_09,13,001,2,source,5,UNEARTHED,LF,target,right,yellow,imageability,liberal,no,7,1,2.06683471763,-,-
2019_Oct_09,13,001,2,source,6,HIGHER,HF,target,left,aqua,pleasantness,conservative,no,3,1,1.58353606497,-,-
2019_Oct_09,13,001,2,source,7,NEARLY,HF,target,right,yellow,imageability,conservative,yes,3,0,1.36685700711,-,-
2019_Oct_09,13,001,2,source,8,EMULATION,LF,target,left,aqua,pleasantness,liberal,no,3,1,1.03354530337,-,-
2019_Oct_09,13,001,2,source,9,DOSSIERS,LF,target,left,aqua,pleasantness,liberal,no,3,1,0.783563633538,-,-
2019_Oct_09,13,001,2,source,10,KITCHEN,HF,target,right,yellow,imageability,liberal,no,8,1,3.40012222555,-,-
2019_Oct_09,13,001,2,source,11,DOCTOR,HF,target,right,yellow,imageability,conservative,no,9,1,0.933565979799,-,-
2019_Oct_09,13,001,2,source,12,FOLLOWED,HF,target,left,aqua,pleasantness,conservative,no,1,1,3.34992286666,-,-
2019_Oct_09,13,001,2,source,13,SPACE,HF,target,right,yellow,imageability,liberal,yes,7,1,2.29984815291,-,-
2019_Oct_09,13,001,2,source,14,LOOKED,HF,target,right,yellow,imageability,liberal,no,7,1,2.13353012599,-,-
2019_Oct_09,13,001,2,source,15,BAIZE,LF,target,left,aqua,pleasantness,liberal,no,2,1,1.11690869818,-,-
2019_Oct_09,13,001,2,source,16,BUOYANCY,LF,target,left,aqua,pleasantness,liberal,no,1,1,0.966872257807,-,-
2019_Oct_09,13,001,2,source,17,AEONS,LF,target,right,yellow,imageability,liberal,no,2,0,3.29993943713,-,-
2019_Oct_09,13,001,2,source,18,MATERIAL,HF,target,left,aqua,pleasantness,conservative,no,2,1,2.13350263075,-,-
2019_Oct_09,13,001,2,source,19,CRONE,LF,target,right,yellow,imageability,conservative,no,7,1,1.48348342073,-,-
2019_Oct_09,13,001,2,source,20,HOWEVER,HF,target,right,yellow,imageability,conservative,no,7,1,1.85013879602,-,-
2019_Oct_09,13,001,2,source,21,MOISTENED,LF,target,right,yellow,imageability,conservative,no,9,1,1.70017750933,-,-
2019_Oct_09,13,001,2,source,22,HUMAN,HF,target,right,yellow,imageability,liberal,no,8,1,2.16694821801,-,-
2019_Oct_09,13,001,2,source,23,LIVED,HF,target,left,aqua,pleasantness,liberal,no,7,0,1.68351392213,-,-
2019_Oct_09,13,001,2,source,24,FENCED,LF,target,right,yellow,imageability,liberal,no,9,1,2.84995879379,-,-
2019_Oct_09,13,001,2,source,25,LUSCIOUS,LF,target,left,aqua,pleasantness,liberal,yes,7,0,1.13360454647,-,-
2019_Oct_09,13,001,2,source,26,COGENT,LF,target,right,yellow,imageability,liberal,yes,7,1,0.58333076711,-,-
2019_Oct_09,13,001,2,source,27,LARGE,HF,target,left,aqua,pleasantness,liberal,no,2,1,2.21678060698,-,-
2019_Oct_09,13,001,2,source,28,OMELETTE,LF,target,left,aqua,pleasantness,conservative,no,1,1,1.81685818024,-,-
2019_Oct_09,13,001,2,source,29,NOMAD,LF,target,right,yellow,imageability,conservative,no,9,1,1.31687431079,-,-
2019_Oct_09,13,001,2,source,30,OFFER,HF,target,right,yellow,imageability,liberal,no,3,0,1.33332380165,-,-
2019_Oct_09,13,001,2,source,31,PLUGGING,LF,target,right,yellow,imageability,liberal,no,2,0,1.23365499108,-,-
2019_Oct_09,13,001,2,source,32,BASIC,HF,target,right,yellow,imageability,liberal,no,7,1,1.60018792086,-,-
2019_Oct_09,13,001,2,source,33,SUPPORT,HF,target,left,aqua,pleasantness,liberal,no,1,1,4.01677063537,-,-
2019_Oct_09,13,001,2,source,34,SERIOUS,HF,target,left,aqua,pleasantness,liberal,no,1,1,1.21691698341,-,-
2019_Oct_09,13,001,2,source,35,FIELD,HF,target,right,yellow,imageability,conservative,no,9,1,1.66659847845,-,-
2019_Oct_09,13,001,2,source,36,LULLED,LF,target,left,aqua,pleasantness,liberal,no,1,1,1.83355622815,-,-
2019_Oct_09,13,001,2,source,37,PINAFORE,LF,target,left,aqua,pleasantness,conservative,no,3,1,1.21688655534,-,-
2019_Oct_09,13,001,2,source,38,MINISTER,HF,target,right,yellow,imageability,conservative,no,9,1,1.8166767116,-,-
2019_Oct_09,13,001,2,source,39,BEECHES,LF,target,right,yellow,imageability,conservative,no,9,1,1.16693245407,-,-
2019_Oct_09,13,001,2,source,40,ANEMONES,LF,target,right,yellow,imageability,conservative,no,7,1,1.05022098848,-,-
2019_Oct_09,13,001,2,source,41,VIBRATE,LF,target,left,aqua,pleasantness,conservative,no,1,1,1.26692827479,-,-
2019_Oct_09,13,001,2,source,42,MAKES,HF,target,left,aqua,pleasantness,conservative,no,7,0,1.200229567,-,-
2019_Oct_09,13,001,2,source,43,ZEALOTS,LF,target,right,yellow,imageability,liberal,no,3,0,1.06692196922,-,-
2019_Oct_09,13,001,2,source,44,KETCHUP,LF,target,left,aqua,pleasantness,conservative,no,1,1,3.60003064804,-,-
2019_Oct_09,13,001,2,source,45,LOGGED,LF,target,left,aqua,pleasantness,conservative,no,9,0,1.60018938727,-,-
2019_Oct_09,13,001,2,source,46,GLASS,HF,target,left,aqua,pleasantness,liberal,no,7,0,1.16666959949,-,-
2019_Oct_09,13,001,2,source,47,HOPPER,LF,target,left,aqua,pleasantness,conservative,no,7,0,1.21683009843,-,-
2019_Oct_09,13,001,2,recog,0,MIMICKED,LF,lure,-,-,-,conservative,no,m,1,1.58351993442,3,311
2019_Oct_09,13,001,2,recog,1,OFFER,HF,target,right,yellow,imageability,liberal,no,m,0,2.61679138511,-3,308
2019_Oct_09,13,001,2,recog,2,NEARLY,HF,target,right,yellow,imageability,conservative,no,m,0,1.05025251636,-1,307
2019_Oct_09,13,001,2,recog,3,STRAIGHT,HF,lure,-,-,-,conservative,no,m,1,1.233358409,3,310
2019_Oct_09,13,001,2,recog,4,FLOOR,HF,lure,-,-,-,liberal,no,m,1,1.6668470355,1,311
2019_Oct_09,13,001,2,recog,5,NUMBER,HF,target,right,yellow,imageability,conservative,no,z,1,0.766901512752,1,312
2019_Oct_09,13,001,2,recog,6,CRONE,LF,target,right,yellow,imageability,conservative,no,z,1,0.766777967434,1,313
2019_Oct_09,13,001,2,recog,7,SERIOUS,HF,target,left,aqua,pleasantness,liberal,no,z,1,0.700213803055,3,316
2019_Oct_09,13,001,2,recog,8,ALONE,HF,lure,-,-,-,conservative,no,m,1,0.850240711738,3,319
2019_Oct_09,13,001,2,recog,9,BREAK,HF,target,left,aqua,pleasantness,conservative,no,z,1,0.983542443865,1,320
2019_Oct_09,13,001,2,recog,10,TOYED,LF,lure,-,-,-,liberal,no,m,1,0.733661589944,1,321
2019_Oct_09,13,001,2,recog,11,IMMEDIACY,LF,lure,-,-,-,conservative,yes,m,1,0.65026960008,3,324
2019_Oct_09,13,001,2,recog,12,VIBRATE,LF,target,left,aqua,pleasantness,conservative,no,z,1,0.683523453814,1,325
2019_Oct_09,13,001,2,recog,13,UNJUSTLY,LF,lure,-,-,-,liberal,no,z,0,1.18354874944,-1,324
2019_Oct_09,13,001,2,recog,14,FOLLOWED,HF,target,left,aqua,pleasantness,conservative,no,z,1,0.700239098684,1,325
2019_Oct_09,13,001,2,recog,15,TESTIFIES,LF,lure,-,-,-,conservative,no,m,1,0.96696647486,3,328
2019_Oct_09,13,001,2,recog,16,COGENT,LF,target,right,yellow,imageability,liberal,no,m,0,0.6501944464,-3,325
2019_Oct_09,13,001,2,recog,17,MAKES,HF,target,left,aqua,pleasantness,conservative,no,z,1,5.31662868656,1,326
2019_Oct_09,13,001,2,recog,18,SUPPORT,HF,target,left,aqua,pleasantness,liberal,no,z,1,1.71694081263,3,329
2019_Oct_09,13,001,2,recog,19,SUAVE,LF,lure,-,-,-,liberal,no,m,1,0.866942059079,1,330
2019_Oct_09,13,001,2,recog,20,LOOKED,HF,target,right,yellow,imageability,liberal,yes,m,0,0.616908331574,-3,327
2019_Oct_09,13,001,2,recog,21,CLOSE,HF,lure,-,-,-,liberal,no,z,0,1.83330217205,-1,326
2019_Oct_09,13,001,2,recog,22,SOAPY,LF,lure,-,-,-,conservative,no,m,1,4.41668866287,3,329
2019_Oct_09,13,001,2,recog,23,LIVED,HF,target,left,aqua,pleasantness,liberal,no,z,1,1.80014473499,3,332
2019_Oct_09,13,001,2,recog,24,FENCED,LF,target,right,yellow,imageability,liberal,no,z,1,1.0000109981,3,335
2019_Oct_09,13,001,2,recog,25,VERBALLY,LF,lure,-,-,-,liberal,no,z,0,0.616950857559,-1,334
2019_Oct_09,13,001,2,recog,26,AEONS,LF,target,right,yellow,imageability,liberal,no,z,1,0.950171643673,3,337
2019_Oct_09,13,001,2,recog,27,HOWEVER,HF,target,right,yellow,imageability,conservative,no,m,0,0.766939272894,-1,336
2019_Oct_09,13,001,2,recog,28,DEMEANOUR,LF,lure,-,-,-,conservative,no,m,1,0.716738447596,3,339
2019_Oct_09,13,001,2,recog,29,JAMMING,LF,lure,-,-,-,liberal,no,m,1,0.666654202154,1,340
2019_Oct_09,13,001,2,recog,30,BESOTTED,LF,lure,-,-,-,liberal,no,m,1,0.600233379671,1,341
2019_Oct_09,13,001,2,recog,31,CLEAR,HF,lure,-,-,-,liberal,no,m,1,0.883549189367,1,342
2019_Oct_09,13,001,2,recog,32,LULLED,LF,target,left,aqua,pleasantness,liberal,no,z,1,0.683664229487,3,345
2019_Oct_09,13,001,2,recog,33,KETCHUP,LF,target,left,aqua,pleasantness,conservative,no,z,1,0.583573825109,1,346
2019_Oct_09,13,001,2,recog,34,UNSAVOURY,LF,lure,-,-,-,conservative,no,m,1,0.900319458131,3,349
2019_Oct_09,13,001,2,recog,35,BEECHES,LF,target,right,yellow,imageability,conservative,no,z,1,0.733589369091,1,350
2019_Oct_09,13,001,2,recog,36,HIGHER,HF,target,left,aqua,pleasantness,conservative,no,z,1,0.96694227904,1,351
2019_Oct_09,13,001,2,recog,37,RUNNING,HF,lure,-,-,-,liberal,yes,z,0,1.19994544943,-1,350
2019_Oct_09,13,001,2,recog,38,TOXICITY,LF,lure,-,-,-,conservative,no,m,1,1.31693516694,3,353
2019_Oct_09,13,001,2,recog,39,UNCANNILY,LF,lure,-,-,-,liberal,no,m,1,1.45019473968,1,354
2019_Oct_09,13,001,2,recog,40,JOVIAL,LF,target,right,yellow,imageability,conservative,no,z,1,0.783561433917,1,355
2019_Oct_09,13,001,2,recog,41,SCHOOL,HF,lure,-,-,-,conservative,no,m,1,0.800346366815,3,358
2019_Oct_09,13,001,2,recog,42,JAUNDICE,LF,lure,-,-,-,liberal,no,m,1,1.21697307372,1,359
2019_Oct_09,13,001,2,recog,43,SHORT,HF,lure,-,-,-,conservative,no,m,1,1.65027436592,3,362
2019_Oct_09,13,001,2,recog,44,LIKELY,HF,lure,-,-,-,liberal,no,m,1,1.26687621712,1,363
2019_Oct_09,13,001,2,recog,45,RESEARCH,HF,target,left,aqua,pleasantness,liberal,no,z,1,0.666899826377,3,366
2019_Oct_09,13,001,2,recog,46,TRADE,HF,lure,-,-,-,liberal,no,z,0,0.883569719153,-1,365
2019_Oct_09,13,001,2,recog,47,MAJOR,HF,lure,-,-,-,conservative,no,m,1,1.48352851294,3,368
2019_Oct_09,13,001,2,recog,48,REPORT,HF,lure,-,-,-,liberal,no,z,0,1.266884649,-1,367
2019_Oct_09,13,001,2,recog,49,MALIGNED,LF,lure,-,-,-,conservative,no,m,1,1.20017714272,3,370
2019_Oct_09,13,001,2,recog,50,LUSCIOUS,LF,target,left,aqua,pleasantness,liberal,no,z,1,0.850329796344,3,373
2019_Oct_09,13,001,2,recog,51,REQUIRED,HF,target,left,aqua,pleasantness,conservative,no,z,1,0.73360586624,1,374
2019_Oct_09,13,001,2,recog,52,SPACE,HF,target,right,yellow,imageability,liberal,no,m,0,1.03354347035,-3,371
2019_Oct_09,13,001,2,recog,53,LOGGED,LF,target,left,aqua,pleasantness,conservative,no,z,1,0.666952250651,1,372
2019_Oct_09,13,001,2,recog,54,WISPY,LF,lure,-,-,-,conservative,no,m,1,0.850186087844,3,375
2019_Oct_09,13,001,2,recog,55,BECAME,HF,lure,-,-,-,conservative,no,m,1,0.733577271181,3,378
2019_Oct_09,13,001,2,recog,56,OUTSIDE,HF,lure,-,-,-,conservative,no,m,1,0.950221135122,3,381
2019_Oct_09,13,001,2,recog,57,MOISTENED,LF,target,right,yellow,imageability,conservative,no,z,1,0.583592155275,1,382
2019_Oct_09,13,001,2,recog,58,PLUGGING,LF,target,right,yellow,imageability,liberal,no,m,0,0.866693868633,-3,379
2019_Oct_09,13,001,2,recog,59,ANEMONES,LF,target,right,yellow,imageability,conservative,no,z,1,0.883601613641,1,380
2019_Oct_09,13,001,2,recog,60,CANNOT,HF,lure,-,-,-,liberal,yes,m,1,0.550259848432,1,381
2019_Oct_09,13,001,2,recog,61,AREAS,HF,lure,-,-,-,liberal,no,z,0,0.933340885362,-1,380
2019_Oct_09,13,001,2,recog,62,BAIZE,LF,target,left,aqua,pleasantness,liberal,no,z,1,0.666753551653,3,383
2019_Oct_09,13,001,2,recog,63,FIELD,HF,target,right,yellow,imageability,conservative,no,z,1,0.866795051149,1,384
2019_Oct_09,13,001,2,recog,64,NEEDED,HF,lure,-,-,-,conservative,no,z,0,0.366966621501,-3,381
2019_Oct_09,13,001,2,recog,65,MOBILIZE,LF,lure,-,-,-,liberal,no,z,0,0.866995949767,-1,380
2019_Oct_09,13,001,2,recog,66,NOMAD,LF,target,right,yellow,imageability,conservative,no,z,1,0.900191880177,1,381
2019_Oct_09,13,001,2,recog,67,FECKLESS,LF,lure,-,-,-,conservative,no,m,1,0.766943672133,3,384
2019_Oct_09,13,001,2,recog,68,GROUND,HF,lure,-,-,-,liberal,no,z,0,0.666699660966,-1,383
2019_Oct_09,13,001,2,recog,69,SHIELDING,LF,lure,-,-,-,liberal,no,m,1,0.916991110603,1,384
2019_Oct_09,13,001,2,recog,70,VALUE,HF,lure,-,-,-,conservative,no,z,0,0.567011053823,-3,381
2019_Oct_09,13,001,2,recog,71,BUOYANCY,LF,target,left,aqua,pleasantness,liberal,no,z,1,0.60028177131,3,384
2019_Oct_09,13,001,2,recog,72,EMULATION,LF,target,left,aqua,pleasantness,liberal,no,z,1,0.599983356209,3,387
2019_Oct_09,13,001,2,recog,73,HOPPER,LF,target,left,aqua,pleasantness,conservative,no,z,1,0.716934213768,1,388
2019_Oct_09,13,001,2,recog,74,GIVEN,HF,lure,-,-,-,conservative,no,z,0,0.45024203151,-3,385
2019_Oct_09,13,001,2,recog,75,OMELETTE,LF,target,left,aqua,pleasantness,conservative,no,z,1,0.583583356796,1,386
2019_Oct_09,13,001,2,recog,76,ZEALOTS,LF,target,right,yellow,imageability,liberal,no,z,1,0.716911484362,3,389
2019_Oct_09,13,001,2,recog,77,LARGE,HF,target,left,aqua,pleasantness,liberal,no,z,1,0.733575438164,3,392
2019_Oct_09,13,001,2,recog,78,BASIC,HF,target,right,yellow,imageability,liberal,no,m,0,0.800224287909,-3,389
2019_Oct_09,13,001,2,recog,79,HEALTH,HF,lure,-,-,-,liberal,no,m,1,1.06667891122,1,390
2019_Oct_09,13,001,2,recog,80,PINAFORE,LF,target,left,aqua,pleasantness,conservative,no,z,1,0.783613124985,1,391
2019_Oct_09,13,001,2,recog,81,KITCHEN,HF,target,right,yellow,imageability,liberal,no,z,1,0.466889854766,3,394
2019_Oct_09,13,001,2,recog,82,DOCTOR,HF,target,right,yellow,imageability,conservative,no,z,1,0.550271213135,1,395
2019_Oct_09,13,001,2,recog,83,BUILDING,HF,lure,-,-,-,conservative,no,m,1,0.766891247859,3,398
2019_Oct_09,13,001,2,recog,84,VETOED,LF,lure,-,-,-,liberal,no,m,1,0.783551902231,1,399
2019_Oct_09,13,001,2,recog,85,MATERIAL,HF,target,left,aqua,pleasantness,conservative,no,z,1,1.06665581521,1,400
2019_Oct_09,13,001,2,recog,86,ALLOWED,HF,lure,-,-,-,conservative,no,m,1,1.04997903029,3,403
2019_Oct_09,13,001,2,recog,87,DOSSIERS,LF,target,left,aqua,pleasantness,liberal,no,m,0,0.683367280801,-3,400
2019_Oct_09,13,001,2,recog,88,UNEARTHED,LF,target,right,yellow,imageability,liberal,no,z,1,0.666710292461,3,403
2019_Oct_09,13,001,2,recog,89,MINISTER,HF,target,right,yellow,imageability,conservative,no,z,1,0.533590028976,1,404
2019_Oct_09,13,001,2,recog,90,SENSE,HF,lure,-,-,-,liberal,no,z,0,0.53367214812,-1,403
2019_Oct_09,13,001,2,recog,91,CITES,LF,lure,-,-,-,conservative,no,m,1,0.916644303865,3,406
2019_Oct_09,13,001,2,recog,92,BOMBARDED,LF,lure,-,-,-,conservative,no,m,1,0.600307800145,3,409
2019_Oct_09,13,001,2,recog,93,UGLIEST,LF,lure,-,-,-,liberal,no,z,0,0.683521254195,-1,408
2019_Oct_09,13,001,2,recog,94,HUMAN,HF,target,right,yellow,imageability,liberal,no,z,1,0.850358758007,3,411
2019_Oct_09,13,001,2,recog,95,GLASS,HF,target,left,aqua,pleasantness,liberal,no,z,1,0.550153900073,3,414
2019_Oct_09,13,001,3,source,0,OTTOMAN,LF,target,right,yellow,imageability,conservative,no,9,1,6.61656225804,-,-
2019_Oct_09,13,001,3,source,1,KNEAD,LF,target,right,yellow,imageability,conservative,no,9,1,0.833543030431,-,-
2019_Oct_09,13,001,3,source,2,LIGHT,HF,target,left,aqua,pleasantness,liberal,no,1,1,1.85015712618,-,-
2019_Oct_09,13,001,3,source,3,HAMLETS,LF,target,left,aqua,pleasantness,liberal,no,1,1,1.06692746827,-,-
2019_Oct_09,13,001,3,source,4,SOUND,HF,target,right,yellow,imageability,conservative,no,9,1,2.83352286725,-,-
2019_Oct_09,13,001,3,source,5,ASPIRED,LF,target,left,aqua,pleasantness,liberal,no,1,1,1.36686360597,-,-
2019_Oct_09,13,001,3,source,6,JOYFULLY,LF,target,right,yellow,imageability,liberal,no,3,0,1.81688824171,-,-
2019_Oct_09,13,001,3,source,7,SCOFFED,LF,target,left,aqua,pleasantness,conservative,no,1,1,1.40002690868,-,-
2019_Oct_09,13,001,3,source,8,SYRINGE,LF,target,right,yellow,imageability,liberal,no,9,1,1.13355358861,-,-
2019_Oct_09,13,001,3,source,9,HEEDED,LF,target,right,yellow,imageability,liberal,no,3,0,1.90022010863,-,-
2019_Oct_09,13,001,3,source,10,SUBJECT,HF,target,right,yellow,imageability,liberal,no,1,0,1.63350006452,-,-
2019_Oct_09,13,001,3,source,11,ENROLMENT,LF,target,right,yellow,imageability,conservative,no,8,1,2.86657508916,-,-
2019_Oct_09,13,001,3,source,12,HISTORY,HF,target,right,yellow,imageability,conservative,no,9,1,1.849982623,-,-
2019_Oct_09,13,001,3,source,13,RAGES,LF,target,right,yellow,imageability,conservative,no,3,0,2.11686873842,-,-
2019_Oct_09,13,001,3,source,14,DECIDED,HF,target,left,aqua,pleasantness,conservative,no,3,1,1.11692776155,-,-
2019_Oct_09,13,001,3,source,15,INTEREST,HF,target,left,aqua,pleasantness,liberal,no,1,1,1.18357844431,-,-
2019_Oct_09,13,001,3,source,16,JOTTED,LF,target,right,yellow,imageability,liberal,no,9,1,1.56690730508,-,-
2019_Oct_09,13,001,3,source,17,USUAL,HF,target,right,yellow,imageability,liberal,yes,7,1,1.26682855869,-,-
2019_Oct_09,13,001,3,source,18,FARAWAY,LF,target,right,yellow,imageability,liberal,no,7,1,1.10022824723,-,-
2019_Oct_09,13,001,3,source,19,ALMOST,HF,target,left,aqua,pleasantness,conservative,no,2,1,1.48331258359,-,-
2019_Oct_09,13,001,3,source,20,FINAL,HF,target,left,aqua,pleasantness,liberal,no,1,1,0.68337058023,-,-
2019_Oct_09,13,001,3,source,21,INSIDE,HF,target,left,aqua,pleasantness,conservative,no,1,1,1.83353019931,-,-
2019_Oct_09,13,001,3,source,22,FEELING,HF,target,left,aqua,pleasantness,conservative,no,1,1,2.10014649469,-,-
2019_Oct_09,13,001,3,source,23,TOWARDS,HF,target,left,aqua,pleasantness,conservative,no,7,0,1.71692284907,-,-
2019_Oct_09,13,001,3,source,24,ARCADES,LF,target,right,yellow,imageability,liberal,no,9,1,2.23333531299,-,-
2019_Oct_09,13,001,3,source,25,MIXER,LF,target,left,aqua,pleasantness,conservative,no,1,1,1.41681074177,-,-
2019_Oct_09,13,001,3,source,26,WALKED,HF,target,right,yellow,imageability,liberal,no,7,1,1.68363013538,-,-
2019_Oct_09,13,001,3,source,27,GNARLED,LF,target,left,aqua,pleasantness,conservative,no,1,1,3.11682914526,-,-
2019_Oct_09,13,001,3,source,28,MOUTH,HF,target,right,yellow,imageability,conservative,yes,2,0,1.75027788531,-,-
2019_Oct_09,13,001,3,source,29,FRUGAL,LF,target,left,aqua,pleasantness,conservative,no,1,1,3.25008761819,-,-
2019_Oct_09,13,001,3,source,30,EITHER,HF,target,right,yellow,imageability,liberal,no,3,0,1.41696398196,-,-
2019_Oct_09,13,001,3,source,31,UNGAINLY,LF,target,right,yellow,imageability,conservative,no,8,1,2.40014165552,-,-
2019_Oct_09,13,001,3,source,32,SYSTEM,HF,target,left,aqua,pleasantness,liberal,no,8,0,1.18354911605,-,-
2019_Oct_09,13,001,3,source,33,BOWER,LF,target,right,yellow,imageability,conservative,no,7,1,1.06692343563,-,-
2019_Oct_09,13,001,3,source,34,MOTHER,HF,target,right,yellow,imageability,liberal,no,9,1,1.78330847763,-,-
2019_Oct_09,13,001,3,source,35,CALLED,HF,target,left,aqua,pleasantness,conservative,no,1,1,2.10015749279,-,-
2019_Oct_09,13,001,3,source,36,TRYING,HF,target,right,yellow,imageability,conservative,no,3,0,1.28337519943,-,-
2019_Oct_09,13,001,3,source,37,BEYOND,HF,target,right,yellow,imageability,liberal,no,3,0,1.41671029246,-,-
2019_Oct_09,13,001,3,source,38,CRYPT,LF,target,left,aqua,pleasantness,liberal,yes,3,1,0.733572138734,-,-
2019_Oct_09,13,001,3,source,39,NECESSARY,HF,target,left,aqua,pleasantness,liberal,no,1,1,2.2165844742,-,-
2019_Oct_09,13,001,3,source,40,BAUXITE,LF,target,left,aqua,pleasantness,liberal,no,7,0,0.933576977898,-,-
2019_Oct_09,13,001,3,source,41,EDUCATION,HF,target,left,aqua,pleasantness,liberal,no,1,1,0.933513188921,-,-
2019_Oct_09,13,001,3,source,42,MANDARIN,LF,target,left,aqua,pleasantness,conservative,no,1,1,1.10023961193,-,-
2019_Oct_09,13,001,3,source,43,WEEKS,HF,target,right,yellow,imageability,conservative,yes,7,1,1.11683244469,-,-
2019_Oct_09,13,001,3,source,44,HOTEL,HF,target,right,yellow,imageability,conservative,no,1,0,1.33348803993,-,-
2019_Oct_09,13,001,3,source,45,FASCINATE,LF,target,left,aqua,pleasantness,conservative,no,1,1,1.98355454178,-,-
2019_Oct_09,13,001,3,source,46,DAMASK,LF,target,left,aqua,pleasantness,liberal,no,3,1,1.11698238544,-,-
2019_Oct_09,13,001,3,source,47,FIVER,LF,target,left,aqua,pleasantness,liberal,no,3,1,0.883354889608,-,-
2019_Oct_09,13,001,3,recog,0,LODGERS,LF,lure,-,-,-,liberal,no,m,1,2.65013652308,1,415
2019_Oct_09,13,001,3,recog,1,HAVING,HF,lure,-,-,-,conservative,no,m,1,1.56695533012,3,418
2019_Oct_09,13,001,3,recog,2,SINCE,HF,lure,-,-,-,liberal,no,z,0,1.3002671805,-1,417
2019_Oct_09,13,001,3,recog,3,OTHERS,HF,lure,-,-,-,conservative,no,m,1,0.933311190493,3,420
2019_Oct_09,13,001,3,recog,4,SUBJECT,HF,target,right,yellow,imageability,liberal,no,z,1,0.716941912438,3,423
2019_Oct_09,13,001,3,recog,5,TOWARDS,HF,target,left,aqua,pleasantness,conservative,no,z,1,1.06684131649,1,424
2019_Oct_09,13,001,3,recog,6,PROBABLY,HF,lure,-,-,-,liberal,no,m,1,0.900260068393,1,425
2019_Oct_09,13,001,3,recog,7,SEPULCHRE,LF,lure,-,-,-,liberal,no,m,1,0.750187700898,1,426
2019_Oct_09,13,001,3,recog,8,TOTAL,HF,lure,-,-,-,conservative,no,m,1,1.20025926187,3,429
2019_Oct_09,13,001,3,recog,9,ARCADES,LF,target,right,yellow,imageability,liberal,no,z,1,0.616884868962,3,432
2019_Oct_09,13,001,3,recog,10,CRYPT,LF,target,left,aqua,pleasantness,liberal,no,m,0,0.850186087844,-3,429
2019_Oct_09,13,001,3,recog,11,ALMOST,HF,target,left,aqua,pleasantness,conservative,no,z,1,0.866741527065,1,430
2019_Oct_09,13,001,3,recog,12,AROUND,HF,lure,-,-,-,conservative,no,z,0,0.666653102344,-3,427
2019_Oct_09,13,001,3,recog,13,EATERS,LF,lure,-,-,-,conservative,no,m,1,0.683560847352,3,430
2019_Oct_09,13,001,3,recog,14,RELAXES,LF,lure,-,-,-,conservative,no,z,0,1.00022216161,-3,427
2019_Oct_09,13,001,3,recog,15,GUESSWORK,LF,lure,-,-,-,conservative,no,m,1,0.71673991401,3,430
2019_Oct_09,13,001,3,recog,16,GENERAL,HF,lure,-,-,-,conservative,no,z,0,0.583605352995,-3,427
2019_Oct_09,13,001,3,recog,17,PAPER,HF,lure,-,-,-,liberal,no,m,1,0.58355622815,1,428
2019_Oct_09,13,001,3,recog,18,MYSELF,HF,lure,-,-,-,liberal,no,m,1,1.13355028918,1,429
2019_Oct_09,13,001,3,recog,19,INTEREST,HF,target,left,aqua,pleasantness,liberal,no,z,1,0.666949684428,3,432
2019_Oct_09,13,001,3,recog,20,SIZZLING,LF,lure,-,-,-,conservative,no,m,1,0.766687783018,3,435
2019_Oct_09,13,001,3,recog,21,FARAWAY,LF,target,right,yellow,imageability,liberal,no,z,1,0.583572358697,3,438
2019_Oct_09,13,001,3,recog,22,HAMLETS,LF,target,left,aqua,pleasantness,liberal,no,z,1,0.816902172637,3,441
2019_Oct_09,13,001,3,recog,23,WEEKS,HF,target,right,yellow,imageability,conservative,no,z,1,1.23357543816,1,442
2019_Oct_09,13,001,3,recog,24,PRUDENTLY,LF,lure,-,-,-,liberal,no,m,1,0.683667528918,1,443
2019_Oct_09,13,001,3,recog,25,BEYOND,HF,target,right,yellow,imageability,liberal,no,z,1,4.0666767116,3,446
2019_Oct_09,13,001,3,recog,26,DEVELOPED,HF,lure,-,-,-,liberal,no,m,1,0.700276858825,1,447
2019_Oct_09,13,001,3,recog,27,LIGHT,HF,target,left,aqua,pleasantness,liberal,no,m,0,0.683572578658,-3,444
2019_Oct_09,13,001,3,recog,28,PERHAPS,HF,lure,-,-,-,liberal,no,m,1,0.56670567326,1,445
2019_Oct_09,13,001,3,recog,29,SOUND,HF,target,right,yellow,imageability,conservative,no,z,1,0.666696361535,1,446
2019_Oct_09,13,001,3,recog,30,DECIDED,HF,target,left,aqua,pleasantness,conservative,yes,z,1,0.750261754769,1,447
2019_Oct_09,13,001,3,recog,31,SYSTEM,HF,target,left,aqua,pleasantness,liberal,no,z,1,0.450350546093,3,450
2019_Oct_09,13,001,3,recog,32,GRACES,LF,lure,-,-,-,conservative,no,z,0,0.400001979658,-3,447
2019_Oct_09,13,001,3,recog,33,CALLED,HF,target,left,aqua,pleasantness,conservative,no,z,1,0.416915223715,1,448
2019_Oct_09,13,001,3,recog,34,HIMSELF,HF,lure,-,-,-,conservative,no,m,1,0.733601467,3,451
2019_Oct_09,13,001,3,recog,35,ASPIRED,LF,target,left,aqua,pleasantness,liberal,no,z,1,0.716853561038,3,454
2019_Oct_09,13,001,3,recog,36,COVER,HF,lure,-,-,-,conservative,no,m,1,0.700261461486,3,457
2019_Oct_09,13,001,3,recog,37,EXACTLY,HF,lure,-,-,-,conservative,no,m,1,0.683570379039,3,460
2019_Oct_09,13,001,3,recog,38,HEEDED,LF,target,right,yellow,imageability,liberal,no,z,1,0.68368439267,3,463
2019_Oct_09,13,001,3,recog,39,MOMENT,HF,lure,-,-,-,conservative,no,z,0,0.683531152484,-3,460
2019_Oct_09,13,001,3,recog,40,FIVER,LF,target,left,aqua,pleasantness,liberal,no,z,1,0.716867125361,3,463
2019_Oct_09,13,001,3,recog,41,ERRANT,LF,lure,-,-,-,conservative,no,m,1,0.63361811079,3,466
2019_Oct_09,13,001,3,recog,42,CUBED,LF,lure,-,-,-,liberal,no,z,0,0.250262854579,-1,465
2019_Oct_09,13,001,3,recog,43,ENROLMENT,LF,target,right,yellow,imageability,conservative,no,z,1,0.366712198798,1,466
2019_Oct_09,13,001,3,recog,44,PEACEABLY,LF,lure,-,-,-,conservative,no,z,0,0.45025632904,-3,463
2019_Oct_09,13,001,3,recog,45,JOTTED,LF,target,right,yellow,imageability,liberal,no,z,1,0.400230740128,3,466
2019_Oct_09,13,001,3,recog,46,SCOFFED,LF,target,left,aqua,pleasantness,conservative,yes,z,1,0.600292036203,1,467
2019_Oct_09,13,001,3,recog,47,EBONY,LF,lure,-,-,-,conservative,no,z,0,0.583556961356,-3,464
2019_Oct_09,13,001,3,recog,48,BAUXITE,LF,target,left,aqua,pleasantness,liberal,no,z,1,0.933483860656,3,467
2019_Oct_09,13,001,3,recog,49,FEELING,HF,target,left,aqua,pleasantness,conservative,no,m,0,0.800360297741,-1,466
2019_Oct_09,13,001,3,recog,50,MOUTH,HF,target,right,yellow,imageability,conservative,no,z,1,0.150235505972,1,467
2019_Oct_09,13,001,3,recog,51,BORAX,LF,lure,-,-,-,conservative,no,m,1,0.000290716430754,3,470
2019_Oct_09,13,001,3,recog,52,FATHER,HF,lure,-,-,-,liberal,no,m,1,0.966842929542,1,471
2019_Oct_09,13,001,3,recog,53,HOTEL,HF,target,right,yellow,imageability,conservative,no,z,1,0.816899239811,1,472
2019_Oct_09,13,001,3,recog,54,FASCINATE,LF,target,left,aqua,pleasantness,conservative,no,m,0,0.800401723915,-1,471
2019_Oct_09,13,001,3,recog,55,MANDARIN,LF,target,left,aqua,pleasantness,conservative,no,z,1,0.916883329227,1,472
2019_Oct_09,13,001,3,recog,56,REUNITED,LF,lure,-,-,-,conservative,no,m,1,0.933545816616,3,475
2019_Oct_09,13,001,3,recog,57,FINAL,HF,target,left,aqua,pleasantness,liberal,no,z,1,0.683667528917,3,478
2019_Oct_09,13,001,3,recog,58,INSIDE,HF,target,left,aqua,pleasantness,conservative,no,z,1,0.91689689355,1,479
2019_Oct_09,13,001,3,recog,59,RAGES,LF,target,right,yellow,imageability,conservative,yes,m,0,0.666937953121,-1,478
2019_Oct_09,13,001,3,recog,60,KNEAD,LF,target,right,yellow,imageability,conservative,no,z,1,0.550230153563,1,479
2019_Oct_09,13,001,3,recog,61,EITHER,HF,target,right,yellow,imageability,liberal,no,z,1,0.68360373994,3,482
2019_Oct_09,13,001,3,recog,62,USUAL,HF,target,right,yellow,imageability,liberal,no,m,0,0.733323581685,-3,479
2019_Oct_09,13,001,3,recog,63,GARDEN,HF,lure,-,-,-,conservative,no,z,0,0.583614884681,-3,476
2019_Oct_09,13,001,3,recog,64,AUDACIOUS,LF,lure,-,-,-,conservative,no,z,0,0.467006801225,-3,473
2019_Oct_09,13,001,3,recog,65,MORNING,HF,lure,-,-,-,conservative,no,z,0,0.500194666361,-3,470
2019_Oct_09,13,001,3,recog,66,HISTORY,HF,target,right,yellow,imageability,conservative,no,z,1,0.433617670867,1,471
2019_Oct_09,13,001,3,recog,67,EGGSHELL,LF,lure,-,-,-,conservative,no,z,0,0.550020823068,-3,468
2019_Oct_09,13,001,3,recog,68,NECESSARY,HF,target,left,aqua,pleasantness,liberal,no,z,1,0.600252076441,3,471
2019_Oct_09,13,001,3,recog,69,MIXER,LF,target,left,aqua,pleasantness,conservative,no,z,1,0.600231546656,1,472
2019_Oct_09,13,001,3,recog,70,SAPLINGS,LF,lure,-,-,-,liberal,no,m,1,0.733527779733,1,473
2019_Oct_09,13,001,3,recog,71,YARDSTICK,LF,lure,-,-,-,liberal,no,m,1,0.583584090003,1,474
2019_Oct_09,13,001,3,recog,72,DURING,HF,lure,-,-,-,conservative,no,m,1,0.550192393421,3,477
2019_Oct_09,13,001,3,recog,73,BOWER,LF,target,right,yellow,imageability,conservative,no,z,1,0.717013766687,1,478
2019_Oct_09,13,001,3,recog,74,WITHIN,HF,lure,-,-,-,liberal,no,z,0,1.21683963011,-1,477
2019_Oct_09,13,001,3,recog,75,TRYING,HF,target,right,yellow,imageability,conservative,no,z,1,0.483679186903,1,478
2019_Oct_09,13,001,3,recog,76,WALKED,HF,target,right,yellow,imageability,liberal,no,m,0,1.03355153563,-3,475
2019_Oct_09,13,001,3,recog,77,CAKED,LF,lure,-,-,-,liberal,no,m,1,0.683585043171,1,476
2019_Oct_09,13,001,3,recog,78,JOYFULLY,LF,target,right,yellow,imageability,liberal,no,z,1,0.616903932334,3,479
2019_Oct_09,13,001,3,recog,79,TURNED,HF,lure,-,-,-,liberal,no,m,1,0.766930841018,1,480
2019_Oct_09,13,001,3,recog,80,DAYBREAK,LF,lure,-,-,-,liberal,no,m,1,0.73352301389,1,481
2019_Oct_09,13,001,3,recog,81,UNGAINLY,LF,target,right,yellow,imageability,conservative,no,z,1,0.71689792004,1,482
2019_Oct_09,13,001,3,recog,82,GNARLED,LF,target,left,aqua,pleasantness,conservative,no,z,1,0.550256549001,1,483
2019_Oct_09,13,001,3,recog,83,FURTHER,HF,lure,-,-,-,liberal,no,z,0,0.516749372376,-1,482
2019_Oct_09,13,001,3,recog,84,PUBLIC,HF,lure,-,-,-,liberal,no,z,0,0.400321657751,-1,481
2019_Oct_09,13,001,3,recog,85,PEOPLED,LF,lure,-,-,-,liberal,no,z,0,0.450214169658,-1,480
2019_Oct_09,13,001,3,recog,86,TIPSY,LF,lure,-,-,-,liberal,no,z,0,0.433598240891,-1,479
2019_Oct_09,13,001,3,recog,87,EDUCATION,HF,target,left,aqua,pleasantness,liberal,no,z,1,0.600138062809,3,482
2019_Oct_09,13,001,3,recog,88,FRUGAL,LF,target,left,aqua,pleasantness,conservative,no,z,1,0.766861552991,1,483
2019_Oct_09,13,001,3,recog,89,RIDDLES,LF,lure,-,-,-,liberal,no,m,1,0.716876657048,1,484
2019_Oct_09,13,001,3,recog,90,SLOWLY,HF,lure,-,-,-,liberal,no,z,0,1.60017728936,-1,483
2019_Oct_09,13,001,3,recog,91,TACITLY,LF,lure,-,-,-,liberal,no,m,1,0.700242398114,1,484
2019_Oct_09,13,001,3,recog,92,SYRINGE,LF,target,right,yellow,imageability,liberal,no,z,1,0.750054990497,3,487
2019_Oct_09,13,001,3,recog,93,MOTHER,HF,target,right,yellow,imageability,liberal,no,z,1,2.38347330248,3,490
2019_Oct_09,13,001,3,recog,94,DAMASK,LF,target,left,aqua,pleasantness,liberal,no,m,0,0.766914343868,-3,487
2019_Oct_09,13,001,3,recog,95,OTTOMAN,LF,target,right,yellow,imageability,conservative,yes,z,1,0.566914270547,1,488
2019_Oct_09,13,001,4,source,0,YEARN,LF,target,left,aqua,pleasantness,liberal,no,1,1,6.64985607154,-,-
2019_Oct_09,13,001,4,source,1,AEROSOL,LF,target,left,aqua,pleasantness,conservative,yes,3,1,0.983387370662,-,-
2019_Oct_09,13,001,4,source,2,POINT,HF,target,left,aqua,pleasantness,conservative,no,2,1,2.53344082143,-,-
2019_Oct_09,13,001,4,source,3,CORNER,HF,target,right,yellow,imageability,conservative,no,8,1,1.21666989278,-,-
2019_Oct_09,13,001,4,source,4,FLECKED,LF,target,left,aqua,pleasantness,conservative,no,8,0,0.966903052486,-,-
2019_Oct_09,13,001,4,source,5,FEUDALISM,LF,target,left,aqua,pleasantness,liberal,yes,8,0,0.650293062692,-,-
2019_Oct_09,13,001,4,source,6,PELTED,LF,target,left,aqua,pleasantness,conservative,no,1,1,2.81676139696,-,-
2019_Oct_09,13,001,4,source,7,PRACTICE,HF,target,left,aqua,pleasantness,liberal,no,1,1,3.83318009315,-,-
2019_Oct_09,13,001,4,source,8,HUSBAND,HF,target,left,aqua,pleasantness,conservative,no,1,1,1.03354970261,-,-
2019_Oct_09,13,001,4,source,9,RIMMED,LF,target,left,aqua,pleasantness,liberal,no,2,1,4.61667700488,-,-
2019_Oct_09,13,001,4,source,10,MILES,HF,target,right,yellow,imageability,liberal,no,9,1,1.6002139497,-,-
2019_Oct_09,13,001,4,source,11,BYPASS,LF,target,right,yellow,imageability,liberal,no,9,1,1.50015214038,-,-
2019_Oct_09,13,001,4,source,12,GIRLS,HF,target,right,yellow,imageability,conservative,no,9,1,1.30015829931,-,-
2019_Oct_09,13,001,4,source,13,EVENING,HF,target,left,aqua,pleasantness,liberal,yes,8,0,1.26692057612,-,-
2019_Oct_09,13,001,4,source,14,ASKED,HF,target,left,aqua,pleasantness,conservative,no,2,1,3.86671403181,-,-
2019_Oct_09,13,001,4,source,15,QUICKLY,HF,target,left,aqua,pleasantness,liberal,no,2,1,1.06684131649,-,-
2019_Oct_09,13,001,4,source,16,BEHIND,HF,target,left,aqua,pleasantness,liberal,no,2,1,1.6335194945,-,-
2019_Oct_09,13,001,4,source,17,BETTER,HF,target,left,aqua,pleasantness,liberal,no,1,1,1.75014517491,-,-
2019_Oct_09,13,001,4,source,18,ACORNS,LF,target,right,yellow,imageability,conservative,no,9,1,2.10009590343,-,-
2019_Oct_09,13,001,4,source,19,HUNDRED,HF,target,right,yellow,imageability,liberal,yes,8,1,1.11667443866,-,-
2019_Oct_09,13,001,4,source,20,HOURS,HF,target,right,yellow,imageability,conservative,no,2,0,2.2499116486,-,-
2019_Oct_09,13,001,4,source,21,WASHBASIN,LF,target,left,aqua,pleasantness,conservative,no,2,1,1.11666490697,-,-
2019_Oct_09,13,001,4,source,22,LEARN,HF,target,left,aqua,pleasantness,conservative,no,2,1,1.56682225311,-,-
2019_Oct_09,13,001,4,source,23,GUILDHALL,LF,target,right,yellow,imageability,conservative,no,8,1,1.7166064704,-,-
2019_Oct_09,13,001,4,source,24,SURER,LF,target,right,yellow,imageability,conservative,no,9,1,1.66681660742,-,-
2019_Oct_09,13,001,4,source,25,INDEED,HF,target,right,yellow,imageability,conservative,no,8,1,1.3168424163,-,-
2019_Oct_09,13,001,4,source,26,LAVISHED,LF,target,right,yellow,imageability,liberal,no,2,0,1.26684542244,-,-
2019_Oct_09,13,001,4,source,27,CACOPHONY,LF,target,left,aqua,pleasantness,liberal,no,2,1,0.850028815021,-,-
2019_Oct_09,13,001,4,source,28,HIVES,LF,target,right,yellow,imageability,conservative,no,9,1,1.48334961052,-,-
2019_Oct_09,13,001,4,source,29,WIRING,LF,target,left,aqua,pleasantness,liberal,no,2,1,1.46665412883,-,-
2019_Oct_09,13,001,4,source,30,PRYING,LF,target,left,aqua,pleasantness,conservative,no,8,0,0.916789478778,-,-
2019_Oct_09,13,001,4,source,31,DIFFERENT,HF,target,right,yellow,imageability,conservative,no,2,0,0.683612538421,-,-
2019_Oct_09,13,001,4,source,32,DIZZINESS,LF,target,right,yellow,imageability,conservative,no,2,0,0.816720337392,-,-
2019_Oct_09,13,001,4,source,33,FUTURE,HF,target,right,yellow,imageability,conservative,no,9,1,3.41653212325,-,-
2019_Oct_09,13,001,4,source,34,ENZYME,LF,target,right,yellow,imageability,liberal,no,9,1,1.08333333333,-,-
2019_Oct_09,13,001,4,source,35,NEWMARKET,LF,target,left,aqua,pleasantness,liberal,no,9,0,0.966940079421,-,-
2019_Oct_09,13,001,4,source,36,MEETING,HF,target,left,aqua,pleasantness,liberal,no,2,1,1.08355402853,-,-
2019_Oct_09,13,001,4,source,37,SWIFTNESS,LF,target,right,yellow,imageability,liberal,no,9,1,0.950331116116,-,-
2019_Oct_09,13,001,4,source,38,AFRAID,HF,target,right,yellow,imageability,liberal,no,2,0,0.916880763004,-,-
2019_Oct_09,13,001,4,source,39,TABLE,HF,target,left,aqua,pleasantness,conservative,no,2,1,1.73354391028,-,-
2019_Oct_09,13,001,4,source,40,LOVELIEST,LF,target,right,yellow,imageability,liberal,no,2,0,1.01692460876,-,-
2019_Oct_09,13,001,4,source,41,WATCH,HF,target,right,yellow,imageability,liberal,no,2,0,0.716912950776,-,-
2019_Oct_09,13,001,4,source,42,IMPORTANT,HF,target,right,yellow,imageability,liberal,no,2,0,1.38357705122,-,-
2019_Oct_09,13,001,4,source,43,VULTURE,LF,target,right,yellow,imageability,conservative,no,9,1,1.46681433448,-,-
2019_Oct_09,13,001,4,source,44,ROUND,HF,target,left,aqua,pleasantness,conservative,no,2,1,1.43345636541,-,-
2019_Oct_09,13,001,4,source,45,PHYSICAL,HF,target,right,yellow,imageability,liberal,no,8,1,1.71663836489,-,-
2019_Oct_09,13,001,4,source,46,PSEUDONYM,LF,target,left,aqua,pleasantness,conservative,no,2,1,2.35016335844,-,-
2019_Oct_09,13,001,4,source,47,ABUSING,LF,target,right,yellow,imageability,liberal,no,2,0,0.750332875812,-,-
2019_Oct_09,13,001,4,recog,0,BYPASS,LF,target,right,yellow,imageability,liberal,no,z,1,1.51690884482,3,491
2019_Oct_09,13,001,4,recog,1,PRIVATE,HF,lure,-,-,-,conservative,no,m,1,1.60017582295,3,494
2019_Oct_09,13,001,4,recog,2,AXLES,LF,lure,-,-,-,conservative,no,m,1,0.866887068581,3,497
2019_Oct_09,13,001,4,recog,3,FLECKED,LF,target,left,aqua,pleasantness,conservative,no,z,1,0.800332069285,1,498
2019_Oct_09,13,001,4,recog,4,CORNER,HF,target,right,yellow,imageability,conservative,no,z,1,0.883531225804,1,499
2019_Oct_09,13,001,4,recog,5,LEARN,HF,target,left,aqua,pleasantness,conservative,no,z,1,0.683375712677,1,500
2019_Oct_09,13,001,4,recog,6,HIVES,LF,target,right,yellow,imageability,conservative,no,z,1,0.583570892283,1,501
2019_Oct_09,13,001,4,recog,7,LAVISHED,LF,target,right,yellow,imageability,liberal,no,z,1,0.683658730439,3,504
2019_Oct_09,13,001,4,recog,8,GUARDSMEN,LF,lure,-,-,-,conservative,no,m,1,0.866859573332,3,507
2019_Oct_09,13,001,4,recog,9,SPEAK,HF,lure,-,-,-,liberal,no,m,1,0.949975877502,1,508
2019_Oct_09,13,001,4,recog,10,AFRAID,HF,target,right,yellow,imageability,liberal,no,z,1,0.800244817696,3,511
2019_Oct_09,13,001,4,recog,11,ENZYME,LF,target,right,yellow,imageability,liberal,no,z,1,0.583559894184,3,514
2019_Oct_09,13,001,4,recog,12,QUICKLY,HF,target,left,aqua,pleasantness,liberal,no,z,1,0.633308330987,3,517
2019_Oct_09,13,001,4,recog,13,NAPPY,LF,lure,-,-,-,conservative,no,z,0,1.01688134957,-3,514
2019_Oct_09,13,001,4,recog,14,RAVAGES,LF,lure,-,-,-,conservative,no,z,0,0.550187627578,-3,511
2019_Oct_09,13,001,4,recog,15,MEMBERS,HF,lure,-,-,-,liberal,no,z,0,0.150265567443,-1,510
2019_Oct_09,13,001,4,recog,16,HYACINTHS,LF,lure,-,-,-,conservative,no,m,1,0.817009587409,3,513
2019_Oct_09,13,001,4,recog,17,FUTURE,HF,target,right,yellow,imageability,conservative,no,z,1,1.76663719176,1,514
2019_Oct_09,13,001,4,recog,18,CLICKS,LF,lure,-,-,-,liberal,no,m,1,0.816847548744,1,515
2019_Oct_09,13,001,4,recog,19,PHYSICAL,HF,target,right,yellow,imageability,liberal,no,z,1,0.600288370169,3,518
2019_Oct_09,13,001,4,recog,20,QUALITY,HF,lure,-,-,-,liberal,no,z,0,0.533566932967,-1,517
2019_Oct_09,13,001,4,recog,21,RIMMED,LF,target,left,aqua,pleasantness,liberal,no,z,1,0.416920722766,3,520
2019_Oct_09,13,001,4,recog,22,HOURS,HF,target,right,yellow,imageability,conservative,no,z,1,0.600195252927,1,521
2019_Oct_09,13,001,4,recog,23,HUNDRED,HF,target,right,yellow,imageability,liberal,no,z,1,0.533603959902,3,524
2019_Oct_09,13,001,4,recog,24,STUDENT,HF,lure,-,-,-,conservative,no,z,0,0.500201631824,-3,521
2019_Oct_09,13,001,4,recog,25,DONATE,LF,lure,-,-,-,conservative,no,z,0,0.4335439836,-3,518
2019_Oct_09,13,001,4,recog,26,TABLE,HF,target,left,aqua,pleasantness,conservative,no,z,1,0.53357169881,1,519
2019_Oct_09,13,001,4,recog,27,JEOPARDY,LF,lure,-,-,-,conservative,no,m,1,0.833565759836,3,522
2019_Oct_09,13,001,4,recog,28,DAUGHTER,HF,lure,-,-,-,conservative,yes,m,1,0.850285437344,3,525
2019_Oct_09,13,001,4,recog,29,INDEED,HF,target,right,yellow,imageability,conservative,no,z,1,0.500199065602,1,526
2019_Oct_09,13,001,4,recog,30,AVOCADO,LF,lure,-,-,-,liberal,no,m,1,0.466975273339,1,527
2019_Oct_09,13,001,4,recog,31,MEETING,HF,target,left,aqua,pleasantness,liberal,no,z,1,0.417013106802,3,530
2019_Oct_09,13,001,4,recog,32,DIZZINESS,LF,target,right,yellow,imageability,conservative,no,z,1,0.700310952934,1,531
2019_Oct_09,13,001,4,recog,33,SHALL,HF,lure,-,-,-,liberal,no,m,1,1.28358892917,1,532
2019_Oct_09,13,001,4,recog,34,BEHIND,HF,target,left,aqua,pleasantness,liberal,no,z,1,0.750232059901,3,535
2019_Oct_09,13,001,4,recog,35,USING,HF,lure,-,-,-,liberal,no,m,1,0.700333315736,1,536
2019_Oct_09,13,001,4,recog,36,EVENING,HF,target,left,aqua,pleasantness,liberal,no,z,1,0.416928421435,3,539
2019_Oct_09,13,001,4,recog,37,BETTER,HF,target,left,aqua,pleasantness,liberal,no,m,0,0.266965301729,-3,536
2019_Oct_09,13,001,4,recog,38,PRYING,LF,target,left,aqua,pleasantness,conservative,no,z,1,0.166963981957,1,537
2019_Oct_09,13,001,4,recog,39,POLICE,HF,lure,-,-,-,liberal,no,m,1,0.966902685883,1,538
2019_Oct_09,13,001,4,recog,40,SEWED,LF,lure,-,-,-,liberal,no,m,1,0.733559674221,1,539
2019_Oct_09,13,001,4,recog,41,MILES,HF,target,right,yellow,imageability,liberal,no,m,0,0.600281404707,-3,536
2019_Oct_09,13,001,4,recog,42,COFFINS,LF,lure,-,-,-,conservative,no,m,1,0.666904225616,3,539
2019_Oct_09,13,001,4,recog,43,OUGHT,HF,lure,-,-,-,conservative,no,z,0,0.766934873654,-3,536
2019_Oct_09,13,001,4,recog,44,NEWMARKET,LF,target,left,aqua,pleasantness,liberal,no,z,1,0.433676327397,3,539
2019_Oct_09,13,001,4,recog,45,PELTED,LF,target,left,aqua,pleasantness,conservative,no,z,1,0.9335549817,1,540
2019_Oct_09,13,001,4,recog,46,DOGMAS,LF,lure,-,-,-,conservative,no,m,1,0.833592888483,3,543
2019_Oct_09,13,001,4,recog,47,OBVIOUSLY,HF,lure,-,-,-,conservative,no,z,0,1.00015360679,-3,540
2019_Oct_09,13,001,4,recog,48,ABUSING,LF,target,right,yellow,imageability,liberal,no,z,1,0.183598974098,3,543
2019_Oct_09,13,001,4,recog,49,FEUDALISM,LF,target,left,aqua,pleasantness,liberal,no,m,0,0.966901952675,-3,540
2019_Oct_09,13,001,4,recog,50,WIRING,LF,target,left,aqua,pleasantness,liberal,no,z,1,0.550239318645,3,543
2019_Oct_09,13,001,4,recog,51,TIMES,HF,lure,-,-,-,liberal,no,m,1,0.650286463832,1,544
2019_Oct_09,13,001,4,recog,52,FRIEND,HF,lure,-,-,-,conservative,no,z,0,0.466677591446,-3,541
2019_Oct_09,13,001,4,recog,53,SURER,LF,target,right,yellow,imageability,conservative,no,z,1,0.400250536708,1,542
2019_Oct_09,13,001,4,recog,54,KIDNAP,LF,lure,-,-,-,liberal,no,m,1,0.583574191714,1,543
2019_Oct_09,13,001,4,recog,55,VECTORS,LF,lure,-,-,-,liberal,no,z,0,0.466983338612,-1,542
2019_Oct_09,13,001,4,recog,56,MOCCASINS,LF,lure,-,-,-,liberal,no,z,0,0.683616571057,-1,541
2019_Oct_09,13,001,4,recog,57,LOVELIEST,LF,target,right,yellow,imageability,liberal,no,z,1,0.616891467821,3,544
2019_Oct_09,13,001,4,recog,58,PSEUDONYM,LF,target,left,aqua,pleasantness,conservative,no,z,1,0.566872111166,1,545
2019_Oct_09,13,001,4,recog,59,DIFFERENT,HF,target,right,yellow,imageability,conservative,no,z,1,0.816948731259,1,546
2019_Oct_09,13,001,4,recog,60,PADDLE,LF,lure,-,-,-,conservative,no,m,1,0.866968454518,3,549
2019_Oct_09,13,001,4,recog,61,POINT,HF,target,left,aqua,pleasantness,conservative,no,m,0,0.666932454072,-1,548
2019_Oct_09,13,001,4,recog,62,CUCKOO,LF,lure,-,-,-,liberal,no,m,1,0.850230813448,1,549
2019_Oct_09,13,001,4,recog,63,VULTURE,LF,target,right,yellow,imageability,conservative,no,z,1,1.18353701814,1,550
2019_Oct_09,13,001,4,recog,64,OPENED,HF,lure,-,-,-,conservative,no,z,0,0.716726349687,-3,547
2019_Oct_09,13,001,4,recog,65,FUDGE,LF,lure,-,-,-,conservative,no,m,1,0.866882302738,3,550
2019_Oct_09,13,001,4,recog,66,PASSED,HF,lure,-,-,-,liberal,no,z,0,0.966896453627,-1,549
2019_Oct_09,13,001,4,recog,67,GUILDHALL,LF,target,right,yellow,imageability,conservative,yes,z,1,0.816943232209,1,550
2019_Oct_09,13,001,4,recog,68,THOUSAND,HF,lure,-,-,-,conservative,no,m,1,0.366936560029,3,553
2019_Oct_09,13,001,4,recog,69,WATCH,HF,target,right,yellow,imageability,liberal,no,z,1,1.10014539488,3,556
2019_Oct_09,13,001,4,recog,70,GIRLS,HF,target,right,yellow,imageability,conservative,no,z,1,0.550292109523,1,557
2019_Oct_09,13,001,4,recog,71,AEROSOL,LF,target,left,aqua,pleasantness,conservative,yes,z,1,0.416892494311,1,558
2019_Oct_09,13,001,4,recog,72,ACORNS,LF,target,right,yellow,imageability,conservative,no,z,1,0.266952837216,1,559
2019_Oct_09,13,001,4,recog,73,BEAUTIFUL,HF,lure,-,-,-,liberal,no,z,0,0.233628229042,-1,558
2019_Oct_09,13,001,4,recog,74,DYNAMISM,LF,lure,-,-,-,liberal,no,z,0,0.400342920743,-1,557
2019_Oct_09,13,001,4,recog,75,EMIGRATED,LF,lure,-,-,-,liberal,no,m,1,0.966703986885,1,558
2019_Oct_09,13,001,4,recog,76,GETTING,HF,lure,-,-,-,liberal,no,m,1,1.0834840073,1,559
2019_Oct_09,13,001,4,recog,77,EFFECT,HF,lure,-,-,-,conservative,no,m,1,0.833562093804,3,562
2019_Oct_09,13,001,4,recog,78,ASKED,HF,target,left,aqua,pleasantness,conservative,no,z,1,0.766993896787,1,563
2019_Oct_09,13,001,4,recog,79,PRACTICE,HF,target,left,aqua,pleasantness,liberal,no,z,1,0.600224947796,3,566
2019_Oct_09,13,001,4,recog,80,WASHBASIN,LF,target,left,aqua,pleasantness,conservative,no,z,1,0.583556594754,1,567
2019_Oct_09,13,001,4,recog,81,YEARN,LF,target,left,aqua,pleasantness,liberal,no,z,1,1.30024151827,3,570
2019_Oct_09,13,001,4,recog,82,RIVER,HF,lure,-,-,-,liberal,no,m,1,0.733546109899,1,571
2019_Oct_09,13,001,4,recog,83,BRING,HF,lure,-,-,-,conservative,no,z,0,0.600288736773,-3,568
2019_Oct_09,13,001,4,recog,84,SAWDUST,LF,lure,-,-,-,conservative,no,m,1,0.233595234744,3,571
2019_Oct_09,13,001,4,recog,85,QUESTION,HF,lure,-,-,-,conservative,no,z,0,0.350058509889,-3,568
2019_Oct_09,13,001,4,recog,86,FIXTURE,LF,lure,-,-,-,liberal,no,z,0,0.350290936392,-1,567
2019_Oct_09,13,001,4,recog,87,HUSBAND,HF,target,left,aqua,pleasantness,conservative,no,m,0,0.400206177706,-1,566
2019_Oct_09,13,001,4,recog,88,PLACE,HF,lure,-,-,-,conservative,no,m,1,1.71679820394,3,569
2019_Oct_09,13,001,4,recog,89,IMPORTANT,HF,target,right,yellow,imageability,liberal,no,z,1,0.616916396846,3,572
2019_Oct_09,13,001,4,recog,90,CACOPHONY,LF,target,left,aqua,pleasantness,liberal,no,z,1,0.683571478849,3,575
2019_Oct_09,13,001,4,recog,91,BAOBAB,LF,lure,-,-,-,liberal,no,m,1,0.78356400014,1,576
2019_Oct_09,13,001,4,recog,92,ROUND,HF,target,left,aqua,pleasantness,conservative,no,z,1,0.683576977898,1,577
2019_Oct_09,13,001,4,recog,93,SWIFTNESS,LF,target,right,yellow,imageability,liberal,yes,m,0,0.567068243941,-3,574
2019_Oct_09,13,001,4,recog,94,RANGE,HF,lure,-,-,-,liberal,no,z,0,0.600075373643,-1,573
2019_Oct_09,13,001,4,recog,95,SYNDICATE,LF,lure,-,-,-,liberal,no,z,0,0.366961122451,-1,572
