date,subj,session,cycle,task,trial,item,wf,type,source,colour,encoding,bias,null,response,corr,rt,points,total
2019_Oct_31,130,001,0,source,0,OTTOMAN,LF,target,right,aqua,imageability,liberal,no,9,1,2.91800343437,-,-
2019_Oct_31,130,001,0,source,1,CEASELESS,LF,target,right,aqua,imageability,conservative,no,7,1,1.97687082711,-,-
2019_Oct_31,130,001,0,source,2,ARTIFACTS,LF,target,left,yellow,pleasantness,liberal,no,1,1,1.34149789348,-,-
2019_Oct_31,130,001,0,source,3,BICEPS,LF,target,right,aqua,imageability,conservative,no,9,1,1.31771799493,-,-
2019_Oct_31,130,001,0,source,4,FIXTURE,LF,target,left,yellow,pleasantness,conservative,no,1,1,1.05899130557,-,-
2019_Oct_31,130,001,0,source,5,AVAILABLE,HF,target,right,aqua,imageability,conservative,no,2,0,1.41209447877,-,-
2019_Oct_31,130,001,0,source,6,THING,HF,target,left,yellow,pleasantness,liberal,yes,3,1,1.48263790618,-,-
2019_Oct_31,130,001,0,source,7,ECONOMIC,HF,target,right,aqua,imageability,liberal,no,9,1,1.67097330962,-,-
2019_Oct_31,130,001,0,source,8,ARGUABLE,LF,target,left,yellow,pleasantness,conservative,no,9,0,0.870916192401,-,-
2019_Oct_31,130,001,0,source,9,LOOKED,HF,target,right,aqua,imageability,liberal,no,9,1,0.72955878234,-,-
2019_Oct_31,130,001,0,source,10,TIMES,HF,target,right,aqua,imageability,conservative,no,9,1,0.894513154557,-,-
2019_Oct_31,130,001,0,source,11,LANGUAGE,HF,target,left,yellow,pleasantness,liberal,yes,7,0,1.05909835453,-,-
2019_Oct_31,130,001,0,source,12,COERCION,LF,target,left,yellow,pleasantness,conservative,no,2,1,2.72975345013,-,-
2019_Oct_31,130,001,0,source,13,EITHER,HF,target,right,aqua,imageability,conservative,no,8,1,1.31796178792,-,-
2019_Oct_31,130,001,0,source,14,DILATED,LF,target,left,yellow,pleasantness,liberal,no,1,1,1.01202137753,-,-
2019_Oct_31,130,001,0,source,15,TRIED,HF,target,right,aqua,imageability,liberal,no,7,1,1.38838643499,-,-
2019_Oct_31,130,001,0,source,16,PSALMS,LF,target,right,aqua,imageability,liberal,no,9,1,0.988275206729,-,-
2019_Oct_31,130,001,0,source,17,EARLIER,HF,target,left,yellow,pleasantness,conservative,no,3,1,2.44734804548,-,-
2019_Oct_31,130,001,0,source,18,IRISES,LF,target,left,yellow,pleasantness,liberal,no,1,1,1.05918267391,-,-
2019_Oct_31,130,001,0,source,19,NEITHER,HF,target,right,aqua,imageability,liberal,no,9,1,0.96501258925,-,-
2019_Oct_31,130,001,0,source,20,UPHEAVALS,LF,target,right,aqua,imageability,liberal,no,9,1,0.800270848517,-,-
2019_Oct_31,130,001,0,source,21,SPEAK,HF,target,right,aqua,imageability,liberal,no,8,1,2.00010118326,-,-
2019_Oct_31,130,001,0,source,22,BOGEY,LF,target,right,aqua,imageability,liberal,no,9,1,0.776823828217,-,-
2019_Oct_31,130,001,0,source,23,JOCKEYS,LF,target,right,aqua,imageability,conservative,no,9,1,0.612041394217,-,-
2019_Oct_31,130,001,0,source,24,NUMBER,HF,target,left,yellow,pleasantness,conservative,no,1,1,1.62379075009,-,-
2019_Oct_31,130,001,0,source,25,HINDERED,LF,target,left,yellow,pleasantness,liberal,no,8,0,1.22380710072,-,-
2019_Oct_31,130,001,0,source,26,SUBJECT,HF,target,left,yellow,pleasantness,conservative,no,1,1,0.988473540578,-,-
2019_Oct_31,130,001,0,source,27,TICKLE,LF,target,left,yellow,pleasantness,liberal,no,1,1,1.24737253476,-,-
2019_Oct_31,130,001,0,source,28,HARDLY,HF,target,left,yellow,pleasantness,conservative,no,8,0,1.71792967324,-,-
2019_Oct_31,130,001,0,source,29,LUSCIOUS,LF,target,left,yellow,pleasantness,conservative,no,1,1,1.01213062612,-,-
2019_Oct_31,130,001,0,source,30,WRONG,HF,target,right,aqua,imageability,conservative,no,8,1,1.08263152724,-,-
2019_Oct_31,130,001,0,source,31,NEARLY,HF,target,right,aqua,imageability,liberal,no,8,1,1.20035604775,-,-
2019_Oct_31,130,001,0,source,32,GREATER,HF,target,left,yellow,pleasantness,conservative,no,2,1,1.3415602165,-,-
2019_Oct_31,130,001,0,source,33,LEARN,HF,target,left,yellow,pleasantness,liberal,yes,3,1,1.17686576794,-,-
2019_Oct_31,130,001,0,source,34,KNOWLEDGE,HF,target,right,aqua,imageability,conservative,yes,7,1,1.0590481295,-,-
2019_Oct_31,130,001,0,source,35,VEILING,LF,target,left,yellow,pleasantness,conservative,no,2,1,2.5416017163,-,-
2019_Oct_31,130,001,0,source,36,OFFER,HF,target,left,yellow,pleasantness,liberal,no,7,0,1.69447935348,-,-
2019_Oct_31,130,001,0,source,37,SOPHISTS,LF,target,right,aqua,imageability,conservative,no,9,1,1.05910825289,-,-
2019_Oct_31,130,001,0,source,38,COLDEST,LF,target,right,aqua,imageability,liberal,no,9,1,1.27086794705,-,-
2019_Oct_31,130,001,0,source,39,VENDETTA,LF,target,left,yellow,pleasantness,liberal,no,1,1,0.964982894164,-,-
2019_Oct_31,130,001,0,source,40,FRIEND,HF,target,left,yellow,pleasantness,liberal,no,1,1,0.612109582934,-,-
2019_Oct_31,130,001,0,source,41,TUBERS,LF,target,right,aqua,imageability,conservative,no,9,1,1.03559304387,-,-
2019_Oct_31,130,001,0,source,42,UNCANNILY,LF,target,right,aqua,imageability,conservative,no,8,1,1.45916339043,-,-
2019_Oct_31,130,001,0,source,43,MACARONI,LF,target,right,aqua,imageability,liberal,no,9,1,0.917755608705,-,-
2019_Oct_31,130,001,0,source,44,PREPARED,HF,target,left,yellow,pleasantness,conservative,no,8,0,1.78860031293,-,-
2019_Oct_31,130,001,0,source,45,PIECE,HF,target,left,yellow,pleasantness,liberal,no,2,1,1.60027957374,-,-
2019_Oct_31,130,001,0,source,46,SCABS,LF,target,left,yellow,pleasantness,conservative,no,1,1,0.823796689108,-,-
2019_Oct_31,130,001,0,source,47,BROUGHT,HF,target,right,aqua,imageability,conservative,no,1,0,0.988564092262,-,-
2019_Oct_31,130,001,0,recog,0,DETACH,LF,lure,-,-,-,liberal,no,m,1,1.96508224439,1,1
2019_Oct_31,130,001,0,recog,1,RIGGING,LF,lure,-,-,-,conservative,no,m,1,0.976783208272,3,4
2019_Oct_31,130,001,0,recog,2,NEARLY,HF,target,right,aqua,imageability,liberal,yes,z,1,0.929686434551,3,7
2019_Oct_31,130,001,0,recog,3,UNCANNILY,LF,target,right,aqua,imageability,conservative,no,z,1,1.58854084944,1,8
2019_Oct_31,130,001,0,recog,4,SUBJECT,HF,target,left,yellow,pleasantness,conservative,no,z,1,0.670968543738,1,9
2019_Oct_31,130,001,0,recog,5,TRIED,HF,target,right,aqua,imageability,liberal,no,z,1,1.57679002714,3,12
2019_Oct_31,130,001,0,recog,6,BUOYANCY,LF,lure,-,-,-,conservative,no,m,1,1.14166095983,3,15
2019_Oct_31,130,001,0,recog,7,ACACIA,LF,lure,-,-,-,conservative,no,m,1,0.7885493547,3,18
2019_Oct_31,130,001,0,recog,8,AVAILABLE,HF,target,right,aqua,imageability,conservative,no,z,1,0.976494689345,1,19
2019_Oct_31,130,001,0,recog,9,RESEARCH,HF,lure,-,-,-,conservative,no,m,1,0.788489964527,3,22
2019_Oct_31,130,001,0,recog,10,WRONG,HF,target,right,aqua,imageability,conservative,no,z,1,0.952951618272,1,23
2019_Oct_31,130,001,0,recog,11,TABLE,HF,lure,-,-,-,conservative,no,m,1,0.835535046801,3,26
2019_Oct_31,130,001,0,recog,12,OPENED,HF,lure,-,-,-,liberal,no,z,0,1.80030934215,-1,25
2019_Oct_31,130,001,0,recog,13,IRISES,LF,target,left,yellow,pleasantness,liberal,no,z,1,1.15317898732,3,28
2019_Oct_31,130,001,0,recog,14,CEASELESS,LF,target,right,aqua,imageability,conservative,no,z,1,1.12967037721,1,29
2019_Oct_31,130,001,0,recog,15,THING,HF,target,left,yellow,pleasantness,liberal,no,z,1,0.847309331883,3,32
2019_Oct_31,130,001,0,recog,16,PREPARED,HF,target,left,yellow,pleasantness,conservative,no,z,1,0.988523398995,1,33
2019_Oct_31,130,001,0,recog,17,TUBERS,LF,target,right,aqua,imageability,conservative,yes,m,0,0.753264259874,-1,32
2019_Oct_31,130,001,0,recog,18,CENTRAL,HF,lure,-,-,-,conservative,no,m,1,0.906208619347,3,35
2019_Oct_31,130,001,0,recog,19,DILATED,LF,target,left,yellow,pleasantness,liberal,no,z,1,1.25914681984,3,38
2019_Oct_31,130,001,0,recog,20,MEANS,HF,lure,-,-,-,conservative,no,m,1,1.23553812629,3,41
2019_Oct_31,130,001,0,recog,21,JOCKEYS,LF,target,right,aqua,imageability,conservative,no,z,1,0.89445963008,1,42
2019_Oct_31,130,001,0,recog,22,FACILE,LF,lure,-,-,-,liberal,no,m,1,1.04750114014,1,43
2019_Oct_31,130,001,0,recog,23,ORDER,HF,lure,-,-,-,liberal,no,m,1,1.21213473211,1,44
2019_Oct_31,130,001,0,recog,24,SCABS,LF,target,left,yellow,pleasantness,conservative,no,z,1,0.800397327589,1,45
2019_Oct_31,130,001,0,recog,25,ROPED,LF,lure,-,-,-,liberal,yes,m,1,0.870993912874,1,46
2019_Oct_31,130,001,0,recog,26,UPHEAVALS,LF,target,right,aqua,imageability,liberal,no,z,1,0.976814736388,3,49
2019_Oct_31,130,001,0,recog,27,COLDEST,LF,target,right,aqua,imageability,liberal,no,z,1,0.647260499963,3,52
2019_Oct_31,130,001,0,recog,28,MAYBE,HF,lure,-,-,-,conservative,no,z,0,0.800316674268,-3,49
2019_Oct_31,130,001,0,recog,29,LANGUAGE,HF,target,left,yellow,pleasantness,liberal,no,z,1,0.800273414759,3,52
2019_Oct_31,130,001,0,recog,30,COGENT,LF,lure,-,-,-,liberal,yes,m,1,0.741464312372,1,53
2019_Oct_31,130,001,0,recog,31,TICKLE,LF,target,left,yellow,pleasantness,liberal,no,z,1,0.776749040592,3,56
2019_Oct_31,130,001,0,recog,32,PIECE,HF,target,left,yellow,pleasantness,liberal,no,z,1,0.659215155199,3,59
2019_Oct_31,130,001,0,recog,33,LOOKED,HF,target,right,aqua,imageability,liberal,no,z,1,0.71798356432,3,62
2019_Oct_31,130,001,0,recog,34,REOPEN,LF,lure,-,-,-,conservative,no,m,1,0.753174808008,3,65
2019_Oct_31,130,001,0,recog,35,SPEAK,HF,target,right,aqua,imageability,liberal,no,z,1,0.859060887392,3,68
2019_Oct_31,130,001,0,recog,36,ARGUABLE,LF,target,left,yellow,pleasantness,conservative,no,z,1,1.17679171353,1,69
2019_Oct_31,130,001,0,recog,37,COERCION,LF,target,left,yellow,pleasantness,conservative,no,z,1,0.682559159211,1,70
2019_Oct_31,130,001,0,recog,38,ACROSS,HF,lure,-,-,-,liberal,no,m,1,1.34147076464,1,71
2019_Oct_31,130,001,0,recog,39,MAILBOX,LF,lure,-,-,-,liberal,no,m,1,0.717943970871,1,72
2019_Oct_31,130,001,0,recog,40,RETURN,HF,lure,-,-,-,conservative,no,m,1,0.941219492881,3,75
2019_Oct_31,130,001,0,recog,41,HARDLY,HF,target,left,yellow,pleasantness,conservative,no,z,1,0.800196427498,1,76
2019_Oct_31,130,001,0,recog,42,DIVAN,LF,lure,-,-,-,liberal,no,z,0,1.08264545826,-1,75
2019_Oct_31,130,001,0,recog,43,BOGEY,LF,target,right,aqua,imageability,liberal,no,z,1,0.7885493547,3,78
2019_Oct_31,130,001,0,recog,44,ARTIFACTS,LF,target,left,yellow,pleasantness,liberal,no,z,1,0.729467497445,3,81
2019_Oct_31,130,001,0,recog,45,PSALMS,LF,target,right,aqua,imageability,liberal,no,z,1,0.623840608507,3,84
2019_Oct_31,130,001,0,recog,46,EXACTLY,HF,lure,-,-,-,liberal,no,z,0,1.12969200696,-1,83
2019_Oct_31,130,001,0,recog,47,VEILING,LF,target,left,yellow,pleasantness,conservative,no,z,1,0.706183983424,1,84
2019_Oct_31,130,001,0,recog,48,ECONOMIC,HF,target,right,aqua,imageability,liberal,no,z,1,0.800197893922,3,87
2019_Oct_31,130,001,0,recog,49,SOLEMNITY,LF,lure,-,-,-,conservative,no,m,1,0.706205246572,3,90
2019_Oct_31,130,001,0,recog,50,VENDETTA,LF,target,left,yellow,pleasantness,liberal,no,z,1,0.612031862461,3,93
2019_Oct_31,130,001,0,recog,51,BECAME,HF,lure,-,-,-,conservative,no,m,1,0.84740684908,3,96
2019_Oct_31,130,001,0,recog,52,ICILY,LF,lure,-,-,-,liberal,no,m,1,0.953067099164,1,97
2019_Oct_31,130,001,0,recog,53,WESTERN,HF,lure,-,-,-,conservative,no,m,1,0.894396207241,3,100
2019_Oct_31,130,001,0,recog,54,OTTOMAN,LF,target,right,aqua,imageability,liberal,no,z,1,0.69451821372,3,103
2019_Oct_31,130,001,0,recog,55,LUSCIOUS,LF,target,left,yellow,pleasantness,conservative,no,z,1,0.812082160805,1,104
2019_Oct_31,130,001,0,recog,56,OFFER,HF,target,left,yellow,pleasantness,liberal,no,z,1,0.882588194407,3,107
2019_Oct_31,130,001,0,recog,57,KNOWLEDGE,HF,target,right,aqua,imageability,conservative,no,z,1,0.588508221506,1,108
2019_Oct_31,130,001,0,recog,58,KIDNAP,LF,lure,-,-,-,conservative,no,m,1,0.647409342001,3,111
2019_Oct_31,130,001,0,recog,59,EITHER,HF,target,right,aqua,imageability,conservative,no,z,1,0.635563202142,1,112
2019_Oct_31,130,001,0,recog,60,ROCKER,LF,lure,-,-,-,liberal,no,m,1,1.04736073004,1,113
2019_Oct_31,130,001,0,recog,61,FIXTURE,LF,target,left,yellow,pleasantness,conservative,no,z,1,0.670809070126,1,114
2019_Oct_31,130,001,0,recog,62,LIKELY,HF,lure,-,-,-,liberal,no,z,0,1.1768632017,-1,113
2019_Oct_31,130,001,0,recog,63,BEAUTIFUL,HF,lure,-,-,-,liberal,no,m,1,0.882623388583,1,114
2019_Oct_31,130,001,0,recog,64,INSIDE,HF,lure,-,-,-,conservative,no,m,1,0.82367167646,3,117
2019_Oct_31,130,001,0,recog,65,ACIDITY,LF,lure,-,-,-,conservative,no,m,1,1.14130755164,3,120
2019_Oct_31,130,001,0,recog,66,SHALL,HF,lure,-,-,-,liberal,no,m,1,0.741445982071,1,121
2019_Oct_31,130,001,0,recog,67,FRIEND,HF,target,left,yellow,pleasantness,liberal,no,z,1,0.576772796661,3,124
2019_Oct_31,130,001,0,recog,68,BICEPS,LF,target,right,aqua,imageability,conservative,no,z,1,0.917698784774,1,125
2019_Oct_31,130,001,0,recog,69,NEITHER,HF,target,right,aqua,imageability,liberal,no,z,1,0.612054592033,3,128
2019_Oct_31,130,001,0,recog,70,MACARONI,LF,target,right,aqua,imageability,liberal,no,z,1,0.576763631511,3,131
2019_Oct_31,130,001,0,recog,71,POINT,HF,lure,-,-,-,liberal,no,m,1,0.859165003497,1,132
2019_Oct_31,130,001,0,recog,72,BROUGHT,HF,target,right,aqua,imageability,conservative,no,z,1,0.823806220864,1,133
2019_Oct_31,130,001,0,recog,73,INITIATES,LF,lure,-,-,-,conservative,no,m,1,1.02380666079,3,136
2019_Oct_31,130,001,0,recog,74,NUMBER,HF,target,left,yellow,pleasantness,conservative,no,z,1,0.706168219365,1,137
2019_Oct_31,130,001,0,recog,75,COFFINS,LF,lure,-,-,-,conservative,no,m,1,0.882354666381,3,140
2019_Oct_31,130,001,0,recog,76,GUSHED,LF,lure,-,-,-,conservative,no,m,1,0.812160981096,3,143
2019_Oct_31,130,001,0,recog,77,TOYED,LF,lure,-,-,-,liberal,no,m,1,0.670860761573,1,144
2019_Oct_31,130,001,0,recog,78,TIMES,HF,target,right,aqua,imageability,conservative,no,z,1,0.894377510335,1,145
2019_Oct_31,130,001,0,recog,79,CAMPANILE,LF,lure,-,-,-,conservative,no,m,1,0.694455157487,3,148
2019_Oct_31,130,001,0,recog,80,SKIDDED,LF,lure,-,-,-,liberal,no,m,1,1.27068024478,1,149
2019_Oct_31,130,001,0,recog,81,BUILDING,HF,lure,-,-,-,liberal,no,m,1,0.788517826584,1,150
2019_Oct_31,130,001,0,recog,82,GREATER,HF,target,left,yellow,pleasantness,conservative,no,z,1,0.6473726814,1,151
2019_Oct_31,130,001,0,recog,83,PICTURE,HF,lure,-,-,-,liberal,no,m,1,1.62368883362,1,152
2019_Oct_31,130,001,0,recog,84,HINDERED,LF,target,left,yellow,pleasantness,liberal,no,z,1,0.694357640289,3,155
2019_Oct_31,130,001,0,recog,85,COOING,LF,lure,-,-,-,liberal,no,m,1,0.953302826826,1,156
2019_Oct_31,130,001,0,recog,86,DRINK,HF,lure,-,-,-,liberal,no,m,1,0.941495547203,1,157
2019_Oct_31,130,001,0,recog,87,TOTAL,HF,lure,-,-,-,liberal,no,m,1,0.72966069881,1,158
2019_Oct_31,130,001,0,recog,88,ELLIPSE,LF,lure,-,-,-,conservative,no,m,1,0.76492892976,3,161
2019_Oct_31,130,001,0,recog,89,SOPHISTS,LF,target,right,aqua,imageability,conservative,no,z,1,0.835571340795,1,162
2019_Oct_31,130,001,0,recog,90,KITCHEN,HF,lure,-,-,-,conservative,no,m,1,0.635572367292,3,165
2019_Oct_31,130,001,0,recog,91,SOMEONE,HF,lure,-,-,-,conservative,no,m,1,1.03555565006,3,168
2019_Oct_31,130,001,0,recog,92,TASSELS,LF,lure,-,-,-,liberal,no,m,1,0.976688623922,1,169
2019_Oct_31,130,001,0,recog,93,LEARN,HF,target,left,yellow,pleasantness,liberal,no,z,1,0.823671309854,3,172
2019_Oct_31,130,001,0,recog,94,EARLIER,HF,target,left,yellow,pleasantness,conservative,no,z,1,0.670713752564,1,173
2019_Oct_31,130,001,0,recog,95,UNION,HF,lure,-,-,-,conservative,no,m,1,0.647465066114,3,176
2019_Oct_31,130,001,1,source,0,PEEKED,LF,target,right,aqua,imageability,liberal,yes,8,1,1.01205950455,-,-
2019_Oct_31,130,001,1,source,1,DOTTY,LF,target,right,aqua,imageability,conservative,no,8,1,1.77657710238,-,-
2019_Oct_31,130,001,1,source,2,TOPICAL,LF,target,left,yellow,pleasantness,liberal,no,1,1,1.23557991938,-,-
2019_Oct_31,130,001,1,source,3,CODING,LF,target,right,aqua,imageability,conservative,no,9,1,0.906177091231,-,-
2019_Oct_31,130,001,1,source,4,TOWARDS,HF,target,right,aqua,imageability,conservative,no,8,1,1.16497013627,-,-
2019_Oct_31,130,001,1,source,5,WAITING,HF,target,left,yellow,pleasantness,conservative,no,1,1,1.25913765469,-,-
2019_Oct_31,130,001,1,source,6,EVENING,HF,target,left,yellow,pleasantness,liberal,no,1,1,0.788445238594,-,-
2019_Oct_31,130,001,1,source,7,APOSTLE,LF,target,right,aqua,imageability,liberal,yes,2,0,0.812099024681,-,-
2019_Oct_31,130,001,1,source,8,TRYING,HF,target,left,yellow,pleasantness,conservative,no,8,0,2.18829141071,-,-
2019_Oct_31,130,001,1,source,9,FIGURE,HF,target,left,yellow,pleasantness,conservative,no,7,0,1.94150177951,-,-
2019_Oct_31,130,001,1,source,10,ETHER,LF,target,right,aqua,imageability,conservative,no,8,1,1.718098312,-,-
2019_Oct_31,130,001,1,source,11,ASPIRED,LF,target,left,yellow,pleasantness,conservative,no,1,1,1.83565382715,-,-
2019_Oct_31,130,001,1,source,12,CAUGHT,HF,target,right,aqua,imageability,liberal,no,9,1,1.10628348029,-,-
2019_Oct_31,130,001,1,source,13,CLEAR,HF,target,left,yellow,pleasantness,liberal,no,1,1,0.69429421745,-,-
2019_Oct_31,130,001,1,source,14,REPORT,HF,target,left,yellow,pleasantness,liberal,no,1,1,1.45907870444,-,-
2019_Oct_31,130,001,1,source,15,BEHIND,HF,target,left,yellow,pleasantness,conservative,yes,2,1,0.647456634176,-,-
2019_Oct_31,130,001,1,source,16,BEYOND,HF,target,right,aqua,imageability,liberal,no,9,1,1.10620502661,-,-
2019_Oct_31,130,001,1,source,17,FECKLESS,LF,target,left,yellow,pleasantness,liberal,yes,7,0,1.01214199091,-,-
2019_Oct_31,130,001,1,source,18,PAVILIONS,LF,target,left,yellow,pleasantness,conservative,no,1,1,1.05923583178,-,-
2019_Oct_31,130,001,1,source,19,UNBEATEN,LF,target,left,yellow,pleasantness,conservative,no,1,1,0.988505801907,-,-
2019_Oct_31,130,001,1,source,20,CLASS,HF,target,right,aqua,imageability,conservative,no,9,1,1.32971480986,-,-
2019_Oct_31,130,001,1,source,21,SABLE,LF,target,right,aqua,imageability,conservative,no,9,1,0.706180317363,-,-
2019_Oct_31,130,001,1,source,22,PSEUDONYM,LF,target,right,aqua,imageability,liberal,no,9,1,0.588469727876,-,-
2019_Oct_31,130,001,1,source,23,INORGANIC,LF,target,left,yellow,pleasantness,liberal,no,1,1,0.776489850146,-,-
2019_Oct_31,130,001,1,source,24,TOGETHER,HF,target,left,yellow,pleasantness,liberal,no,8,0,1.85929148257,-,-
2019_Oct_31,130,001,1,source,25,MARKET,HF,target,left,yellow,pleasantness,conservative,no,1,1,0.905969592231,-,-
2019_Oct_31,130,001,1,source,26,KETCHUP,LF,target,left,yellow,pleasantness,liberal,no,1,1,0.635514810149,-,-
2019_Oct_31,130,001,1,source,27,DECIDED,HF,target,right,aqua,imageability,conservative,no,9,1,1.51794976325,-,-
2019_Oct_31,130,001,1,source,28,UNLESS,HF,target,right,aqua,imageability,conservative,no,7,1,1.22375650909,-,-
2019_Oct_31,130,001,1,source,29,HISTORY,HF,target,right,aqua,imageability,liberal,no,9,1,1.10616286692,-,-
2019_Oct_31,130,001,1,source,30,ENOUGH,HF,target,right,aqua,imageability,liberal,no,8,1,1.25891915751,-,-
2019_Oct_31,130,001,1,source,31,URCHIN,LF,target,left,yellow,pleasantness,liberal,no,1,1,0.8706170419,-,-
2019_Oct_31,130,001,1,source,32,HITCHING,LF,target,left,yellow,pleasantness,liberal,no,1,1,0.56501317582,-,-
2019_Oct_31,130,001,1,source,33,WATCH,HF,target,right,aqua,imageability,liberal,no,9,1,0.917744610525,-,-
2019_Oct_31,130,001,1,source,34,BEDLAM,LF,target,right,aqua,imageability,conservative,no,9,1,0.69444195967,-,-
2019_Oct_31,130,001,1,source,35,ADENOIDS,LF,target,right,aqua,imageability,liberal,no,9,1,1.22382176496,-,-
2019_Oct_31,130,001,1,source,36,GERANIUMS,LF,target,left,yellow,pleasantness,conservative,no,1,1,0.941399129824,-,-
2019_Oct_31,130,001,1,source,37,HEEDED,LF,target,left,yellow,pleasantness,conservative,no,1,1,1.34127646345,-,-
2019_Oct_31,130,001,1,source,38,CHIEF,HF,target,left,yellow,pleasantness,conservative,no,1,1,0.565032605938,-,-
2019_Oct_31,130,001,1,source,39,RELAXES,LF,target,right,aqua,imageability,liberal,no,1,0,2.56501097618,-,-
2019_Oct_31,130,001,1,source,40,ALTHOUGH,HF,target,left,yellow,pleasantness,liberal,no,8,0,3.04737539428,-,-
2019_Oct_31,130,001,1,source,41,ENTIRELY,HF,target,right,aqua,imageability,conservative,no,9,1,1.49437369763,-,-
2019_Oct_31,130,001,1,source,42,UNGAINLY,LF,target,right,aqua,imageability,liberal,no,8,1,1.27091927189,-,-
2019_Oct_31,130,001,1,source,43,JOURNEYED,LF,target,left,yellow,pleasantness,conservative,no,1,1,0.765021681079,-,-
2019_Oct_31,130,001,1,source,44,MILES,HF,target,right,aqua,imageability,liberal,no,9,1,0.78852552531,-,-
2019_Oct_31,130,001,1,source,45,PRIVATE,HF,target,left,yellow,pleasantness,liberal,no,1,1,0.682386121176,-,-
2019_Oct_31,130,001,1,source,46,AEGIS,LF,target,right,aqua,imageability,conservative,no,2,0,1.35318675936,-,-
2019_Oct_31,130,001,1,source,47,HUNDRED,HF,target,right,aqua,imageability,conservative,no,9,1,0.90626251043,-,-
2019_Oct_31,130,001,1,recog,0,CYNIC,LF,lure,-,-,-,conservative,no,m,1,0.87088686392,3,179
2019_Oct_31,130,001,1,recog,1,TOPICAL,LF,target,left,yellow,pleasantness,liberal,no,z,1,0.729885794897,3,182
2019_Oct_31,130,001,1,recog,2,CAUGHT,HF,target,right,aqua,imageability,liberal,no,z,1,0.623837675659,3,185
2019_Oct_31,130,001,1,recog,3,APOSTLE,LF,target,right,aqua,imageability,liberal,no,z,1,0.835588571278,3,188
2019_Oct_31,130,001,1,recog,4,TOILED,LF,lure,-,-,-,liberal,no,m,1,0.906391189138,1,189
2019_Oct_31,130,001,1,recog,5,HOSPITAL,HF,lure,-,-,-,liberal,no,m,1,0.776784234769,1,190
2019_Oct_31,130,001,1,recog,6,SOUND,HF,lure,-,-,-,liberal,no,m,1,0.612057524882,1,191
2019_Oct_31,130,001,1,recog,7,HEEDED,LF,target,left,yellow,pleasantness,conservative,no,z,1,0.823795222684,1,192
2019_Oct_31,130,001,1,recog,8,BUNGALOWS,LF,lure,-,-,-,conservative,no,m,1,1.14148535556,3,195
2019_Oct_31,130,001,1,recog,9,NARRATOR,LF,lure,-,-,-,conservative,no,m,1,0.741447448496,3,198
2019_Oct_31,130,001,1,recog,10,ETHER,LF,target,right,aqua,imageability,conservative,no,z,1,0.61210811651,1,199
2019_Oct_31,130,001,1,recog,11,HUNDRED,HF,target,right,aqua,imageability,conservative,no,z,1,0.753256194542,1,200
2019_Oct_31,130,001,1,recog,12,TOWARDS,HF,target,right,aqua,imageability,conservative,no,z,1,0.741487775156,1,201
2019_Oct_31,130,001,1,recog,13,ALTHOUGH,HF,target,left,yellow,pleasantness,liberal,no,z,1,0.600287272466,3,204
2019_Oct_31,130,001,1,recog,14,GENERAL,HF,lure,-,-,-,conservative,no,m,1,1.00034754249,3,207
2019_Oct_31,130,001,1,recog,15,HITCHING,LF,target,left,yellow,pleasantness,liberal,yes,z,1,0.823908503939,3,210
2019_Oct_31,130,001,1,recog,16,TOGETHER,HF,target,left,yellow,pleasantness,liberal,no,z,1,0.706107362768,3,213
2019_Oct_31,130,001,1,recog,17,STRAIGHT,HF,lure,-,-,-,conservative,no,z,0,2.2944033194,-3,210
2019_Oct_31,130,001,1,recog,18,FUTURE,HF,lure,-,-,-,conservative,no,m,1,0.706246673051,3,213
2019_Oct_31,130,001,1,recog,19,ENOUGH,HF,target,right,aqua,imageability,liberal,no,z,1,0.64733235474,3,216
2019_Oct_31,130,001,1,recog,20,RUDIMENTS,LF,lure,-,-,-,conservative,no,m,1,0.682429014079,3,219
2019_Oct_31,130,001,1,recog,21,GUMMED,LF,lure,-,-,-,liberal,yes,m,1,1.2826341668,1,220
2019_Oct_31,130,001,1,recog,22,ABUSING,LF,lure,-,-,-,liberal,no,z,0,1.77676443804,-1,219
2019_Oct_31,130,001,1,recog,23,CHURCH,HF,lure,-,-,-,liberal,no,m,1,1.34149826009,1,220
2019_Oct_31,130,001,1,recog,24,SABLE,LF,target,right,aqua,imageability,conservative,no,z,1,0.882717239721,1,221
2019_Oct_31,130,001,1,recog,25,PEPPERED,LF,lure,-,-,-,conservative,no,m,1,0.753184339764,3,224
2019_Oct_31,130,001,1,recog,26,CONCERNED,HF,lure,-,-,-,conservative,no,m,1,1.43555396367,3,227
2019_Oct_31,130,001,1,recog,27,FLOOR,HF,lure,-,-,-,liberal,no,m,1,1.00020639918,1,228
2019_Oct_31,130,001,1,recog,28,CANNOT,HF,lure,-,-,-,conservative,no,m,1,0.776765537862,3,231
2019_Oct_31,130,001,1,recog,29,PAVILIONS,LF,target,left,yellow,pleasantness,conservative,no,z,1,0.800144736051,1,232
2019_Oct_31,130,001,1,recog,30,HIMSELF,HF,lure,-,-,-,conservative,no,m,1,0.729695892986,3,235
2019_Oct_31,130,001,1,recog,31,BEHIND,HF,target,left,yellow,pleasantness,conservative,no,z,1,0.670793672674,1,236
2019_Oct_31,130,001,1,recog,32,GUESSWORK,LF,lure,-,-,-,conservative,no,m,1,0.717901444574,3,239
2019_Oct_31,130,001,1,recog,33,BEDLAM,LF,target,right,aqua,imageability,conservative,no,z,1,0.706043939929,1,240
2019_Oct_31,130,001,1,recog,34,BELIEVE,HF,lure,-,-,-,conservative,yes,m,1,0.988473907184,3,243
2019_Oct_31,130,001,1,recog,35,DOGMAS,LF,lure,-,-,-,liberal,no,m,1,1.25915855123,1,244
2019_Oct_31,130,001,1,recog,36,YONDER,LF,lure,-,-,-,conservative,no,m,1,1.00023976033,3,247
2019_Oct_31,130,001,1,recog,37,ATTACK,HF,lure,-,-,-,liberal,no,m,1,0.753196071157,1,248
2019_Oct_31,130,001,1,recog,38,UNGAINLY,LF,target,right,aqua,imageability,liberal,yes,m,0,0.541480369715,-3,245
2019_Oct_31,130,001,1,recog,39,FECKLESS,LF,target,left,yellow,pleasantness,liberal,no,z,1,0.976756079428,3,248
2019_Oct_31,130,001,1,recog,40,FREEDOM,HF,lure,-,-,-,liberal,no,m,1,0.81200554015,1,249
2019_Oct_31,130,001,1,recog,41,JOURNEYED,LF,target,left,yellow,pleasantness,conservative,no,z,1,0.741486675338,1,250
2019_Oct_31,130,001,1,recog,42,WAITING,HF,target,left,yellow,pleasantness,conservative,no,z,1,0.694481553119,1,251
2019_Oct_31,130,001,1,recog,43,POPES,LF,lure,-,-,-,conservative,no,m,1,0.623799548635,3,254
2019_Oct_31,130,001,1,recog,44,AEGIS,LF,target,right,aqua,imageability,conservative,no,m,0,0.588458729696,-1,253
2019_Oct_31,130,001,1,recog,45,MILES,HF,target,right,aqua,imageability,liberal,no,z,1,0.941455220543,3,256
2019_Oct_31,130,001,1,recog,46,ENTIRELY,HF,target,right,aqua,imageability,conservative,no,z,1,0.765011782717,1,257
2019_Oct_31,130,001,1,recog,47,ASPIRED,LF,target,left,yellow,pleasantness,conservative,no,z,1,0.61184012752,1,258
2019_Oct_31,130,001,1,recog,48,DOTTY,LF,target,right,aqua,imageability,conservative,no,z,1,0.635556603234,1,259
2019_Oct_31,130,001,1,recog,49,UNDER,HF,lure,-,-,-,conservative,no,m,1,0.788573550696,3,262
2019_Oct_31,130,001,1,recog,50,PRIVATE,HF,target,left,yellow,pleasantness,liberal,no,z,1,0.553194898018,3,265
2019_Oct_31,130,001,1,recog,51,LINEAGE,LF,lure,-,-,-,liberal,no,m,1,1.3061486426,1,266
2019_Oct_31,130,001,1,recog,52,TRYING,HF,target,left,yellow,pleasantness,conservative,no,z,1,0.741460279706,1,267
2019_Oct_31,130,001,1,recog,53,UNLESS,HF,target,right,aqua,imageability,conservative,no,z,1,0.882655283306,1,268
2019_Oct_31,130,001,1,recog,54,NUANCE,LF,lure,-,-,-,liberal,no,m,1,1.30621939756,1,269
2019_Oct_31,130,001,1,recog,55,REPORT,HF,target,left,yellow,pleasantness,liberal,no,z,1,1.54151519729,3,272
2019_Oct_31,130,001,1,recog,56,CODING,LF,target,right,aqua,imageability,conservative,no,z,1,0.906291472304,1,273
2019_Oct_31,130,001,1,recog,57,ARBITER,LF,lure,-,-,-,liberal,no,m,1,0.647289461837,1,274
2019_Oct_31,130,001,1,recog,58,SUNBURN,LF,lure,-,-,-,liberal,no,m,1,0.541427945056,1,275
2019_Oct_31,130,001,1,recog,59,FIGURE,HF,target,left,yellow,pleasantness,conservative,no,z,1,1.38870391579,1,276
2019_Oct_31,130,001,1,recog,60,SNOBBISH,LF,lure,-,-,-,liberal,no,m,1,0.776854256516,1,277
2019_Oct_31,130,001,1,recog,61,EVENING,HF,target,left,yellow,pleasantness,liberal,no,z,1,0.682691870585,3,280
2019_Oct_31,130,001,1,recog,62,WHITE,HF,lure,-,-,-,liberal,no,m,1,0.706210379056,1,281
2019_Oct_31,130,001,1,recog,63,SEEMED,HF,lure,-,-,-,liberal,no,m,1,1.15325854082,1,282
2019_Oct_31,130,001,1,recog,64,UNBEATEN,LF,target,left,yellow,pleasantness,conservative,no,z,1,1.65916822963,1,283
2019_Oct_31,130,001,1,recog,65,KETCHUP,LF,target,left,yellow,pleasantness,liberal,no,z,1,0.765011049505,3,286
2019_Oct_31,130,001,1,recog,66,SUCCESS,HF,lure,-,-,-,liberal,no,m,1,3.87105293644,1,287
2019_Oct_31,130,001,1,recog,67,HAVING,HF,lure,-,-,-,conservative,no,z,0,0.929720162304,-3,284
2019_Oct_31,130,001,1,recog,68,URCHIN,LF,target,left,yellow,pleasantness,liberal,no,z,1,0.765006283627,3,287
2019_Oct_31,130,001,1,recog,69,FESTERING,LF,lure,-,-,-,conservative,no,m,1,0.78853285743,3,290
2019_Oct_31,130,001,1,recog,70,OFTEN,HF,lure,-,-,-,liberal,no,m,1,1.45910766632,1,291
2019_Oct_31,130,001,1,recog,71,CLEAR,HF,target,left,yellow,pleasantness,liberal,no,z,1,0.623834009599,3,294
2019_Oct_31,130,001,1,recog,72,ENFORCING,LF,lure,-,-,-,liberal,no,m,1,0.835669957811,1,295
2019_Oct_31,130,001,1,recog,73,OUTSIDE,HF,lure,-,-,-,liberal,no,m,1,1.11786089795,1,296
2019_Oct_31,130,001,1,recog,74,YANKED,LF,lure,-,-,-,liberal,no,m,1,0.612032229067,1,297
2019_Oct_31,130,001,1,recog,75,RELAXES,LF,target,right,aqua,imageability,liberal,no,z,1,0.859161337437,3,300
2019_Oct_31,130,001,1,recog,76,DECIDED,HF,target,right,aqua,imageability,conservative,no,z,1,1.42389149342,1,301
2019_Oct_31,130,001,1,recog,77,CLASS,HF,target,right,aqua,imageability,conservative,no,z,1,0.741451847768,1,302
2019_Oct_31,130,001,1,recog,78,HISTORY,HF,target,right,aqua,imageability,liberal,no,z,1,0.753194238127,3,305
2019_Oct_31,130,001,1,recog,79,AFFABLE,LF,lure,-,-,-,liberal,no,m,1,0.823831150072,1,306
2019_Oct_31,130,001,1,recog,80,GROUND,HF,lure,-,-,-,conservative,no,m,1,2.01209506534,3,309
2019_Oct_31,130,001,1,recog,81,GERANIUMS,LF,target,left,yellow,pleasantness,conservative,no,z,1,0.764989786357,1,310
2019_Oct_31,130,001,1,recog,82,INORGANIC,LF,target,left,yellow,pleasantness,liberal,no,z,1,0.858905079839,3,313
2019_Oct_31,130,001,1,recog,83,AGELESS,LF,lure,-,-,-,conservative,no,m,1,0.800414924677,3,316
2019_Oct_31,130,001,1,recog,84,JARRED,LF,lure,-,-,-,conservative,no,m,1,0.788487764891,3,319
2019_Oct_31,130,001,1,recog,85,CHIEF,HF,target,left,yellow,pleasantness,conservative,no,z,1,0.600318433977,1,320
2019_Oct_31,130,001,1,recog,86,HUMAN,HF,lure,-,-,-,liberal,no,m,1,0.74148190946,1,321
2019_Oct_31,130,001,1,recog,87,PSEUDONYM,LF,target,right,aqua,imageability,liberal,no,z,1,0.706275268319,3,324
2019_Oct_31,130,001,1,recog,88,USUAL,HF,lure,-,-,-,conservative,no,m,1,1.11802440423,3,327
2019_Oct_31,130,001,1,recog,89,WATCH,HF,target,right,aqua,imageability,liberal,no,z,1,0.741454047404,3,330
2019_Oct_31,130,001,1,recog,90,HUSBAND,HF,lure,-,-,-,conservative,no,m,1,0.623875069472,3,333
2019_Oct_31,130,001,1,recog,91,MARKET,HF,target,left,yellow,pleasantness,conservative,no,m,0,1.6591359683,-1,332
2019_Oct_31,130,001,1,recog,92,POETICAL,LF,lure,-,-,-,conservative,no,m,1,0.906202753651,3,335
2019_Oct_31,130,001,1,recog,93,PEEKED,LF,target,right,aqua,imageability,liberal,no,z,1,1.97678064203,3,338
2019_Oct_31,130,001,1,recog,94,ADENOIDS,LF,target,right,aqua,imageability,liberal,no,z,1,0.5884895246,3,341
2019_Oct_31,130,001,1,recog,95,BEYOND,HF,target,right,aqua,imageability,liberal,no,z,1,0.599981889663,3,344
2019_Oct_31,130,001,2,source,0,ISOLATING,LF,target,left,yellow,pleasantness,liberal,no,1,1,1.96505988143,-,-
2019_Oct_31,130,001,2,source,1,TITAN,LF,target,left,yellow,pleasantness,conservative,no,1,1,0.6355423056,-,-
2019_Oct_31,130,001,2,source,2,WINDOW,HF,target,left,yellow,pleasantness,liberal,no,2,1,1.36485876137,-,-
2019_Oct_31,130,001,2,source,3,SLACKEN,LF,target,left,yellow,pleasantness,conservative,no,1,1,0.823630983193,-,-
2019_Oct_31,130,001,2,source,4,MINISTER,HF,target,left,yellow,pleasantness,liberal,no,1,1,1.32975110385,-,-
2019_Oct_31,130,001,2,source,5,SYSTEM,HF,target,left,yellow,pleasantness,liberal,no,1,1,0.576891210401,-,-
2019_Oct_31,130,001,2,source,6,DIFFERENT,HF,target,left,yellow,pleasantness,conservative,no,8,0,2.24736373621,-,-
2019_Oct_31,130,001,2,source,7,SHORT,HF,target,right,aqua,imageability,liberal,no,9,1,0.894292824347,-,-
2019_Oct_31,130,001,2,source,8,MATERIAL,HF,target,left,yellow,pleasantness,conservative,no,1,1,0.682728897792,-,-
2019_Oct_31,130,001,2,source,9,PEACEABLY,LF,target,left,yellow,pleasantness,liberal,no,1,1,0.706016811085,-,-
2019_Oct_31,130,001,2,source,10,TETHER,LF,target,right,aqua,imageability,conservative,no,9,1,0.917963107705,-,-
2019_Oct_31,130,001,2,source,11,DIABETIC,LF,target,left,yellow,pleasantness,liberal,no,1,1,0.729706891166,-,-
2019_Oct_31,130,001,2,source,12,BOXCAR,LF,target,left,yellow,pleasantness,liberal,no,1,1,0.788310694191,-,-
2019_Oct_31,130,001,2,source,13,PEGGED,LF,target,left,yellow,pleasantness,liberal,no,1,1,0.76493992794,-,-
2019_Oct_31,130,001,2,source,14,TEETERED,LF,target,left,yellow,pleasantness,conservative,no,1,1,0.859188099676,-,-
2019_Oct_31,130,001,2,source,15,RIVER,HF,target,left,yellow,pleasantness,liberal,no,1,1,0.576582528144,-,-
2019_Oct_31,130,001,2,source,16,THANK,HF,target,right,aqua,imageability,liberal,no,9,1,0.776699915387,-,-
2019_Oct_31,130,001,2,source,17,CESSATION,LF,target,left,yellow,pleasantness,conservative,no,9,0,1.16476593673,-,-
2019_Oct_31,130,001,2,source,18,NESTING,LF,target,left,yellow,pleasantness,conservative,no,2,1,1.76506494059,-,-
2019_Oct_31,130,001,2,source,19,IMPORTANT,HF,target,left,yellow,pleasantness,conservative,no,8,0,1.17678254838,-,-
2019_Oct_31,130,001,2,source,20,TOOTHACHE,LF,target,left,yellow,pleasantness,liberal,yes,7,0,0.918014799151,-,-
2019_Oct_31,130,001,2,source,21,UPKEEP,LF,target,right,aqua,imageability,conservative,no,9,1,1.24740113003,-,-
2019_Oct_31,130,001,2,source,22,SARDINES,LF,target,right,aqua,imageability,conservative,no,9,1,0.682788287965,-,-
2019_Oct_31,130,001,2,source,23,DAUGHTER,HF,target,right,aqua,imageability,conservative,no,9,1,0.647074264112,-,-
2019_Oct_31,130,001,2,source,24,ATHEIST,LF,target,left,yellow,pleasantness,conservative,no,1,1,0.717885680516,-,-
2019_Oct_31,130,001,2,source,25,EASILY,HF,target,right,aqua,imageability,conservative,no,8,1,1.08275030758,-,-
2019_Oct_31,130,001,2,source,26,NECESSARY,HF,target,left,yellow,pleasantness,conservative,yes,2,1,0.96498142774,-,-
2019_Oct_31,130,001,2,source,27,PIZZA,LF,target,right,aqua,imageability,conservative,no,9,1,1.0591702093,-,-
2019_Oct_31,130,001,2,source,28,ANYONE,HF,target,left,yellow,pleasantness,liberal,no,1,1,2.11797454581,-,-
2019_Oct_31,130,001,2,source,29,POSITION,HF,target,right,aqua,imageability,conservative,no,8,1,1.22393504621,-,-
2019_Oct_31,130,001,2,source,30,INUNDATED,LF,target,right,aqua,imageability,liberal,no,9,1,1.10617093225,-,-
2019_Oct_31,130,001,2,source,31,ABSENCES,LF,target,right,aqua,imageability,liberal,no,8,1,1.612089053,-,-
2019_Oct_31,130,001,2,source,32,LICENSING,LF,target,right,aqua,imageability,liberal,no,9,1,0.694429495066,-,-
2019_Oct_31,130,001,2,source,33,ENCLOSE,LF,target,right,aqua,imageability,liberal,no,9,1,0.823847647343,-,-
2019_Oct_31,130,001,2,source,34,SORRY,HF,target,right,aqua,imageability,liberal,no,9,1,0.694412997796,-,-
2019_Oct_31,130,001,2,source,35,SUMMER,HF,target,left,yellow,pleasantness,conservative,no,9,0,1.65893983409,-,-
2019_Oct_31,130,001,2,source,36,TRADE,HF,target,right,aqua,imageability,liberal,no,9,1,0.718067150489,-,-
2019_Oct_31,130,001,2,source,37,UTTERANCE,LF,target,right,aqua,imageability,liberal,no,9,1,0.906215951467,-,-
2019_Oct_31,130,001,2,source,38,SPOKE,HF,target,left,yellow,pleasantness,liberal,no,1,1,0.694448558578,-,-
2019_Oct_31,130,001,2,source,39,EDUCATION,HF,target,right,aqua,imageability,conservative,no,9,1,0.694385868951,-,-
2019_Oct_31,130,001,2,source,40,TOKENS,LF,target,right,aqua,imageability,conservative,no,1,0,0.858907646081,-,-
2019_Oct_31,130,001,2,source,41,WEEKS,HF,target,right,aqua,imageability,conservative,no,9,1,1.2356851353,-,-
2019_Oct_31,130,001,2,source,42,IDEAS,HF,target,right,aqua,imageability,conservative,yes,8,1,0.84741784726,-,-
2019_Oct_31,130,001,2,source,43,THWART,LF,target,right,aqua,imageability,conservative,yes,2,0,0.788550821124,-,-
2019_Oct_31,130,001,2,source,44,BOOKS,HF,target,left,yellow,pleasantness,conservative,no,1,1,0.611946076656,-,-
2019_Oct_31,130,001,2,source,45,ALREADY,HF,target,right,aqua,imageability,liberal,no,9,1,1.23561694658,-,-
2019_Oct_31,130,001,2,source,46,RADIAL,LF,target,right,aqua,imageability,liberal,no,3,0,1.69421686358,-,-
2019_Oct_31,130,001,2,source,47,FAMILY,HF,target,right,aqua,imageability,liberal,no,9,1,2.29431350093,-,-
2019_Oct_31,130,001,2,recog,0,TITAN,LF,target,left,yellow,pleasantness,conservative,no,z,1,1.03557617999,1,345
2019_Oct_31,130,001,2,recog,1,MATERIAL,HF,target,left,yellow,pleasantness,conservative,no,z,1,0.635596196683,1,346
2019_Oct_31,130,001,2,recog,2,SEQUEL,LF,lure,-,-,-,conservative,no,m,1,0.753265359692,3,349
2019_Oct_31,130,001,2,recog,3,TRADE,HF,target,right,aqua,imageability,liberal,no,z,1,0.752978307189,3,352
2019_Oct_31,130,001,2,recog,4,IRONICAL,LF,lure,-,-,-,liberal,no,m,1,0.764957525028,1,353
2019_Oct_31,130,001,2,recog,5,BLOOD,HF,lure,-,-,-,conservative,no,m,1,0.670680758024,3,356
2019_Oct_31,130,001,2,recog,6,ANSWER,HF,lure,-,-,-,liberal,no,m,1,0.694106148569,1,357
2019_Oct_31,130,001,2,recog,7,THANK,HF,target,right,aqua,imageability,liberal,no,z,1,0.565010242972,3,360
2019_Oct_31,130,001,2,recog,8,SPOKE,HF,target,left,yellow,pleasantness,liberal,no,z,1,0.541398983182,3,363
2019_Oct_31,130,001,2,recog,9,TRUTH,HF,lure,-,-,-,conservative,yes,m,1,0.529841728855,3,366
2019_Oct_31,130,001,2,recog,10,BOOKS,HF,target,left,yellow,pleasantness,conservative,no,z,1,0.82383591595,1,367
2019_Oct_31,130,001,2,recog,11,UPKEEP,LF,target,right,aqua,imageability,conservative,no,z,1,1.68264751126,1,368
2019_Oct_31,130,001,2,recog,12,UNSAVOURY,LF,lure,-,-,-,liberal,no,z,0,0.965084810633,-1,367
2019_Oct_31,130,001,2,recog,13,LICENSING,LF,target,right,aqua,imageability,liberal,no,z,1,0.835564741887,3,370
2019_Oct_31,130,001,2,recog,14,INUNDATED,LF,target,right,aqua,imageability,liberal,no,z,1,0.659095275035,3,373
2019_Oct_31,130,001,2,recog,15,CESSATION,LF,target,left,yellow,pleasantness,conservative,no,z,1,0.941392897522,1,374
2019_Oct_31,130,001,2,recog,16,RUNNING,HF,lure,-,-,-,conservative,no,m,1,1.04712536899,3,377
2019_Oct_31,130,001,2,recog,17,BOXCAR,LF,target,left,yellow,pleasantness,liberal,no,z,1,0.541406315302,3,380
2019_Oct_31,130,001,2,recog,18,DAUGHTER,HF,target,right,aqua,imageability,conservative,no,z,1,0.623586550545,1,381
2019_Oct_31,130,001,2,recog,19,NESTING,LF,target,left,yellow,pleasantness,conservative,no,z,1,0.635523608694,1,382
2019_Oct_31,130,001,2,recog,20,ASTERN,LF,lure,-,-,-,conservative,no,m,1,0.752931381621,3,385
2019_Oct_31,130,001,2,recog,21,TEETERED,LF,target,left,yellow,pleasantness,conservative,no,z,1,0.694190834557,1,386
2019_Oct_31,130,001,2,recog,22,PEACEABLY,LF,target,left,yellow,pleasantness,liberal,no,z,1,0.565108126775,3,389
2019_Oct_31,130,001,2,recog,23,IDEAS,HF,target,right,aqua,imageability,conservative,no,z,1,0.635623325527,1,390
2019_Oct_31,130,001,2,recog,24,WINDOW,HF,target,left,yellow,pleasantness,liberal,no,z,1,0.494451051499,3,393
2019_Oct_31,130,001,2,recog,25,EXCEPT,HF,lure,-,-,-,liberal,no,m,1,0.812032302388,1,394
2019_Oct_31,130,001,2,recog,26,CREAK,LF,lure,-,-,-,liberal,no,m,1,0.753164176434,1,395
2019_Oct_31,130,001,2,recog,27,LETTER,HF,lure,-,-,-,conservative,no,m,1,0.847531495122,3,398
2019_Oct_31,130,001,2,recog,28,TETHER,LF,target,right,aqua,imageability,conservative,no,z,1,0.788472000833,1,399
2019_Oct_31,130,001,2,recog,29,ENCLOSE,LF,target,right,aqua,imageability,liberal,no,z,1,0.517988623483,3,402
2019_Oct_31,130,001,2,recog,30,MINISTER,HF,target,left,yellow,pleasantness,liberal,no,z,1,0.470938042119,3,405
2019_Oct_31,130,001,2,recog,31,FOLLOWED,HF,lure,-,-,-,liberal,no,m,1,1.12983681633,1,406
2019_Oct_31,130,001,2,recog,32,RADIAL,LF,target,right,aqua,imageability,liberal,no,z,1,0.706276368137,3,409
2019_Oct_31,130,001,2,recog,33,AGGRAVATE,LF,lure,-,-,-,conservative,no,z,0,0.941412694246,-3,406
2019_Oct_31,130,001,2,recog,34,EASILY,HF,target,right,aqua,imageability,conservative,no,z,1,0.776787167617,1,407
2019_Oct_31,130,001,2,recog,35,WEEKS,HF,target,right,aqua,imageability,conservative,no,z,1,0.588547448349,1,408
2019_Oct_31,130,001,2,recog,36,SYMBOLIZE,LF,lure,-,-,-,liberal,no,m,1,0.741586025566,1,409
2019_Oct_31,130,001,2,recog,37,VARIOUS,HF,lure,-,-,-,liberal,no,m,1,0.659110305881,1,410
2019_Oct_31,130,001,2,recog,38,IMPORTANT,HF,target,left,yellow,pleasantness,conservative,no,z,1,0.847054907315,1,411
2019_Oct_31,130,001,2,recog,39,HAGGLING,LF,lure,-,-,-,conservative,no,m,1,1.22358310445,3,414
2019_Oct_31,130,001,2,recog,40,TWOFOLD,LF,lure,-,-,-,liberal,no,m,1,0.600198187207,1,415
2019_Oct_31,130,001,2,recog,41,SORRY,HF,target,right,aqua,imageability,liberal,no,z,1,0.530063158883,3,418
2019_Oct_31,130,001,2,recog,42,NIGHT,HF,lure,-,-,-,liberal,no,z,0,0.623802848089,-1,417
2019_Oct_31,130,001,2,recog,43,MOVED,HF,lure,-,-,-,conservative,no,m,1,1.77672154514,3,420
2019_Oct_31,130,001,2,recog,44,UNTIL,HF,lure,-,-,-,conservative,no,m,1,0.588365245164,3,423
2019_Oct_31,130,001,2,recog,45,LARGE,HF,lure,-,-,-,liberal,no,m,1,1.01207820146,1,424
2019_Oct_31,130,001,2,recog,46,THWART,LF,target,right,aqua,imageability,conservative,no,m,0,0.670892289689,-1,423
2019_Oct_31,130,001,2,recog,47,ANYONE,HF,target,left,yellow,pleasantness,liberal,no,z,1,0.694410064948,3,426
2019_Oct_31,130,001,2,recog,48,PUTTS,LF,lure,-,-,-,conservative,no,m,1,0.89458720897,3,429
2019_Oct_31,130,001,2,recog,49,DIABETIC,LF,target,left,yellow,pleasantness,liberal,no,z,1,0.953285596343,3,432
2019_Oct_31,130,001,2,recog,50,VILLAGE,HF,lure,-,-,-,liberal,no,m,1,0.764842410742,1,433
2019_Oct_31,130,001,2,recog,51,UDDER,LF,lure,-,-,-,liberal,no,m,1,0.870789713329,1,434
2019_Oct_31,130,001,2,recog,52,CURATOR,LF,lure,-,-,-,conservative,no,m,1,0.800294677907,3,437
2019_Oct_31,130,001,2,recog,53,SYSTEM,HF,target,left,yellow,pleasantness,liberal,no,z,1,0.506120487263,3,440
2019_Oct_31,130,001,2,recog,54,HOWEVER,HF,lure,-,-,-,liberal,no,m,1,0.823879542065,1,441
2019_Oct_31,130,001,2,recog,55,NEEDED,HF,lure,-,-,-,conservative,no,m,1,0.964964930469,3,444
2019_Oct_31,130,001,2,recog,56,ASCEND,LF,lure,-,-,-,liberal,no,m,1,0.776655189455,1,445
2019_Oct_31,130,001,2,recog,57,AGNOSTIC,LF,lure,-,-,-,conservative,no,m,1,0.753225033031,3,448
2019_Oct_31,130,001,2,recog,58,WRITE,HF,lure,-,-,-,liberal,no,m,1,1.82378935699,1,449
2019_Oct_31,130,001,2,recog,59,MAJOR,HF,lure,-,-,-,liberal,yes,z,0,0.729507824105,-1,448
2019_Oct_31,130,001,2,recog,60,EVIDENCE,HF,lure,-,-,-,conservative,no,m,1,1.14139553709,3,451
2019_Oct_31,130,001,2,recog,61,SLACKEN,LF,target,left,yellow,pleasantness,conservative,no,z,1,0.623799548635,1,452
2019_Oct_31,130,001,2,recog,62,FAMILY,HF,target,right,aqua,imageability,liberal,no,z,1,0.694349208351,3,455
2019_Oct_31,130,001,2,recog,63,GASEOUS,LF,lure,-,-,-,liberal,no,m,1,0.706171518819,1,456
2019_Oct_31,130,001,2,recog,64,ISOLATING,LF,target,left,yellow,pleasantness,liberal,no,z,1,0.964961264409,3,459
2019_Oct_31,130,001,2,recog,65,NOTHING,HF,lure,-,-,-,conservative,no,m,1,1.36502813334,3,462
2019_Oct_31,130,001,2,recog,66,PROBABLY,HF,lure,-,-,-,liberal,no,z,0,1.00022802894,-1,461
2019_Oct_31,130,001,2,recog,67,RAIDER,LF,lure,-,-,-,liberal,no,m,1,0.729668397536,1,462
2019_Oct_31,130,001,2,recog,68,PIZZA,LF,target,right,aqua,imageability,conservative,no,z,1,0.741524069151,1,463
2019_Oct_31,130,001,2,recog,69,NECESSARY,HF,target,left,yellow,pleasantness,conservative,no,m,0,2.04711950329,-1,462
2019_Oct_31,130,001,2,recog,70,CORNER,HF,lure,-,-,-,conservative,no,m,1,0.612112882388,3,465
2019_Oct_31,130,001,2,recog,71,WELCOMES,LF,lure,-,-,-,conservative,no,m,1,0.565013542426,3,468
2019_Oct_31,130,001,2,recog,72,TOKENS,LF,target,right,aqua,imageability,conservative,no,z,1,0.576737235879,1,469
2019_Oct_31,130,001,2,recog,73,BODICE,LF,lure,-,-,-,conservative,no,m,1,0.717921241299,3,472
2019_Oct_31,130,001,2,recog,74,SARDINES,LF,target,right,aqua,imageability,conservative,no,z,1,0.659051648921,1,473
2019_Oct_31,130,001,2,recog,75,MOMENT,HF,lure,-,-,-,conservative,no,m,1,0.706110295616,3,476
2019_Oct_31,130,001,2,recog,76,RIVER,HF,target,left,yellow,pleasantness,liberal,no,z,1,0.553271152067,3,479
2019_Oct_31,130,001,2,recog,77,SLEEP,HF,lure,-,-,-,liberal,no,m,1,0.906225116617,1,480
2019_Oct_31,130,001,2,recog,78,ZEALOTS,LF,lure,-,-,-,conservative,no,m,1,0.553183166625,3,483
2019_Oct_31,130,001,2,recog,79,POSITION,HF,target,right,aqua,imageability,conservative,no,z,1,0.765030113017,1,484
2019_Oct_31,130,001,2,recog,80,PEGGED,LF,target,left,yellow,pleasantness,liberal,no,z,1,0.694326478779,3,487
2019_Oct_31,130,001,2,recog,81,AMPLIFY,LF,lure,-,-,-,conservative,yes,m,1,0.576761798481,3,490
2019_Oct_31,130,001,2,recog,82,SAFARI,LF,lure,-,-,-,liberal,no,m,1,0.670798438552,1,491
2019_Oct_31,130,001,2,recog,83,SHORT,HF,target,right,aqua,imageability,liberal,no,z,1,0.576792959992,3,494
2019_Oct_31,130,001,2,recog,84,DIFFERENT,HF,target,left,yellow,pleasantness,conservative,no,m,0,0.858902880203,-1,493
2019_Oct_31,130,001,2,recog,85,EDUCATION,HF,target,right,aqua,imageability,conservative,no,z,1,0.694481553119,1,494
2019_Oct_31,130,001,2,recog,86,TOUSLED,LF,lure,-,-,-,conservative,no,m,1,0.859200930886,3,497
2019_Oct_31,130,001,2,recog,87,ATHEIST,LF,target,left,yellow,pleasantness,conservative,no,z,1,0.623861871655,1,498
2019_Oct_31,130,001,2,recog,88,DOING,HF,lure,-,-,-,conservative,no,m,1,0.835518916137,3,501
2019_Oct_31,130,001,2,recog,89,SUMMER,HF,target,left,yellow,pleasantness,conservative,no,z,1,0.576741268545,1,502
2019_Oct_31,130,001,2,recog,90,UTTERANCE,LF,target,right,aqua,imageability,liberal,no,z,1,0.965079678149,3,505
2019_Oct_31,130,001,2,recog,91,SHRED,LF,lure,-,-,-,liberal,no,m,1,0.659089409339,1,506
2019_Oct_31,130,001,2,recog,92,TOOTHACHE,LF,target,left,yellow,pleasantness,liberal,no,z,1,0.56477268228,3,509
2019_Oct_31,130,001,2,recog,93,ABSENCES,LF,target,right,aqua,imageability,liberal,no,z,1,0.788487031679,3,512
2019_Oct_31,130,001,2,recog,94,ALREADY,HF,target,right,aqua,imageability,liberal,yes,m,0,0.823570126596,-3,509
2019_Oct_31,130,001,2,recog,95,BAOBAB,LF,lure,-,-,-,liberal,no,m,1,1.1532757713,1,510
2019_Oct_31,130,001,3,source,0,EXECUTING,LF,target,left,yellow,pleasantness,conservative,no,1,1,1.45911536504,-,-
2019_Oct_31,130,001,3,source,1,BETTER,HF,target,right,aqua,imageability,liberal,no,2,0,0.88269707639,-,-
2019_Oct_31,130,001,3,source,2,HALLMARK,LF,target,right,aqua,imageability,liberal,no,9,1,0.729401141758,-,-
2019_Oct_31,130,001,3,source,3,CALLED,HF,target,right,aqua,imageability,liberal,no,9,1,0.682670240831,-,-
2019_Oct_31,130,001,3,source,4,AMONG,HF,target,left,yellow,pleasantness,liberal,no,1,1,1.3650252005,-,-
2019_Oct_31,130,001,3,source,5,BOLDNESS,LF,target,left,yellow,pleasantness,liberal,no,1,1,0.694507215539,-,-
2019_Oct_31,130,001,3,source,6,LABOUR,HF,target,left,yellow,pleasantness,liberal,no,1,1,0.564688362899,-,-
2019_Oct_31,130,001,3,source,7,PASSED,HF,target,right,aqua,imageability,conservative,no,8,1,1.58848145927,-,-
2019_Oct_31,130,001,3,source,8,PETERED,LF,target,left,yellow,pleasantness,conservative,no,1,1,0.800336104386,-,-
2019_Oct_31,130,001,3,source,9,JAMMING,LF,target,right,aqua,imageability,liberal,no,9,1,0.776707614114,-,-
2019_Oct_31,130,001,3,source,10,ALLOWED,HF,target,left,yellow,pleasantness,conservative,yes,8,0,0.65914623327,-,-
2019_Oct_31,130,001,3,source,11,CARRIED,HF,target,right,aqua,imageability,liberal,no,9,1,1.64709516065,-,-
2019_Oct_31,130,001,3,source,12,NORTH,HF,target,right,aqua,imageability,liberal,yes,7,1,0.976781375242,-,-
2019_Oct_31,130,001,3,source,13,AROUND,HF,target,left,yellow,pleasantness,liberal,no,1,1,0.811843500295,-,-
2019_Oct_31,130,001,3,source,14,CHAIR,HF,target,left,yellow,pleasantness,liberal,no,1,1,0.553225692922,-,-
2019_Oct_31,130,001,3,source,15,SOYBEAN,LF,target,left,yellow,pleasantness,conservative,no,1,1,0.553174734687,-,-
2019_Oct_31,130,001,3,source,16,SUGARY,LF,target,left,yellow,pleasantness,conservative,no,1,1,0.599982989481,-,-
2019_Oct_31,130,001,3,source,17,TREES,HF,target,left,yellow,pleasantness,conservative,no,1,1,0.764755158513,-,-
2019_Oct_31,130,001,3,source,18,POWER,HF,target,right,aqua,imageability,conservative,no,9,1,1.42387756239,-,-
2019_Oct_31,130,001,3,source,19,NOXIOUS,LF,target,right,aqua,imageability,liberal,no,9,1,0.682666208165,-,-
2019_Oct_31,130,001,3,source,20,HOIST,LF,target,right,aqua,imageability,conservative,no,9,1,0.517972492818,-,-
2019_Oct_31,130,001,3,source,21,LEVEL,HF,target,right,aqua,imageability,conservative,no,9,1,0.482357819193,-,-
2019_Oct_31,130,001,3,source,22,RANGE,HF,target,left,yellow,pleasantness,conservative,no,2,1,1.20032561945,-,-
2019_Oct_31,130,001,3,source,23,BESOTTED,LF,target,right,aqua,imageability,conservative,no,8,1,1.3062157315,-,-
2019_Oct_31,130,001,3,source,24,OUGHT,HF,target,right,aqua,imageability,conservative,no,7,1,1.42380094174,-,-
2019_Oct_31,130,001,3,source,25,FRONT,HF,target,left,yellow,pleasantness,conservative,no,1,1,0.717856352036,-,-
2019_Oct_31,130,001,3,source,26,TELEPHONE,HF,target,left,yellow,pleasantness,conservative,no,1,1,0.941420026366,-,-
2019_Oct_31,130,001,3,source,27,BORAX,LF,target,right,aqua,imageability,liberal,no,9,1,0.776803664887,-,-
2019_Oct_31,130,001,3,source,28,CUCKOO,LF,target,right,aqua,imageability,liberal,no,7,1,1.94131077778,-,-
2019_Oct_31,130,001,3,source,29,BYGONE,LF,target,left,yellow,pleasantness,conservative,no,3,1,1.32971590967,-,-
2019_Oct_31,130,001,3,source,30,DARKEN,LF,target,left,yellow,pleasantness,liberal,yes,8,0,0.611897318057,-,-
2019_Oct_31,130,001,3,source,31,DEVELOPED,HF,target,left,yellow,pleasantness,conservative,no,8,0,1.69429788351,-,-
2019_Oct_31,130,001,3,source,32,JUBILANT,LF,target,left,yellow,pleasantness,liberal,no,1,1,0.788285764982,-,-
2019_Oct_31,130,001,3,source,33,NERVY,LF,target,right,aqua,imageability,liberal,no,9,1,0.765016181989,-,-
2019_Oct_31,130,001,3,source,34,TEXTURES,LF,target,right,aqua,imageability,conservative,yes,2,0,0.870740221518,-,-
2019_Oct_31,130,001,3,source,35,PUBLIC,HF,target,left,yellow,pleasantness,liberal,no,1,1,0.576528637062,-,-
2019_Oct_31,130,001,3,source,36,FLECKED,LF,target,left,yellow,pleasantness,liberal,no,3,1,1.49423658699,-,-
2019_Oct_31,130,001,3,source,37,FURTHER,HF,target,right,aqua,imageability,conservative,no,2,0,1.21186417687,-,-
2019_Oct_31,130,001,3,source,38,VIVACIOUS,LF,target,right,aqua,imageability,conservative,no,9,1,0.717926740389,-,-
2019_Oct_31,130,001,3,source,39,BAUXITE,LF,target,left,yellow,pleasantness,liberal,no,1,1,1.40033522453,-,-
2019_Oct_31,130,001,3,source,40,EFFECT,HF,target,right,aqua,imageability,liberal,no,9,1,1.18852823819,-,-
2019_Oct_31,130,001,3,source,41,HACKNEY,LF,target,left,yellow,pleasantness,conservative,no,1,1,0.82352210121,-,-
2019_Oct_31,130,001,3,source,42,HOURS,HF,target,left,yellow,pleasantness,liberal,no,1,1,0.564995212125,-,-
2019_Oct_31,130,001,3,source,43,SKATES,LF,target,right,aqua,imageability,conservative,no,9,1,1.08292407883,-,-
2019_Oct_31,130,001,3,source,44,PAINTWORK,LF,target,right,aqua,imageability,conservative,no,9,1,0.52965769264,-,-
2019_Oct_31,130,001,3,source,45,INCLUDING,HF,target,right,aqua,imageability,liberal,no,2,0,1.15294106002,-,-
2019_Oct_31,130,001,3,source,46,LOLLED,LF,target,left,yellow,pleasantness,liberal,no,1,1,0.823851680009,-,-
2019_Oct_31,130,001,3,source,47,TERMS,HF,target,right,aqua,imageability,conservative,no,9,1,1.23555865623,-,-
2019_Oct_31,130,001,3,recog,0,BYGONE,LF,target,left,yellow,pleasantness,conservative,no,z,1,1.49445288453,1,511
2019_Oct_31,130,001,3,recog,1,LOLLED,LF,target,left,yellow,pleasantness,liberal,no,z,1,0.647488162292,3,514
2019_Oct_31,130,001,3,recog,2,HANDS,HF,lure,-,-,-,conservative,no,m,1,0.69425205776,3,517
2019_Oct_31,130,001,3,recog,3,BORAX,LF,target,right,aqua,imageability,liberal,no,z,1,0.823785324322,3,520
2019_Oct_31,130,001,3,recog,4,JINGLE,LF,lure,-,-,-,conservative,no,m,1,0.729638335843,3,523
2019_Oct_31,130,001,3,recog,5,NUCLEAR,HF,lure,-,-,-,liberal,no,m,1,0.752947878891,1,524
2019_Oct_31,130,001,3,recog,6,DARKEN,LF,target,left,yellow,pleasantness,liberal,no,z,1,0.729642735115,3,527
2019_Oct_31,130,001,3,recog,7,CUCKOO,LF,target,right,aqua,imageability,liberal,no,z,1,0.729651900265,3,530
2019_Oct_31,130,001,3,recog,8,REQUIRED,HF,lure,-,-,-,conservative,no,m,1,0.67095094665,3,533
2019_Oct_31,130,001,3,recog,9,LABOUR,HF,target,left,yellow,pleasantness,liberal,no,z,1,0.64736901534,3,536
2019_Oct_31,130,001,3,recog,10,CARRIED,HF,target,right,aqua,imageability,liberal,no,z,1,0.553208829046,3,539
2019_Oct_31,130,001,3,recog,11,BETTER,HF,target,right,aqua,imageability,liberal,no,z,1,0.470855189162,3,542
2019_Oct_31,130,001,3,recog,12,SOYBEAN,LF,target,left,yellow,pleasantness,conservative,no,z,1,0.659050915709,1,543
2019_Oct_31,130,001,3,recog,13,BESOTTED,LF,target,right,aqua,imageability,conservative,no,z,1,0.659099307701,1,544
2019_Oct_31,130,001,3,recog,14,BOLDNESS,LF,target,left,yellow,pleasantness,liberal,no,z,1,0.565046903572,3,547
2019_Oct_31,130,001,3,recog,15,RANGE,HF,target,left,yellow,pleasantness,conservative,no,z,1,0.576827420956,1,548
2019_Oct_31,130,001,3,recog,16,BAWLED,LF,lure,-,-,-,liberal,no,m,1,0.765027546775,1,549
2019_Oct_31,130,001,3,recog,17,ALLOWED,HF,target,left,yellow,pleasantness,conservative,no,z,1,0.847343059635,1,550
2019_Oct_31,130,001,3,recog,18,DURING,HF,lure,-,-,-,liberal,no,m,1,0.741523335939,1,551
2019_Oct_31,130,001,3,recog,19,REACHED,HF,lure,-,-,-,conservative,no,z,0,0.753177007644,-3,548
2019_Oct_31,130,001,3,recog,20,FURTHER,HF,target,right,aqua,imageability,conservative,yes,m,0,0.694135843656,-1,547
2019_Oct_31,130,001,3,recog,21,BUSINESS,HF,lure,-,-,-,liberal,no,z,0,1.47092924357,-1,546
2019_Oct_31,130,001,3,recog,22,SMOCK,LF,lure,-,-,-,conservative,no,m,1,0.823813552984,3,549
2019_Oct_31,130,001,3,recog,23,AMONG,HF,target,left,yellow,pleasantness,liberal,no,z,1,0.623763621246,3,552
2019_Oct_31,130,001,3,recog,24,SONAR,LF,lure,-,-,-,conservative,no,m,1,0.882656383124,3,555
2019_Oct_31,130,001,3,recog,25,ZIPPED,LF,lure,-,-,-,liberal,no,m,1,0.882619355917,1,556
2019_Oct_31,130,001,3,recog,26,VOWEL,LF,lure,-,-,-,liberal,no,m,1,0.882392793406,1,557
2019_Oct_31,130,001,3,recog,27,BEGAN,HF,lure,-,-,-,conservative,no,m,1,1.09435265445,3,560
2019_Oct_31,130,001,3,recog,28,HOEING,LF,lure,-,-,-,conservative,no,m,1,0.600352894941,3,563
2019_Oct_31,130,001,3,recog,29,LEVEL,HF,target,right,aqua,imageability,conservative,no,z,1,0.764938461516,1,564
2019_Oct_31,130,001,3,recog,30,SKATES,LF,target,right,aqua,imageability,conservative,no,z,1,0.835544578557,1,565
2019_Oct_31,130,001,3,recog,31,PUBLIC,HF,target,left,yellow,pleasantness,liberal,no,z,1,0.612035895127,3,568
2019_Oct_31,130,001,3,recog,32,GUILDHALL,LF,lure,-,-,-,conservative,no,m,1,0.658877144462,3,571
2019_Oct_31,130,001,3,recog,33,SINCE,HF,lure,-,-,-,liberal,no,m,1,1.12974039896,1,572
2019_Oct_31,130,001,3,recog,34,NORTH,HF,target,right,aqua,imageability,liberal,no,z,1,0.565014642244,3,575
2019_Oct_31,130,001,3,recog,35,CHAIR,HF,target,left,yellow,pleasantness,liberal,no,z,1,2.08264325863,3,578
2019_Oct_31,130,001,3,recog,36,NOXIOUS,LF,target,right,aqua,imageability,liberal,no,z,1,1.36507982479,3,581
2019_Oct_31,130,001,3,recog,37,PASSED,HF,target,right,aqua,imageability,conservative,no,z,1,1.1768690674,1,582
2019_Oct_31,130,001,3,recog,38,OVARIES,LF,lure,-,-,-,liberal,no,m,1,0.694463222819,1,583
2019_Oct_31,130,001,3,recog,39,MAMMAL,LF,lure,-,-,-,conservative,no,m,1,0.600400187116,3,586
2019_Oct_31,130,001,3,recog,40,CALLED,HF,target,right,aqua,imageability,liberal,yes,z,1,1.27082762039,3,589
2019_Oct_31,130,001,3,recog,41,WALKED,HF,lure,-,-,-,liberal,no,m,1,1.38858146939,1,590
2019_Oct_31,130,001,3,recog,42,JUBILANT,LF,target,left,yellow,pleasantness,liberal,no,z,1,0.517715502008,3,593
2019_Oct_31,130,001,3,recog,43,RUSSET,LF,lure,-,-,-,liberal,no,m,1,1.69415967305,1,594
2019_Oct_31,130,001,3,recog,44,FLECKED,LF,target,left,yellow,pleasantness,liberal,no,z,1,0.588624069004,3,597
2019_Oct_31,130,001,3,recog,45,PAINTWORK,LF,target,right,aqua,imageability,conservative,no,z,1,0.823757462265,1,598
2019_Oct_31,130,001,3,recog,46,GOVERNS,LF,lure,-,-,-,liberal,no,m,1,0.764938461516,1,599
2019_Oct_31,130,001,3,recog,47,INCLUDING,HF,target,right,aqua,imageability,liberal,no,z,1,0.647392478125,3,602
2019_Oct_31,130,001,3,recog,48,BAUXITE,LF,target,left,yellow,pleasantness,liberal,no,z,1,0.753296521202,3,605
2019_Oct_31,130,001,3,recog,49,VIVACIOUS,LF,target,right,aqua,imageability,conservative,no,z,1,0.682734763488,1,606
2019_Oct_31,130,001,3,recog,50,CERTAIN,HF,lure,-,-,-,conservative,no,m,1,0.812024237056,3,609
2019_Oct_31,130,001,3,recog,51,POWER,HF,target,right,aqua,imageability,conservative,no,z,1,0.564956351889,1,610
2019_Oct_31,130,001,3,recog,52,HACKNEY,LF,target,left,yellow,pleasantness,conservative,no,z,1,0.56489842814,1,611
2019_Oct_31,130,001,3,recog,53,HOURS,HF,target,left,yellow,pleasantness,liberal,no,z,1,0.553236324496,3,614
2019_Oct_31,130,001,3,recog,54,ABOVE,HF,lure,-,-,-,liberal,no,z,0,0.835530647529,-1,613
2019_Oct_31,130,001,3,recog,55,PETERED,LF,target,left,yellow,pleasantness,conservative,no,z,1,0.670865894057,1,614
2019_Oct_31,130,001,3,recog,56,TELEPHONE,HF,target,left,yellow,pleasantness,conservative,no,z,1,0.529671623669,1,615
2019_Oct_31,130,001,3,recog,57,STICKER,LF,lure,-,-,-,liberal,no,m,1,0.682625514898,1,616
2019_Oct_31,130,001,3,recog,58,WIRING,LF,lure,-,-,-,conservative,no,m,1,0.729703591713,3,619
2019_Oct_31,130,001,3,recog,59,VEHEMENCE,LF,lure,-,-,-,liberal,no,z,0,1.12962748431,-1,618
2019_Oct_31,130,001,3,recog,60,OUGHT,HF,target,right,aqua,imageability,conservative,no,z,1,0.717740137932,1,619
2019_Oct_31,130,001,3,recog,61,EFFECT,HF,target,right,aqua,imageability,liberal,no,z,1,0.741263045675,3,622
2019_Oct_31,130,001,3,recog,62,THOUSAND,HF,lure,-,-,-,conservative,no,m,1,0.74151123794,3,625
2019_Oct_31,130,001,3,recog,63,YOUNG,HF,lure,-,-,-,liberal,no,m,1,0.941478683327,1,626
2019_Oct_31,130,001,3,recog,64,PARENTS,HF,lure,-,-,-,conservative,no,m,1,0.565080997931,3,629
2019_Oct_31,130,001,3,recog,65,MONEY,HF,lure,-,-,-,liberal,no,m,1,0.600501736979,1,630
2019_Oct_31,130,001,3,recog,66,GAPED,LF,lure,-,-,-,conservative,no,m,1,1.09440801195,3,633
2019_Oct_31,130,001,3,recog,67,RATHER,HF,lure,-,-,-,conservative,no,m,1,0.718018025284,3,636
2019_Oct_31,130,001,3,recog,68,TREES,HF,target,left,yellow,pleasantness,conservative,no,z,1,0.552999863623,1,637
2019_Oct_31,130,001,3,recog,69,GIRLS,HF,lure,-,-,-,liberal,no,m,1,0.788607278449,1,638
2019_Oct_31,130,001,3,recog,70,DOCTOR,HF,lure,-,-,-,conservative,no,m,1,0.623936292674,3,641
2019_Oct_31,130,001,3,recog,71,LEMURS,LF,lure,-,-,-,conservative,no,m,1,0.741469811462,3,644
2019_Oct_31,130,001,3,recog,72,SAVOURED,LF,lure,-,-,-,liberal,yes,z,0,1.07070876672,-1,643
2019_Oct_31,130,001,3,recog,73,ESTRANGED,LF,lure,-,-,-,liberal,no,m,1,1.88272017257,1,644
2019_Oct_31,130,001,3,recog,74,HOIST,LF,target,right,aqua,imageability,conservative,no,z,1,0.76494542703,1,645
2019_Oct_31,130,001,3,recog,75,PALATABLE,LF,lure,-,-,-,conservative,no,m,1,1.12972096884,3,648
2019_Oct_31,130,001,3,recog,76,BREAK,HF,lure,-,-,-,conservative,no,m,1,1.27092733722,3,651
2019_Oct_31,130,001,3,recog,77,ADDED,HF,lure,-,-,-,liberal,no,m,1,0.753172608372,1,652
2019_Oct_31,130,001,3,recog,78,EAVES,LF,lure,-,-,-,conservative,no,m,1,0.706352988792,3,655
2019_Oct_31,130,001,3,recog,79,MESSED,LF,lure,-,-,-,conservative,no,m,1,0.588552580833,3,658
2019_Oct_31,130,001,3,recog,80,PAPER,HF,lure,-,-,-,conservative,no,m,1,0.647345919162,3,661
2019_Oct_31,130,001,3,recog,81,SUGARY,LF,target,left,yellow,pleasantness,conservative,no,z,1,0.682451010439,1,662
2019_Oct_31,130,001,3,recog,82,NERVY,LF,target,right,aqua,imageability,liberal,no,z,1,1.24743522438,3,665
2019_Oct_31,130,001,3,recog,83,TERMS,HF,target,right,aqua,imageability,conservative,no,z,1,0.741468345038,1,666
2019_Oct_31,130,001,3,recog,84,NOMAD,LF,lure,-,-,-,liberal,no,m,1,0.65916273054,1,667
2019_Oct_31,130,001,3,recog,85,TEXTURES,LF,target,right,aqua,imageability,conservative,no,z,1,0.729726687891,1,668
2019_Oct_31,130,001,3,recog,86,HALLMARK,LF,target,right,aqua,imageability,liberal,no,z,1,0.482752287255,3,671
2019_Oct_31,130,001,3,recog,87,KIBBUTZIM,LF,lure,-,-,-,liberal,no,m,1,0.62383217657,1,672
2019_Oct_31,130,001,3,recog,88,JAMMING,LF,target,right,aqua,imageability,liberal,no,z,1,0.553173634869,3,675
2019_Oct_31,130,001,3,recog,89,EXECUTING,LF,target,left,yellow,pleasantness,conservative,no,z,1,0.729751250493,1,676
2019_Oct_31,130,001,3,recog,90,DEVELOPED,HF,target,left,yellow,pleasantness,conservative,no,z,1,0.482820475972,1,677
2019_Oct_31,130,001,3,recog,91,GLASS,HF,lure,-,-,-,liberal,no,m,1,0.682734030276,1,678
2019_Oct_31,130,001,3,recog,92,FRONT,HF,target,left,yellow,pleasantness,conservative,yes,m,0,1.20034944884,-1,677
2019_Oct_31,130,001,3,recog,93,LIGHT,HF,lure,-,-,-,conservative,no,m,1,1.28268365861,3,680
2019_Oct_31,130,001,3,recog,94,AROUND,HF,target,left,yellow,pleasantness,liberal,no,z,1,0.576784528053,3,683
2019_Oct_31,130,001,3,recog,95,BASIC,HF,lure,-,-,-,liberal,no,m,1,0.847295034248,1,684
2019_Oct_31,130,001,4,source,0,COVER,HF,target,left,yellow,pleasantness,conservative,no,2,1,1.49420139281,-,-
2019_Oct_31,130,001,4,source,1,NOBLEMAN,LF,target,left,yellow,pleasantness,liberal,no,1,1,0.623818612147,-,-
2019_Oct_31,130,001,4,source,2,SWEARS,LF,target,left,yellow,pleasantness,liberal,no,1,1,0.612141477657,-,-
2019_Oct_31,130,001,4,source,3,COUNCIL,HF,target,left,yellow,pleasantness,conservative,no,1,1,0.58846202915,-,-
2019_Oct_31,130,001,4,source,4,EIGHT,HF,target,left,yellow,pleasantness,conservative,no,1,1,0.52948795406,-,-
2019_Oct_31,130,001,4,source,5,STUDENT,HF,target,right,aqua,imageability,conservative,no,9,1,0.835536879831,-,-
2019_Oct_31,130,001,4,source,6,MOTHER,HF,target,left,yellow,pleasantness,liberal,no,9,0,0.506000240493,-,-
2019_Oct_31,130,001,4,source,7,MEMBERS,HF,target,left,yellow,pleasantness,conservative,no,1,1,1.31769819821,-,-
2019_Oct_31,130,001,4,source,8,ACTION,HF,target,left,yellow,pleasantness,liberal,no,8,0,0.988467674882,-,-
2019_Oct_31,130,001,4,source,9,LESSENED,LF,target,left,yellow,pleasantness,liberal,no,1,1,0.718006660498,-,-
2019_Oct_31,130,001,4,source,10,LOCAL,HF,target,right,aqua,imageability,conservative,no,9,1,0.694479353483,-,-
2019_Oct_31,130,001,4,source,11,TAKEN,HF,target,right,aqua,imageability,conservative,no,9,1,1.0709518265,-,-
2019_Oct_31,130,001,4,source,12,DWELT,LF,target,right,aqua,imageability,liberal,no,8,1,1.00030171674,-,-
2019_Oct_31,130,001,4,source,13,RIDDLES,LF,target,right,aqua,imageability,conservative,yes,7,1,0.565019774728,-,-
2019_Oct_31,130,001,4,source,14,LIFEBOAT,LF,target,right,aqua,imageability,conservative,no,9,1,0.741500606366,-,-
2019_Oct_31,130,001,4,source,15,AFTERNOON,HF,target,left,yellow,pleasantness,conservative,no,1,1,0.753209635579,-,-
2019_Oct_31,130,001,4,source,16,ANOINTED,LF,target,right,aqua,imageability,conservative,yes,3,0,0.764936995092,-,-
2019_Oct_31,130,001,4,source,17,CUTLER,LF,target,right,aqua,imageability,conservative,no,9,1,0.670648863302,-,-
2019_Oct_31,130,001,4,source,18,TYCOONS,LF,target,right,aqua,imageability,liberal,no,9,1,0.741448181708,-,-
2019_Oct_31,130,001,4,source,19,STOOD,HF,target,left,yellow,pleasantness,liberal,no,1,1,0.847162322874,-,-
2019_Oct_31,130,001,4,source,20,AVIDLY,LF,target,left,yellow,pleasantness,conservative,no,1,1,2.24712580892,-,-
2019_Oct_31,130,001,4,source,21,THEORY,HF,target,left,yellow,pleasantness,liberal,no,1,1,0.635630291041,-,-
2019_Oct_31,130,001,4,source,22,TESTIFIES,LF,target,right,aqua,imageability,conservative,no,9,1,0.741531767877,-,-
2019_Oct_31,130,001,4,source,23,PIPELINES,LF,target,left,yellow,pleasantness,conservative,no,9,0,0.647307792137,-,-
2019_Oct_31,130,001,4,source,24,WOMAN,HF,target,right,aqua,imageability,liberal,yes,7,1,0.670744547469,-,-
2019_Oct_31,130,001,4,source,25,DALES,LF,target,left,yellow,pleasantness,liberal,no,1,1,1.76500994969,-,-
2019_Oct_31,130,001,4,source,26,PRUDENTLY,LF,target,left,yellow,pleasantness,conservative,no,1,1,1.0709818882,-,-
2019_Oct_31,130,001,4,source,27,ASKED,HF,target,left,yellow,pleasantness,liberal,no,1,1,0.576693243158,-,-
2019_Oct_31,130,001,4,source,28,INLAID,LF,target,left,yellow,pleasantness,liberal,no,1,1,0.72966069881,-,-
2019_Oct_31,130,001,4,source,29,SCHOOL,HF,target,right,aqua,imageability,liberal,no,9,1,0.788768951697,-,-
2019_Oct_31,130,001,4,source,30,WHATEVER,HF,target,right,aqua,imageability,conservative,no,9,1,1.28260410511,-,-
2019_Oct_31,130,001,4,source,31,BEREAVED,LF,target,left,yellow,pleasantness,conservative,no,1,1,1.62364044163,-,-
2019_Oct_31,130,001,4,source,32,NOVAS,LF,target,right,aqua,imageability,conservative,no,9,1,0.670636765303,-,-
2019_Oct_31,130,001,4,source,33,MUSIC,HF,target,right,aqua,imageability,liberal,no,9,1,0.917863757477,-,-
2019_Oct_31,130,001,4,source,34,CABLED,LF,target,right,aqua,imageability,liberal,no,9,1,1.34125043443,-,-
2019_Oct_31,130,001,4,source,35,OBVIOUSLY,HF,target,right,aqua,imageability,conservative,no,8,1,0.976869727289,-,-
2019_Oct_31,130,001,4,source,36,GARDEN,HF,target,right,aqua,imageability,conservative,no,9,1,0.97677147688,-,-
2019_Oct_31,130,001,4,source,37,LIVED,HF,target,right,aqua,imageability,liberal,no,3,0,1.21219815495,-,-
2019_Oct_31,130,001,4,source,38,AUBURN,LF,target,right,aqua,imageability,liberal,no,9,1,0.576835852894,-,-
2019_Oct_31,130,001,4,source,39,TIPSY,LF,target,right,aqua,imageability,liberal,no,9,1,0.506105089811,-,-
2019_Oct_31,130,001,4,source,40,LULLED,LF,target,left,yellow,pleasantness,conservative,no,1,1,0.765020581261,-,-
2019_Oct_31,130,001,4,source,41,REWRITE,LF,target,left,yellow,pleasantness,conservative,no,1,1,0.647420340181,-,-
2019_Oct_31,130,001,4,source,42,INVOLVED,HF,target,right,aqua,imageability,liberal,no,1,0,0.682669141013,-,-
2019_Oct_31,130,001,4,source,43,OLDER,HF,target,right,aqua,imageability,liberal,no,9,1,0.76511883167,-,-
2019_Oct_31,130,001,4,source,44,ORIGINALS,LF,target,right,aqua,imageability,liberal,yes,7,1,0.953175981148,-,-
2019_Oct_31,130,001,4,source,45,SUPPORT,HF,target,left,yellow,pleasantness,conservative,no,3,1,0.953247469319,-,-
2019_Oct_31,130,001,4,source,46,VOICE,HF,target,left,yellow,pleasantness,liberal,no,2,1,1.49428571219,-,-
2019_Oct_31,130,001,4,source,47,ELECTING,LF,target,left,yellow,pleasantness,liberal,no,1,1,0.870670566377,-,-
2019_Oct_31,130,001,4,recog,0,SEWED,LF,lure,-,-,-,conservative,no,m,1,1.07103577928,3,687
2019_Oct_31,130,001,4,recog,1,FEELING,HF,lure,-,-,-,conservative,no,m,1,0.600254644532,3,690
2019_Oct_31,130,001,4,recog,2,MEETING,HF,lure,-,-,-,conservative,no,m,1,0.51795856179,3,693
2019_Oct_31,130,001,4,recog,3,MIDDLE,HF,lure,-,-,-,liberal,no,m,1,0.682654110166,1,694
2019_Oct_31,130,001,4,recog,4,SWEARS,LF,target,left,yellow,pleasantness,liberal,no,z,1,0.576898909128,3,697
2019_Oct_31,130,001,4,recog,5,TIPSY,LF,target,right,aqua,imageability,liberal,no,z,1,0.588473393936,3,700
2019_Oct_31,130,001,4,recog,6,AFTERNOON,HF,target,left,yellow,pleasantness,conservative,no,z,1,0.671029400336,1,701
2019_Oct_31,130,001,4,recog,7,ASSERTIVE,LF,lure,-,-,-,conservative,no,m,1,0.588547814955,3,704
2019_Oct_31,130,001,4,recog,8,LASER,LF,lure,-,-,-,conservative,no,m,1,0.729659232386,3,707
2019_Oct_31,130,001,4,recog,9,COUNCIL,HF,target,left,yellow,pleasantness,conservative,no,z,1,0.623781218334,1,708
2019_Oct_31,130,001,4,recog,10,UGLIEST,LF,lure,-,-,-,liberal,yes,z,0,0.96499792501,-1,707
2019_Oct_31,130,001,4,recog,11,LIFEBOAT,LF,target,right,aqua,imageability,conservative,no,m,0,0.635595463471,-1,706
2019_Oct_31,130,001,4,recog,12,RIDDLES,LF,target,right,aqua,imageability,conservative,no,z,1,1.37680351824,1,707
2019_Oct_31,130,001,4,recog,13,LOCAL,HF,target,right,aqua,imageability,conservative,no,z,1,0.659065579949,1,708
2019_Oct_31,130,001,4,recog,14,WOMAN,HF,target,right,aqua,imageability,liberal,no,z,1,0.612016465009,3,711
2019_Oct_31,130,001,4,recog,15,UNKEMPT,LF,lure,-,-,-,liberal,no,m,1,0.741307771607,1,712
2019_Oct_31,130,001,4,recog,16,FELLS,LF,lure,-,-,-,liberal,no,m,1,0.635603528803,1,713
2019_Oct_31,130,001,4,recog,17,LESSENED,LF,target,left,yellow,pleasantness,liberal,no,z,1,0.564928123226,3,716
2019_Oct_31,130,001,4,recog,18,VOICE,HF,target,left,yellow,pleasantness,liberal,no,z,1,0.965084077421,3,719
2019_Oct_31,130,001,4,recog,19,ACCORDING,HF,lure,-,-,-,liberal,no,m,1,0.788362752243,1,720
2019_Oct_31,130,001,4,recog,20,SCHOOL,HF,target,right,aqua,imageability,liberal,no,z,1,0.529719282449,3,723
2019_Oct_31,130,001,4,recog,21,STOOD,HF,target,left,yellow,pleasantness,liberal,no,z,1,0.658856981132,3,726
2019_Oct_31,130,001,4,recog,22,INLAID,LF,target,left,yellow,pleasantness,liberal,no,z,1,0.576751900119,3,729
2019_Oct_31,130,001,4,recog,23,NAIVELY,LF,lure,-,-,-,liberal,no,z,0,0.529724048327,-1,728
2019_Oct_31,130,001,4,recog,24,BRING,HF,lure,-,-,-,conservative,no,z,0,1.09445567073,-3,725
2019_Oct_31,130,001,4,recog,25,DAGGERS,LF,lure,-,-,-,conservative,no,m,1,0.800248485551,3,728
2019_Oct_31,130,001,4,recog,26,DWELT,LF,target,right,aqua,imageability,liberal,no,z,1,1.02388328145,3,731
2019_Oct_31,130,001,4,recog,27,SUPPORT,HF,target,left,yellow,pleasantness,conservative,yes,m,0,0.765085103918,-1,730
2019_Oct_31,130,001,4,recog,28,GARDEN,HF,target,right,aqua,imageability,conservative,no,z,1,0.588499789568,1,731
2019_Oct_31,130,001,4,recog,29,BOTANIST,LF,lure,-,-,-,liberal,no,m,1,0.91793964492,1,732
2019_Oct_31,130,001,4,recog,30,OBVIOUSLY,HF,target,right,aqua,imageability,conservative,no,z,1,0.694324279143,1,733
2019_Oct_31,130,001,4,recog,31,ARRIVED,HF,lure,-,-,-,conservative,no,z,0,0.506224969975,-3,730
2019_Oct_31,130,001,4,recog,32,ACTION,HF,target,left,yellow,pleasantness,liberal,no,m,0,1.14155684373,-3,727
2019_Oct_31,130,001,4,recog,33,RECENT,HF,lure,-,-,-,conservative,no,m,1,1.51770487043,3,730
2019_Oct_31,130,001,4,recog,34,TAKEN,HF,target,right,aqua,imageability,conservative,no,z,1,0.659174828538,1,731
2019_Oct_31,130,001,4,recog,35,WHATEVER,HF,target,right,aqua,imageability,conservative,no,z,1,1.37684384491,1,732
2019_Oct_31,130,001,4,recog,36,NATIONAL,HF,lure,-,-,-,liberal,no,m,1,1.09422360913,1,733
2019_Oct_31,130,001,4,recog,37,PIPELINES,LF,target,left,yellow,pleasantness,conservative,no,z,1,0.91768632017,1,734
2019_Oct_31,130,001,4,recog,38,REWRITE,LF,target,left,yellow,pleasantness,conservative,no,z,1,0.5179347324,1,735
2019_Oct_31,130,001,4,recog,39,INTEREST,HF,lure,-,-,-,conservative,no,m,1,0.776812463431,3,738
2019_Oct_31,130,001,4,recog,40,DALES,LF,target,left,yellow,pleasantness,liberal,no,z,1,0.659045416618,3,741
2019_Oct_31,130,001,4,recog,41,LULLED,LF,target,left,yellow,pleasantness,conservative,no,z,1,0.859141174107,1,742
2019_Oct_31,130,001,4,recog,42,KANGAROO,LF,lure,-,-,-,conservative,no,m,1,0.800277814031,3,745
2019_Oct_31,130,001,4,recog,43,MEMBERS,HF,target,left,yellow,pleasantness,conservative,no,z,1,1.44739717068,1,746
2019_Oct_31,130,001,4,recog,44,JEERED,LF,lure,-,-,-,conservative,no,m,1,0.788563652334,3,749
2019_Oct_31,130,001,4,recog,45,AFIELD,LF,lure,-,-,-,liberal,no,m,1,0.78854018955,1,750
2019_Oct_31,130,001,4,recog,46,FISHY,LF,lure,-,-,-,liberal,no,z,0,0.894548715339,-1,749
2019_Oct_31,130,001,4,recog,47,CAPITAL,HF,lure,-,-,-,liberal,no,m,1,0.811867696292,1,750
2019_Oct_31,130,001,4,recog,48,INVOLVED,HF,target,right,aqua,imageability,liberal,no,z,1,0.670917952109,3,753
2019_Oct_31,130,001,4,recog,49,NOVAS,LF,target,right,aqua,imageability,conservative,no,z,1,0.764759924391,1,754
2019_Oct_31,130,001,4,recog,50,TESTIFIES,LF,target,right,aqua,imageability,conservative,no,z,1,0.635791231078,1,755
2019_Oct_31,130,001,4,recog,51,CABLED,LF,target,right,aqua,imageability,liberal,no,z,1,0.55324329001,3,758
2019_Oct_31,130,001,4,recog,52,RIOTERS,LF,lure,-,-,-,conservative,yes,m,1,0.788596646875,3,761
2019_Oct_31,130,001,4,recog,53,PRUDENTLY,LF,target,left,yellow,pleasantness,conservative,no,z,1,0.659076578129,1,762
2019_Oct_31,130,001,4,recog,54,ANOINTED,LF,target,right,aqua,imageability,conservative,no,z,1,1.78866153614,1,763
2019_Oct_31,130,001,4,recog,55,ELECTING,LF,target,left,yellow,pleasantness,liberal,no,z,1,0.941565202345,3,766
2019_Oct_31,130,001,4,recog,56,GATEHOUSE,LF,lure,-,-,-,conservative,no,m,1,1.14145895992,3,769
2019_Oct_31,130,001,4,recog,57,PYJAMA,LF,lure,-,-,-,liberal,no,m,1,0.906160227354,1,770
2019_Oct_31,130,001,4,recog,58,CUTLER,LF,target,right,aqua,imageability,conservative,no,z,1,0.612152475837,1,771
2019_Oct_31,130,001,4,recog,59,OLDER,HF,target,right,aqua,imageability,liberal,no,z,1,0.80029724415,3,774
2019_Oct_31,130,001,4,recog,60,ORIGINALS,LF,target,right,aqua,imageability,liberal,no,z,1,0.576771330237,3,777
2019_Oct_31,130,001,4,recog,61,NEGATION,LF,lure,-,-,-,conservative,no,m,1,0.823864144613,3,780
2019_Oct_31,130,001,4,recog,62,BEREAVED,LF,target,left,yellow,pleasantness,conservative,no,z,1,0.659156864844,1,781
2019_Oct_31,130,001,4,recog,63,EIGHT,HF,target,left,yellow,pleasantness,conservative,no,z,1,0.517966627122,1,782
2019_Oct_31,130,001,4,recog,64,MUSIC,HF,target,right,aqua,imageability,liberal,no,z,1,0.647307058925,3,785
2019_Oct_31,130,001,4,recog,65,ASHEN,LF,lure,-,-,-,conservative,no,m,1,0.65916822963,3,788
2019_Oct_31,130,001,4,recog,66,ITSELF,HF,lure,-,-,-,liberal,no,m,1,1.02379566261,1,789
2019_Oct_31,130,001,4,recog,67,HOTEL,HF,lure,-,-,-,liberal,no,m,1,0.776870020574,1,790
2019_Oct_31,130,001,4,recog,68,OTHERS,HF,lure,-,-,-,liberal,no,z,0,0.917938178496,-1,789
2019_Oct_31,130,001,4,recog,69,NOBLEMAN,LF,target,left,yellow,pleasantness,liberal,no,z,1,0.659154665208,3,792
2019_Oct_31,130,001,4,recog,70,MERELY,HF,lure,-,-,-,conservative,no,m,1,0.76506200774,3,795
2019_Oct_31,130,001,4,recog,71,HIGHER,HF,lure,-,-,-,conservative,no,m,1,0.812122120859,3,798
2019_Oct_31,130,001,4,recog,72,AUBURN,LF,target,right,aqua,imageability,liberal,no,z,1,0.682589220904,3,801
2019_Oct_31,130,001,4,recog,73,SAPLINGS,LF,lure,-,-,-,liberal,no,m,1,0.741535433937,1,802
2019_Oct_31,130,001,4,recog,74,COVER,HF,target,left,yellow,pleasantness,conservative,no,z,1,0.788463568895,1,803
2019_Oct_31,130,001,4,recog,75,APART,HF,lure,-,-,-,conservative,yes,m,1,0.741519303273,3,806
2019_Oct_31,130,001,4,recog,76,PERHAPS,HF,lure,-,-,-,conservative,no,m,1,0.859170502587,3,809
2019_Oct_31,130,001,4,recog,77,AREAS,HF,lure,-,-,-,liberal,no,z,0,0.94150874502,-1,808
2019_Oct_31,130,001,4,recog,78,THEORY,HF,target,left,yellow,pleasantness,liberal,no,z,1,0.623970387033,3,811
2019_Oct_31,130,001,4,recog,79,HEALTH,HF,lure,-,-,-,conservative,no,m,1,1.3883868016,3,814
2019_Oct_31,130,001,4,recog,80,LIVED,HF,target,right,aqua,imageability,liberal,no,z,1,1.01207710164,3,817
2019_Oct_31,130,001,4,recog,81,MOTHER,HF,target,left,yellow,pleasantness,liberal,no,z,1,0.576695076188,3,820
2019_Oct_31,130,001,4,recog,82,AVIDLY,LF,target,left,yellow,pleasantness,conservative,no,z,1,0.670857095512,1,821
2019_Oct_31,130,001,4,recog,83,ASKED,HF,target,left,yellow,pleasantness,liberal,no,z,1,0.517985324028,3,824
2019_Oct_31,130,001,4,recog,84,EGOISM,LF,lure,-,-,-,liberal,no,m,1,0.612022697311,1,825
2019_Oct_31,130,001,4,recog,85,PHYSICAL,HF,lure,-,-,-,liberal,no,m,1,0.694458456941,1,826
2019_Oct_31,130,001,4,recog,86,IDYLL,LF,lure,-,-,-,conservative,no,m,1,0.835592237338,3,829
2019_Oct_31,130,001,4,recog,87,TYCOONS,LF,target,right,aqua,imageability,liberal,no,z,1,0.682503435098,3,832
2019_Oct_31,130,001,4,recog,88,LONGER,HF,lure,-,-,-,liberal,no,z,0,0.906136397964,-1,831
2019_Oct_31,130,001,4,recog,89,AUSPICES,LF,lure,-,-,-,conservative,no,z,0,1.02390271156,-3,828
2019_Oct_31,130,001,4,recog,90,WANTED,HF,lure,-,-,-,conservative,no,z,0,1.67088129151,-3,825
2019_Oct_31,130,001,4,recog,91,USING,HF,lure,-,-,-,liberal,no,z,0,0.753190205461,-1,824
2019_Oct_31,130,001,4,recog,92,LAYERED,LF,lure,-,-,-,liberal,no,m,1,1.12970703781,1,825
2019_Oct_31,130,001,4,recog,93,HERSELF,HF,lure,-,-,-,liberal,no,m,1,0.64736901534,1,826
2019_Oct_31,130,001,4,recog,94,STUDENT,HF,target,right,aqua,imageability,conservative,no,z,1,0.670912819625,1,827
2019_Oct_31,130,001,4,recog,95,REJOICED,LF,lure,-,-,-,liberal,no,m,1,0.859181134162,1,828
