date,subj,session,cycle,task,trial,item,wf,type,source,colour,encoding,bias,null,response,corr,rt,points,total
2019_Oct_31,131,001,0,source,0,DESERTER,LF,target,right,yellow,pleasantness,liberal,no,9,1,3.15332049724,-,-
2019_Oct_31,131,001,0,source,1,WASHBASIN,LF,target,left,aqua,imageability,liberal,no,2,1,2.54133409392,-,-
2019_Oct_31,131,001,0,source,2,OFTEN,HF,target,left,aqua,imageability,conservative,no,2,1,2.75329835423,-,-
2019_Oct_31,131,001,0,source,3,AHEAD,HF,target,right,yellow,pleasantness,liberal,no,9,1,2.68259801945,-,-
2019_Oct_31,131,001,0,source,4,BINDINGS,LF,target,right,yellow,pleasantness,conservative,no,2,0,2.49436599891,-,-
2019_Oct_31,131,001,0,source,5,SPRATS,LF,target,left,aqua,imageability,conservative,no,3,1,2.72957234676,-,-
2019_Oct_31,131,001,0,source,6,CELLO,LF,target,right,yellow,pleasantness,conservative,no,9,1,2.28261143723,-,-
2019_Oct_31,131,001,0,source,7,WHATEVER,HF,target,left,aqua,imageability,liberal,no,8,0,4.25924030437,-,-
2019_Oct_31,131,001,0,source,8,APTLY,LF,target,right,yellow,pleasantness,liberal,no,2,0,3.57683841914,-,-
2019_Oct_31,131,001,0,source,9,BICEPS,LF,target,right,yellow,pleasantness,conservative,no,9,1,1.67066389415,-,-
2019_Oct_31,131,001,0,source,10,LOTTERY,LF,target,right,yellow,pleasantness,conservative,no,9,1,1.85884422324,-,-
2019_Oct_31,131,001,0,source,11,FATHER,HF,target,left,aqua,imageability,liberal,no,1,1,1.95339191208,-,-
2019_Oct_31,131,001,0,source,12,FELLS,LF,target,right,yellow,pleasantness,liberal,no,9,1,2.04744394961,-,-
2019_Oct_31,131,001,0,source,13,TALKING,HF,target,left,aqua,imageability,conservative,no,3,1,1.60033126519,-,-
2019_Oct_31,131,001,0,source,14,FLOOR,HF,target,left,aqua,imageability,conservative,no,1,1,1.57680835744,-,-
2019_Oct_31,131,001,0,source,15,ORDER,HF,target,right,yellow,pleasantness,conservative,no,7,1,4.9884442121,-,-
2019_Oct_31,131,001,0,source,16,INSIDE,HF,target,right,yellow,pleasantness,liberal,no,2,0,1.85908325036,-,-
2019_Oct_31,131,001,0,source,17,INDEED,HF,target,left,aqua,imageability,liberal,no,2,1,2.25917211565,-,-
2019_Oct_31,131,001,0,source,18,CLOSE,HF,target,right,yellow,pleasantness,liberal,no,9,1,1.17674038869,-,-
2019_Oct_31,131,001,0,source,19,BUNGALOWS,LF,target,left,aqua,imageability,conservative,no,1,1,2.68271643319,-,-
2019_Oct_31,131,001,0,source,20,RUSSET,LF,target,right,yellow,pleasantness,liberal,no,3,0,1.74160985496,-,-
2019_Oct_31,131,001,0,source,21,KERNEL,LF,target,right,yellow,pleasantness,conservative,no,7,1,3.52979223704,-,-
2019_Oct_31,131,001,0,source,22,ACCORDING,HF,target,right,yellow,pleasantness,conservative,no,3,0,1.95327533138,-,-
2019_Oct_31,131,001,0,source,23,RIPEN,LF,target,left,aqua,imageability,liberal,no,1,1,4.49451007507,-,-
2019_Oct_31,131,001,0,source,24,HALLMARK,LF,target,right,yellow,pleasantness,liberal,no,3,0,1.50615824768,-,-
2019_Oct_31,131,001,0,source,25,ENSCONCED,LF,target,left,aqua,imageability,liberal,yes,7,0,1.45905854111,-,-
2019_Oct_31,131,001,0,source,26,NEEDED,HF,target,left,aqua,imageability,conservative,no,3,1,2.21222821664,-,-
2019_Oct_31,131,001,0,source,27,BUGGED,LF,target,left,aqua,imageability,conservative,no,1,1,1.69441813028,-,-
2019_Oct_31,131,001,0,source,28,RASCAL,LF,target,left,aqua,imageability,conservative,no,7,0,1.38846488868,-,-
2019_Oct_31,131,001,0,source,29,FIGURE,HF,target,right,yellow,pleasantness,conservative,no,7,1,2.40048736602,-,-
2019_Oct_31,131,001,0,source,30,SWOOPING,LF,target,left,aqua,imageability,liberal,no,1,1,1.76496669018,-,-
2019_Oct_31,131,001,0,source,31,PETERED,LF,target,right,yellow,pleasantness,liberal,no,9,1,2.72976188207,-,-
2019_Oct_31,131,001,0,source,32,OFFER,HF,target,right,yellow,pleasantness,liberal,no,9,1,2.44738837214,-,-
2019_Oct_31,131,001,0,source,33,SUBJECT,HF,target,left,aqua,imageability,liberal,yes,7,0,1.08281373042,-,-
2019_Oct_31,131,001,0,source,34,AMONG,HF,target,left,aqua,imageability,liberal,no,2,1,1.38860126611,-,-
2019_Oct_31,131,001,0,source,35,CIVILITY,LF,target,left,aqua,imageability,liberal,no,3,1,2.4474532614,-,-
2019_Oct_31,131,001,0,source,36,VEXED,LF,target,left,aqua,imageability,liberal,no,3,1,1.52968518809,-,-
2019_Oct_31,131,001,0,source,37,BRING,HF,target,right,yellow,pleasantness,liberal,no,7,1,3.31793722532,-,-
2019_Oct_31,131,001,0,source,38,TRADE,HF,target,left,aqua,imageability,conservative,no,2,1,1.92967543637,-,-
2019_Oct_31,131,001,0,source,39,ABOVE,HF,target,left,aqua,imageability,liberal,yes,3,1,0.941484182417,-,-
2019_Oct_31,131,001,0,source,40,MONEY,HF,target,left,aqua,imageability,conservative,no,1,1,3.08263885936,-,-
2019_Oct_31,131,001,0,source,41,WOMAN,HF,target,right,yellow,pleasantness,conservative,no,2,0,1.81189005926,-,-
2019_Oct_31,131,001,0,source,42,AVAILABLE,HF,target,right,yellow,pleasantness,liberal,no,8,1,2.72946346478,-,-
2019_Oct_31,131,001,0,source,43,MOTHER,HF,target,right,yellow,pleasantness,conservative,no,2,0,2.42387426294,-,-
2019_Oct_31,131,001,0,source,44,RICKETS,LF,target,right,yellow,pleasantness,conservative,yes,2,0,0.988512400815,-,-
2019_Oct_31,131,001,0,source,45,NEURAL,LF,target,left,aqua,imageability,conservative,no,2,1,3.34159174462,-,-
2019_Oct_31,131,001,0,source,46,KNOWLEDGE,HF,target,right,yellow,pleasantness,conservative,no,8,1,2.68252103219,-,-
2019_Oct_31,131,001,0,source,47,SUNBURN,LF,target,left,aqua,imageability,conservative,no,9,0,2.9179202148,-,-
2019_Oct_31,131,001,0,recog,0,TETHER,LF,lure,-,-,-,liberal,no,m,1,1.97700500491,1,1
2019_Oct_31,131,001,0,recog,1,TAGGED,LF,lure,-,-,-,conservative,no,z,0,2.88266334864,-3,-2
2019_Oct_31,131,001,0,recog,2,SUNBURN,LF,target,left,aqua,imageability,conservative,no,z,1,1.36470698648,1,-1
2019_Oct_31,131,001,0,recog,3,OFTEN,HF,target,left,aqua,imageability,conservative,no,z,1,1.41207321562,1,0
2019_Oct_31,131,001,0,recog,4,THOUSAND,HF,lure,-,-,-,liberal,no,m,1,1.03550762467,1,1
2019_Oct_31,131,001,0,recog,5,AVAILABLE,HF,target,right,yellow,pleasantness,liberal,no,z,1,0.823815019408,3,4
2019_Oct_31,131,001,0,recog,6,NEEDED,HF,target,left,aqua,imageability,conservative,no,z,1,1.57680469138,1,5
2019_Oct_31,131,001,0,recog,7,TOFFEE,LF,lure,-,-,-,liberal,no,m,1,1.10620759285,1,6
2019_Oct_31,131,001,0,recog,8,HUMAN,HF,lure,-,-,-,liberal,yes,z,0,1.2473692353,-1,5
2019_Oct_31,131,001,0,recog,9,FELLS,LF,target,right,yellow,pleasantness,liberal,no,z,1,1.34147223106,3,8
2019_Oct_31,131,001,0,recog,10,ORDER,HF,target,right,yellow,pleasantness,conservative,no,z,1,2.74149364085,1,9
2019_Oct_31,131,001,0,recog,11,RIOTERS,LF,lure,-,-,-,liberal,no,m,1,1.04753963378,1,10
2019_Oct_31,131,001,0,recog,12,SITTING,HF,lure,-,-,-,liberal,no,m,1,1.10639602834,1,11
2019_Oct_31,131,001,0,recog,13,HALLMARK,LF,target,right,yellow,pleasantness,liberal,no,z,1,0.788489597921,3,14
2019_Oct_31,131,001,0,recog,14,ANGERS,LF,lure,-,-,-,conservative,no,m,1,1.18849890971,3,17
2019_Oct_31,131,001,0,recog,15,AREAS,HF,lure,-,-,-,liberal,no,m,1,1.84733279467,1,18
2019_Oct_31,131,001,0,recog,16,ROBBERIES,LF,lure,-,-,-,conservative,no,m,1,0.788305928313,3,21
2019_Oct_31,131,001,0,recog,17,LEARN,HF,lure,-,-,-,liberal,no,m,1,1.36502043462,1,22
2019_Oct_31,131,001,0,recog,18,BUGGED,LF,target,left,aqua,imageability,conservative,no,z,1,0.741421419469,1,23
2019_Oct_31,131,001,0,recog,19,BUNGALOWS,LF,target,left,aqua,imageability,conservative,no,z,1,0.859077018056,1,24
2019_Oct_31,131,001,0,recog,20,SOMEONE,HF,lure,-,-,-,liberal,no,m,1,0.776793399919,1,25
2019_Oct_31,131,001,0,recog,21,FRONT,HF,lure,-,-,-,conservative,no,m,1,0.882613856827,3,28
2019_Oct_31,131,001,0,recog,22,IDEAS,HF,lure,-,-,-,conservative,no,m,1,1.24705872002,3,31
2019_Oct_31,131,001,0,recog,23,SWAGGER,LF,lure,-,-,-,liberal,no,m,1,0.788452204109,1,32
2019_Oct_31,131,001,0,recog,24,WHATEVER,HF,target,left,aqua,imageability,liberal,no,z,1,0.741432051043,3,35
2019_Oct_31,131,001,0,recog,25,NEURAL,LF,target,left,aqua,imageability,conservative,no,z,1,0.8121367851,1,36
2019_Oct_31,131,001,0,recog,26,GARDEN,HF,lure,-,-,-,liberal,no,m,1,0.706127159493,1,37
2019_Oct_31,131,001,0,recog,27,FLOOR,HF,target,left,aqua,imageability,conservative,no,z,1,0.682647511258,1,38
2019_Oct_31,131,001,0,recog,28,HOURS,HF,lure,-,-,-,conservative,no,m,1,0.78827036753,3,41
2019_Oct_31,131,001,0,recog,29,RUSSET,LF,target,right,yellow,pleasantness,liberal,no,z,1,1.00025149172,3,44
2019_Oct_31,131,001,0,recog,30,AHEAD,HF,target,right,yellow,pleasantness,liberal,no,z,1,1.15324204355,3,47
2019_Oct_31,131,001,0,recog,31,REVERE,LF,lure,-,-,-,conservative,no,m,1,0.776824194823,3,50
2019_Oct_31,131,001,0,recog,32,STAFF,HF,lure,-,-,-,conservative,no,m,1,1.05908515671,3,53
2019_Oct_31,131,001,0,recog,33,ACCORDING,HF,target,right,yellow,pleasantness,conservative,no,z,1,1.04709714033,1,54
2019_Oct_31,131,001,0,recog,34,FATHER,HF,target,left,aqua,imageability,liberal,no,z,1,0.658862480222,3,57
2019_Oct_31,131,001,0,recog,35,ENSCONCED,LF,target,left,aqua,imageability,liberal,no,m,0,0.635564668566,-3,54
2019_Oct_31,131,001,0,recog,36,WOMAN,HF,target,right,yellow,pleasantness,conservative,no,z,1,0.952923756216,1,55
2019_Oct_31,131,001,0,recog,37,NEOLITHIC,LF,lure,-,-,-,conservative,no,m,1,1.03561833969,3,58
2019_Oct_31,131,001,0,recog,38,RICKETS,LF,target,right,yellow,pleasantness,conservative,no,z,1,0.706084999802,1,59
2019_Oct_31,131,001,0,recog,39,LOOKED,HF,lure,-,-,-,conservative,no,m,1,1.90590396976,3,62
2019_Oct_31,131,001,0,recog,40,BETTER,HF,lure,-,-,-,conservative,no,m,1,1.03552338873,3,65
2019_Oct_31,131,001,0,recog,41,REQUIRED,HF,lure,-,-,-,conservative,no,m,1,1.02381582594,3,68
2019_Oct_31,131,001,0,recog,42,RASCAL,LF,target,left,aqua,imageability,conservative,no,z,1,0.83532681459,1,69
2019_Oct_31,131,001,0,recog,43,ABOVE,HF,target,left,aqua,imageability,liberal,no,m,0,0.917895285593,-3,66
2019_Oct_31,131,001,0,recog,44,APTLY,LF,target,right,yellow,pleasantness,liberal,no,z,1,1.47088231801,3,69
2019_Oct_31,131,001,0,recog,45,LOBBIES,LF,lure,-,-,-,liberal,no,m,1,1.01209433212,1,70
2019_Oct_31,131,001,0,recog,46,FRACTIONS,LF,lure,-,-,-,liberal,no,m,1,1.05910202059,1,71
2019_Oct_31,131,001,0,recog,47,BRING,HF,target,right,yellow,pleasantness,liberal,no,z,1,0.870836638897,3,74
2019_Oct_31,131,001,0,recog,48,WETTER,LF,lure,-,-,-,liberal,no,m,1,0.929675802977,1,75
2019_Oct_31,131,001,0,recog,49,HAWKED,LF,lure,-,-,-,liberal,no,m,1,1.36497790832,1,76
2019_Oct_31,131,001,0,recog,50,KERNEL,LF,target,right,yellow,pleasantness,conservative,yes,z,1,0.882482611877,1,77
2019_Oct_31,131,001,0,recog,51,AMONG,HF,target,left,aqua,imageability,liberal,no,z,1,1.1060888125,3,80
2019_Oct_31,131,001,0,recog,52,SOUND,HF,lure,-,-,-,conservative,no,m,1,0.929898699428,3,83
2019_Oct_31,131,001,0,recog,53,CLOSE,HF,target,right,yellow,pleasantness,liberal,no,z,1,0.812084360441,3,86
2019_Oct_31,131,001,0,recog,54,LOTTERY,LF,target,right,yellow,pleasantness,conservative,no,z,1,1.17671399306,1,87
2019_Oct_31,131,001,0,recog,55,BICEPS,LF,target,right,yellow,pleasantness,conservative,no,z,1,0.823785324322,1,88
2019_Oct_31,131,001,0,recog,56,EITHER,HF,lure,-,-,-,liberal,no,m,1,0.80020999192,1,89
2019_Oct_31,131,001,0,recog,57,MONEY,HF,target,left,aqua,imageability,conservative,yes,m,0,0.776750140411,-1,88
2019_Oct_31,131,001,0,recog,58,PETERED,LF,target,right,yellow,pleasantness,liberal,no,z,1,1.15321968058,3,91
2019_Oct_31,131,001,0,recog,59,TALKING,HF,target,left,aqua,imageability,conservative,no,z,1,1.7649252637,1,92
2019_Oct_31,131,001,0,recog,60,KNOWLEDGE,HF,target,right,yellow,pleasantness,conservative,no,z,1,0.694545709171,1,93
2019_Oct_31,131,001,0,recog,61,ROSEBUD,LF,lure,-,-,-,liberal,no,m,1,0.847129328334,1,94
2019_Oct_31,131,001,0,recog,62,INCLUDING,HF,lure,-,-,-,conservative,no,m,1,1.8003368376,3,97
2019_Oct_31,131,001,0,recog,63,WAGGED,LF,lure,-,-,-,liberal,no,m,1,0.88256766447,1,98
2019_Oct_31,131,001,0,recog,64,SPRATS,LF,target,left,aqua,imageability,conservative,no,z,1,0.882646118156,1,99
2019_Oct_31,131,001,0,recog,65,SWOOPING,LF,target,left,aqua,imageability,liberal,no,z,1,2.05908698974,3,102
2019_Oct_31,131,001,0,recog,66,INSIDE,HF,target,right,yellow,pleasantness,liberal,yes,z,1,0.753155744496,3,105
2019_Oct_31,131,001,0,recog,67,CHROMIUM,LF,lure,-,-,-,conservative,no,m,1,0.964757064864,3,108
2019_Oct_31,131,001,0,recog,68,DESERTER,LF,target,right,yellow,pleasantness,liberal,no,z,1,0.776705414477,3,111
2019_Oct_31,131,001,0,recog,69,RIPEN,LF,target,left,aqua,imageability,liberal,no,z,1,0.694320979688,3,114
2019_Oct_31,131,001,0,recog,70,FOUND,HF,lure,-,-,-,conservative,no,m,1,0.576509206943,3,117
2019_Oct_31,131,001,0,recog,71,MOTHER,HF,target,right,yellow,pleasantness,conservative,no,z,1,0.576667214132,1,118
2019_Oct_31,131,001,0,recog,72,CIVILITY,LF,target,left,aqua,imageability,liberal,no,z,1,0.835371540523,3,121
2019_Oct_31,131,001,0,recog,73,TODAY,HF,lure,-,-,-,conservative,no,m,1,0.694539843475,3,124
2019_Oct_31,131,001,0,recog,74,GUMMED,LF,lure,-,-,-,conservative,no,m,1,0.823545930601,3,127
2019_Oct_31,131,001,0,recog,75,CELLO,LF,target,right,yellow,pleasantness,conservative,no,m,0,0.670913919444,-1,126
2019_Oct_31,131,001,0,recog,76,DONATE,LF,lure,-,-,-,liberal,no,m,1,0.812072629049,1,127
2019_Oct_31,131,001,0,recog,77,SEEMED,HF,lure,-,-,-,liberal,no,m,1,0.917857891781,1,128
2019_Oct_31,131,001,0,recog,78,RANGE,HF,lure,-,-,-,liberal,no,m,1,1.04729657399,1,129
2019_Oct_31,131,001,0,recog,79,SUBJECT,HF,target,left,aqua,imageability,liberal,no,z,1,1.17683607286,3,132
2019_Oct_31,131,001,0,recog,80,GIPSY,LF,lure,-,-,-,conservative,no,m,1,0.706189849119,3,135
2019_Oct_31,131,001,0,recog,81,OFFER,HF,target,right,yellow,pleasantness,liberal,no,z,1,0.929726394605,3,138
2019_Oct_31,131,001,0,recog,82,KITCHEN,HF,lure,-,-,-,liberal,no,m,1,1.02371684232,1,139
2019_Oct_31,131,001,0,recog,83,VEXED,LF,target,left,aqua,imageability,liberal,no,z,1,0.682611950476,3,142
2019_Oct_31,131,001,0,recog,84,BINDINGS,LF,target,right,yellow,pleasantness,conservative,no,m,0,1.04746594597,-1,141
2019_Oct_31,131,001,0,recog,85,CLASS,HF,lure,-,-,-,conservative,no,m,1,1.31796215453,3,144
2019_Oct_31,131,001,0,recog,86,UNSAVOURY,LF,lure,-,-,-,conservative,no,m,1,0.929715763032,3,147
2019_Oct_31,131,001,0,recog,87,AVOCADO,LF,lure,-,-,-,conservative,no,m,1,0.800336837598,3,150
2019_Oct_31,131,001,0,recog,88,THYROID,LF,lure,-,-,-,conservative,no,m,1,0.74121941956,3,153
2019_Oct_31,131,001,0,recog,89,FIGURE,HF,target,right,yellow,pleasantness,conservative,no,z,1,0.764907300005,1,154
2019_Oct_31,131,001,0,recog,90,INDEED,HF,target,left,aqua,imageability,liberal,no,z,1,0.894343415976,3,157
2019_Oct_31,131,001,0,recog,91,TRADE,HF,target,left,aqua,imageability,conservative,no,z,1,1.10619769449,1,158
2019_Oct_31,131,001,0,recog,92,FUSELAGE,LF,lure,-,-,-,liberal,no,m,1,0.706157221186,1,159
2019_Oct_31,131,001,0,recog,93,CAGED,LF,lure,-,-,-,conservative,no,m,1,0.941476483691,3,162
2019_Oct_31,131,001,0,recog,94,CAPITAL,HF,lure,-,-,-,liberal,no,m,1,0.976705487798,1,163
2019_Oct_31,131,001,0,recog,95,WASHBASIN,LF,target,left,aqua,imageability,liberal,no,z,1,1.047272378,3,166
2019_Oct_31,131,001,1,source,0,LANGUAGE,HF,target,left,aqua,imageability,conservative,no,1,1,2.12952886729,-,-
2019_Oct_31,131,001,1,source,1,ALTHOUGH,HF,target,right,yellow,pleasantness,conservative,no,3,0,2.25914168735,-,-
2019_Oct_31,131,001,1,source,2,BIGNESS,LF,target,right,yellow,pleasantness,liberal,no,8,1,1.84746623925,-,-
2019_Oct_31,131,001,1,source,3,TWENTY,HF,target,left,aqua,imageability,liberal,no,7,0,1.38854517539,-,-
2019_Oct_31,131,001,1,source,4,PREPARED,HF,target,right,yellow,pleasantness,liberal,no,3,0,1.94156116968,-,-
2019_Oct_31,131,001,1,source,5,LOCAL,HF,target,right,yellow,pleasantness,conservative,no,3,0,1.54151263104,-,-
2019_Oct_31,131,001,1,source,6,TOGETHER,HF,target,left,aqua,imageability,conservative,no,1,1,0.894436900508,-,-
2019_Oct_31,131,001,1,source,7,BUSINESS,HF,target,right,yellow,pleasantness,liberal,no,8,1,1.92951522955,-,-
2019_Oct_31,131,001,1,source,8,ALONE,HF,target,right,yellow,pleasantness,liberal,yes,8,1,0.765045510469,-,-
2019_Oct_31,131,001,1,source,9,MOVED,HF,target,right,yellow,pleasantness,liberal,no,8,1,3.2238547595,-,-
2019_Oct_31,131,001,1,source,10,PLACE,HF,target,right,yellow,pleasantness,conservative,no,8,1,1.37681744927,-,-
2019_Oct_31,131,001,1,source,11,YOUNG,HF,target,left,aqua,imageability,conservative,no,8,0,2.25907496506,-,-
2019_Oct_31,131,001,1,source,12,VALUE,HF,target,right,yellow,pleasantness,conservative,no,9,1,2.12983644973,-,-
2019_Oct_31,131,001,1,source,13,SHUNNED,LF,target,left,aqua,imageability,conservative,no,8,0,2.7062437402,-,-
2019_Oct_31,131,001,1,source,14,ORIGINALS,LF,target,right,yellow,pleasantness,conservative,no,9,1,0.906225849829,-,-
2019_Oct_31,131,001,1,source,15,JOSTLED,LF,target,right,yellow,pleasantness,liberal,no,8,1,1.28264993086,-,-
2019_Oct_31,131,001,1,source,16,SEQUEL,LF,target,left,aqua,imageability,liberal,no,1,1,1.44730405276,-,-
2019_Oct_31,131,001,1,source,17,RINSING,LF,target,right,yellow,pleasantness,liberal,no,3,0,1.54151263104,-,-
2019_Oct_31,131,001,1,source,18,DERANGED,LF,target,right,yellow,pleasantness,liberal,no,9,1,1.75319203849,-,-
2019_Oct_31,131,001,1,source,19,AFTERNOON,HF,target,left,aqua,imageability,conservative,no,3,1,2.69444635894,-,-
2019_Oct_31,131,001,1,source,20,DEVELOPED,HF,target,left,aqua,imageability,liberal,no,2,1,1.55325832086,-,-
2019_Oct_31,131,001,1,source,21,QUALITY,HF,target,left,aqua,imageability,liberal,no,1,1,1.3883442753,-,-
2019_Oct_31,131,001,1,source,22,SNEAKED,LF,target,right,yellow,pleasantness,conservative,no,9,1,1.30594224342,-,-
2019_Oct_31,131,001,1,source,23,ABUSING,LF,target,left,aqua,imageability,liberal,no,2,1,1.68247703947,-,-
2019_Oct_31,131,001,1,source,24,CHURCH,HF,target,left,aqua,imageability,liberal,no,2,1,1.6708867906,-,-
2019_Oct_31,131,001,1,source,25,SUSPEND,LF,target,left,aqua,imageability,liberal,yes,3,1,1.18828297878,-,-
2019_Oct_31,131,001,1,source,26,DRYER,LF,target,left,aqua,imageability,conservative,no,1,1,1.15333332845,-,-
2019_Oct_31,131,001,1,source,27,WIPERS,LF,target,right,yellow,pleasantness,liberal,yes,3,0,0.717761034474,-,-
2019_Oct_31,131,001,1,source,28,HINDERED,LF,target,left,aqua,imageability,liberal,no,8,0,1.80035773414,-,-
2019_Oct_31,131,001,1,source,29,POSITION,HF,target,left,aqua,imageability,conservative,no,9,0,2.3179240275,-,-
2019_Oct_31,131,001,1,source,30,ASKED,HF,target,right,yellow,pleasantness,liberal,no,8,1,1.6472264056,-,-
2019_Oct_31,131,001,1,source,31,CRICKETER,LF,target,right,yellow,pleasantness,conservative,no,9,1,1.05903676472,-,-
2019_Oct_31,131,001,1,source,32,BLACK,HF,target,right,yellow,pleasantness,conservative,no,7,1,1.72971422329,-,-
2019_Oct_31,131,001,1,source,33,TRUTH,HF,target,left,aqua,imageability,liberal,no,1,1,1.6588793441,-,-
2019_Oct_31,131,001,1,source,34,ADDED,HF,target,left,aqua,imageability,liberal,no,3,1,1.02387081684,-,-
2019_Oct_31,131,001,1,source,35,EBONY,LF,target,right,yellow,pleasantness,liberal,no,9,1,0.847350391755,-,-
2019_Oct_31,131,001,1,source,36,DOGMAS,LF,target,left,aqua,imageability,conservative,no,2,1,2.45917768807,-,-
2019_Oct_31,131,001,1,source,37,ANNALS,LF,target,left,aqua,imageability,liberal,no,3,1,1.23559091756,-,-
2019_Oct_31,131,001,1,source,38,TASSELS,LF,target,left,aqua,imageability,conservative,yes,3,1,0.694401999616,-,-
2019_Oct_31,131,001,1,source,39,DIPLOMAS,LF,target,left,aqua,imageability,liberal,no,1,1,0.953186246115,-,-
2019_Oct_31,131,001,1,source,40,KIDNAP,LF,target,right,yellow,pleasantness,conservative,no,9,1,2.25911052585,-,-
2019_Oct_31,131,001,1,source,41,APRICOT,LF,target,right,yellow,pleasantness,conservative,no,7,1,1.14123569687,-,-
2019_Oct_31,131,001,1,source,42,MOPED,LF,target,left,aqua,imageability,conservative,no,7,0,1.0473519315,-,-
2019_Oct_31,131,001,1,source,43,BIBLES,LF,target,right,yellow,pleasantness,conservative,no,1,0,1.31792769356,-,-
2019_Oct_31,131,001,1,source,44,STOOD,HF,target,left,aqua,imageability,conservative,no,7,0,2.0239599021,-,-
2019_Oct_31,131,001,1,source,45,LONGER,HF,target,right,yellow,pleasantness,liberal,no,7,1,1.17697941581,-,-
2019_Oct_31,131,001,1,source,46,EDUCATION,HF,target,right,yellow,pleasantness,conservative,no,9,1,3.64726196639,-,-
2019_Oct_31,131,001,1,source,47,VANDALS,LF,target,left,aqua,imageability,conservative,no,7,0,1.20032525285,-,-
2019_Oct_31,131,001,1,recog,0,SEQUEL,LF,target,left,aqua,imageability,liberal,no,z,1,1.10620466,3,169
2019_Oct_31,131,001,1,recog,1,PIANOS,LF,lure,-,-,-,conservative,no,m,1,0.941736040743,3,172
2019_Oct_31,131,001,1,recog,2,SHUNNED,LF,target,left,aqua,imageability,conservative,no,z,1,0.68273183064,1,173
2019_Oct_31,131,001,1,recog,3,TONAL,LF,lure,-,-,-,conservative,no,m,1,0.823813186378,3,176
2019_Oct_31,131,001,1,recog,4,ERODE,LF,lure,-,-,-,conservative,no,m,1,1.02359292949,3,179
2019_Oct_31,131,001,1,recog,5,ALTHOUGH,HF,target,right,yellow,pleasantness,conservative,no,z,1,0.741460279705,1,180
2019_Oct_31,131,001,1,recog,6,GRUBS,LF,lure,-,-,-,conservative,no,m,1,1.67096157822,3,183
2019_Oct_31,131,001,1,recog,7,DRAFTING,LF,lure,-,-,-,liberal,no,m,1,0.847311531518,1,184
2019_Oct_31,131,001,1,recog,8,ALABASTER,LF,lure,-,-,-,conservative,no,m,1,0.917897118623,3,187
2019_Oct_31,131,001,1,recog,9,WIPERS,LF,target,right,yellow,pleasantness,liberal,no,m,0,0.95323353829,-3,184
2019_Oct_31,131,001,1,recog,10,UPROOTED,LF,lure,-,-,-,conservative,no,m,1,0.882568397682,3,187
2019_Oct_31,131,001,1,recog,11,SUDDENLY,HF,lure,-,-,-,conservative,no,m,1,0.764984653872,3,190
2019_Oct_31,131,001,1,recog,12,NEITHER,HF,lure,-,-,-,conservative,no,m,1,0.764927096729,3,193
2019_Oct_31,131,001,1,recog,13,COUNCIL,HF,lure,-,-,-,liberal,no,m,1,0.729618905725,1,194
2019_Oct_31,131,001,1,recog,14,WHETHER,HF,lure,-,-,-,liberal,no,m,1,0.729716056317,1,195
2019_Oct_31,131,001,1,recog,15,PREPARED,HF,target,right,yellow,pleasantness,liberal,no,z,1,0.670812736186,3,198
2019_Oct_31,131,001,1,recog,16,TOGETHER,HF,target,left,aqua,imageability,conservative,no,z,1,0.859078851086,1,199
2019_Oct_31,131,001,1,recog,17,TREES,HF,lure,-,-,-,conservative,no,m,1,0.635686748366,3,202
2019_Oct_31,131,001,1,recog,18,HINDERED,LF,target,left,aqua,imageability,liberal,no,z,1,0.694346275503,3,205
2019_Oct_31,131,001,1,recog,19,KIDNAP,LF,target,right,yellow,pleasantness,conservative,no,z,1,0.800059316852,1,206
2019_Oct_31,131,001,1,recog,20,TRIED,HF,lure,-,-,-,liberal,no,z,0,1.6473360208,-1,205
2019_Oct_31,131,001,1,recog,21,RATHER,HF,lure,-,-,-,liberal,no,m,1,0.823945531146,1,206
2019_Oct_31,131,001,1,recog,22,CHURCH,HF,target,left,aqua,imageability,liberal,no,z,1,0.788533224036,3,209
2019_Oct_31,131,001,1,recog,23,DOCTOR,HF,lure,-,-,-,liberal,no,m,1,1.31800028155,1,210
2019_Oct_31,131,001,1,recog,24,ENERGY,HF,lure,-,-,-,conservative,no,m,1,0.741490708005,3,213
2019_Oct_31,131,001,1,recog,25,BREAK,HF,lure,-,-,-,conservative,no,m,1,0.717982097895,3,216
2019_Oct_31,131,001,1,recog,26,EIGHT,HF,lure,-,-,-,liberal,no,m,1,0.906185889775,1,217
2019_Oct_31,131,001,1,recog,27,ANNALS,LF,target,left,aqua,imageability,liberal,no,z,1,0.659194625262,3,220
2019_Oct_31,131,001,1,recog,28,LESSENED,LF,lure,-,-,-,liberal,no,m,1,0.776757105924,1,221
2019_Oct_31,131,001,1,recog,29,BLACK,HF,target,right,yellow,pleasantness,conservative,no,z,1,1.01219624859,1,222
2019_Oct_31,131,001,1,recog,30,YOUNG,HF,target,left,aqua,imageability,conservative,no,z,1,0.553237424315,1,223
2019_Oct_31,131,001,1,recog,31,ROLLERS,LF,lure,-,-,-,liberal,no,m,1,0.753184339765,1,224
2019_Oct_31,131,001,1,recog,32,DOGMAS,LF,target,left,aqua,imageability,conservative,no,z,1,0.647295327532,1,225
2019_Oct_31,131,001,1,recog,33,PROBABLY,HF,lure,-,-,-,conservative,no,z,0,0.776788634041,-3,222
2019_Oct_31,131,001,1,recog,34,DARKEN,LF,lure,-,-,-,liberal,no,m,1,0.717921241298,1,223
2019_Oct_31,131,001,1,recog,35,UNWARY,LF,lure,-,-,-,conservative,no,m,1,0.776762238408,3,226
2019_Oct_31,131,001,1,recog,36,RIGGING,LF,lure,-,-,-,conservative,yes,m,1,0.612144410506,3,229
2019_Oct_31,131,001,1,recog,37,JEOPARDY,LF,lure,-,-,-,conservative,no,m,1,0.717897411909,3,232
2019_Oct_31,131,001,1,recog,38,APRICOT,LF,target,right,yellow,pleasantness,conservative,no,z,1,0.741431684437,1,233
2019_Oct_31,131,001,1,recog,39,QUESTION,HF,lure,-,-,-,liberal,no,m,1,0.729877362959,1,234
2019_Oct_31,131,001,1,recog,40,JOSTLED,LF,target,right,yellow,pleasantness,liberal,yes,m,0,0.564949386375,-3,231
2019_Oct_31,131,001,1,recog,41,LONGER,HF,target,right,yellow,pleasantness,liberal,yes,m,0,0.670848663574,-3,228
2019_Oct_31,131,001,1,recog,42,TRUTH,HF,target,left,aqua,imageability,liberal,no,z,1,1.15318155356,3,231
2019_Oct_31,131,001,1,recog,43,CRICKETER,LF,target,right,yellow,pleasantness,conservative,no,z,1,1.31803474252,1,232
2019_Oct_31,131,001,1,recog,44,ENGULF,LF,lure,-,-,-,liberal,no,m,1,0.764812715656,1,233
2019_Oct_31,131,001,1,recog,45,DERANGED,LF,target,right,yellow,pleasantness,liberal,no,z,1,0.717899611544,3,236
2019_Oct_31,131,001,1,recog,46,BUSINESS,HF,target,right,yellow,pleasantness,liberal,no,z,1,0.74164798198,3,239
2019_Oct_31,131,001,1,recog,47,TELEPHONE,HF,lure,-,-,-,conservative,yes,z,0,0.670965977496,-3,236
2019_Oct_31,131,001,1,recog,48,REDDENED,LF,lure,-,-,-,conservative,no,m,1,1.89451132153,3,239
2019_Oct_31,131,001,1,recog,49,ROUND,HF,lure,-,-,-,liberal,no,m,1,0.882672513789,1,240
2019_Oct_31,131,001,1,recog,50,VANDALS,LF,target,left,aqua,imageability,conservative,no,z,1,0.682547427819,1,241
2019_Oct_31,131,001,1,recog,51,VINEYARDS,LF,lure,-,-,-,liberal,no,m,1,0.788808545146,1,242
2019_Oct_31,131,001,1,recog,52,ALONE,HF,target,right,yellow,pleasantness,liberal,no,z,1,0.729478862231,3,245
2019_Oct_31,131,001,1,recog,53,HECTOR,LF,lure,-,-,-,liberal,no,m,1,0.741503905821,1,246
2019_Oct_31,131,001,1,recog,54,AFTERNOON,HF,target,left,aqua,imageability,conservative,no,z,1,0.788454037139,1,247
2019_Oct_31,131,001,1,recog,55,ALCHEMIST,LF,lure,-,-,-,liberal,no,m,1,0.788577216756,1,248
2019_Oct_31,131,001,1,recog,56,DIPLOMAS,LF,target,left,aqua,imageability,liberal,no,z,1,0.635519209422,3,251
2019_Oct_31,131,001,1,recog,57,BIBLES,LF,target,right,yellow,pleasantness,conservative,no,z,1,0.776805864523,1,252
2019_Oct_31,131,001,1,recog,58,NIGHT,HF,lure,-,-,-,liberal,no,m,1,1.52972954742,1,253
2019_Oct_31,131,001,1,recog,59,PIVOT,LF,lure,-,-,-,conservative,no,m,1,0.741521502909,3,256
2019_Oct_31,131,001,1,recog,60,EDUCATION,HF,target,right,yellow,pleasantness,conservative,no,z,1,0.741477143582,1,257
2019_Oct_31,131,001,1,recog,61,MOVED,HF,target,right,yellow,pleasantness,liberal,no,z,1,1.71808768043,3,260
2019_Oct_31,131,001,1,recog,62,ASKED,HF,target,right,yellow,pleasantness,liberal,no,z,1,0.764749292817,3,263
2019_Oct_31,131,001,1,recog,63,NOTHING,HF,lure,-,-,-,liberal,no,m,1,0.72958444476,1,264
2019_Oct_31,131,001,1,recog,64,LANGUAGE,HF,target,left,aqua,imageability,conservative,no,z,1,0.694455890699,1,265
2019_Oct_31,131,001,1,recog,65,MOPED,LF,target,left,aqua,imageability,conservative,no,z,1,1.12967770933,1,266
2019_Oct_31,131,001,1,recog,66,MILES,HF,lure,-,-,-,liberal,no,m,1,0.741508305092,1,267
2019_Oct_31,131,001,1,recog,67,BALDING,LF,lure,-,-,-,liberal,no,m,1,1.71792527396,1,268
2019_Oct_31,131,001,1,recog,68,ADDED,HF,target,left,aqua,imageability,liberal,no,z,1,0.717950936385,3,271
2019_Oct_31,131,001,1,recog,69,BIGNESS,LF,target,right,yellow,pleasantness,liberal,no,z,1,0.764985387084,3,274
2019_Oct_31,131,001,1,recog,70,SUSPEND,LF,target,left,aqua,imageability,liberal,no,m,0,0.953258467499,-3,271
2019_Oct_31,131,001,1,recog,71,RINSING,LF,target,right,yellow,pleasantness,liberal,no,z,1,1.31793209284,3,274
2019_Oct_31,131,001,1,recog,72,DREADING,LF,lure,-,-,-,liberal,no,m,1,0.72965519972,1,275
2019_Oct_31,131,001,1,recog,73,LOCAL,HF,target,right,yellow,pleasantness,conservative,no,m,0,0.941473917449,-1,274
2019_Oct_31,131,001,1,recog,74,DRYER,LF,target,left,aqua,imageability,conservative,no,z,1,0.588617836702,1,275
2019_Oct_31,131,001,1,recog,75,ABUSING,LF,target,left,aqua,imageability,liberal,no,z,1,0.635632857284,3,278
2019_Oct_31,131,001,1,recog,76,TASSELS,LF,target,left,aqua,imageability,conservative,no,z,1,0.659098941095,1,279
2019_Oct_31,131,001,1,recog,77,DEVELOPED,HF,target,left,aqua,imageability,liberal,no,z,1,2.23558175241,3,282
2019_Oct_31,131,001,1,recog,78,MEETING,HF,lure,-,-,-,conservative,no,m,1,0.682452476864,3,285
2019_Oct_31,131,001,1,recog,79,SERIOUS,HF,lure,-,-,-,conservative,no,m,1,0.882449983942,3,288
2019_Oct_31,131,001,1,recog,80,TIMES,HF,lure,-,-,-,conservative,no,m,1,0.776693683086,3,291
2019_Oct_31,131,001,1,recog,81,LIKELY,HF,lure,-,-,-,liberal,no,m,1,0.764760657603,1,292
2019_Oct_31,131,001,1,recog,82,ACROSS,HF,lure,-,-,-,conservative,no,m,1,0.729660698809,3,295
2019_Oct_31,131,001,1,recog,83,QUALITY,HF,target,left,aqua,imageability,liberal,no,z,1,0.729672063595,3,298
2019_Oct_31,131,001,1,recog,84,POSITION,HF,target,left,aqua,imageability,conservative,no,z,1,1.76487100601,1,299
2019_Oct_31,131,001,1,recog,85,PLACE,HF,target,right,yellow,pleasantness,conservative,no,z,1,0.800237120764,1,300
2019_Oct_31,131,001,1,recog,86,CALLED,HF,lure,-,-,-,conservative,no,m,1,0.835693787201,3,303
2019_Oct_31,131,001,1,recog,87,SYMBOLIZE,LF,lure,-,-,-,liberal,no,m,1,0.788464302107,1,304
2019_Oct_31,131,001,1,recog,88,SNEAKED,LF,target,right,yellow,pleasantness,conservative,no,z,1,0.859084716782,1,305
2019_Oct_31,131,001,1,recog,89,ENFORCING,LF,lure,-,-,-,conservative,no,m,1,0.776759305561,3,308
2019_Oct_31,131,001,1,recog,90,STOOD,HF,target,left,aqua,imageability,conservative,no,z,1,1.60029717083,1,309
2019_Oct_31,131,001,1,recog,91,TWENTY,HF,target,left,aqua,imageability,liberal,no,z,1,1.10622372351,3,312
2019_Oct_31,131,001,1,recog,92,EBONY,LF,target,right,yellow,pleasantness,liberal,no,z,1,0.706238607719,3,315
2019_Oct_31,131,001,1,recog,93,VALUE,HF,target,right,yellow,pleasantness,conservative,no,z,1,2.36483823143,1,316
2019_Oct_31,131,001,1,recog,94,ORIGINALS,LF,target,right,yellow,pleasantness,conservative,no,z,1,1.57679039375,1,317
2019_Oct_31,131,001,1,recog,95,RENAMED,LF,lure,-,-,-,liberal,no,m,1,0.835664458721,1,318
2019_Oct_31,131,001,2,source,0,WESTERN,HF,target,right,yellow,pleasantness,conservative,no,2,0,1.49444958508,-,-
2019_Oct_31,131,001,2,source,1,BULBOUS,LF,target,right,yellow,pleasantness,liberal,yes,2,0,0.694346275503,-,-
2019_Oct_31,131,001,2,source,2,COVER,HF,target,left,aqua,imageability,conservative,no,1,1,1.41202519023,-,-
2019_Oct_31,131,001,2,source,3,APPEARED,HF,target,right,yellow,pleasantness,conservative,no,8,1,1.75326939236,-,-
2019_Oct_31,131,001,2,source,4,LODGERS,LF,target,left,aqua,imageability,liberal,no,8,0,0.87098694736,-,-
2019_Oct_31,131,001,2,source,5,SENSE,HF,target,left,aqua,imageability,liberal,no,1,1,2.14149012143,-,-
2019_Oct_31,131,001,2,source,6,EMACIATED,LF,target,left,aqua,imageability,liberal,yes,7,0,0.753288822477,-,-
2019_Oct_31,131,001,2,source,7,PLODDED,LF,target,right,yellow,pleasantness,liberal,yes,7,1,0.470840891528,-,-
2019_Oct_31,131,001,2,source,8,EAVES,LF,target,right,yellow,pleasantness,conservative,no,7,1,0.964940734473,-,-
2019_Oct_31,131,001,2,source,9,JUROR,LF,target,left,aqua,imageability,liberal,no,1,1,1.8238021882,-,-
2019_Oct_31,131,001,2,source,10,WARDROBES,LF,target,right,yellow,pleasantness,conservative,no,7,1,1.44711891672,-,-
2019_Oct_31,131,001,2,source,11,ROOFED,LF,target,right,yellow,pleasantness,liberal,no,8,1,2.08246728775,-,-
2019_Oct_31,131,001,2,source,12,PEACEABLY,LF,target,left,aqua,imageability,liberal,no,2,1,2.42390322481,-,-
2019_Oct_31,131,001,2,source,13,LABOUR,HF,target,right,yellow,pleasantness,liberal,no,9,1,2.17686393491,-,-
2019_Oct_31,131,001,2,source,14,ALMOST,HF,target,left,aqua,imageability,conservative,no,1,1,1.64741960697,-,-
2019_Oct_31,131,001,2,source,15,LUCERNE,LF,target,left,aqua,imageability,conservative,no,3,1,1.35334073389,-,-
2019_Oct_31,131,001,2,source,16,HIMSELF,HF,target,left,aqua,imageability,liberal,no,1,1,1.15323801088,-,-
2019_Oct_31,131,001,2,source,17,EVOCATION,LF,target,right,yellow,pleasantness,conservative,no,7,1,1.3647993712,-,-
2019_Oct_31,131,001,2,source,18,FAMILY,HF,target,right,yellow,pleasantness,liberal,no,1,0,1.62388056856,-,-
2019_Oct_31,131,001,2,source,19,SABLE,LF,target,left,aqua,imageability,conservative,no,1,1,2.10624388684,-,-
2019_Oct_31,131,001,2,source,20,OTHERS,HF,target,right,yellow,pleasantness,liberal,no,9,1,1.90618845602,-,-
2019_Oct_31,131,001,2,source,21,MAKES,HF,target,left,aqua,imageability,conservative,no,3,1,2.0356311709,-,-
2019_Oct_31,131,001,2,source,22,ANYONE,HF,target,right,yellow,pleasantness,liberal,no,9,1,0.906192855289,-,-
2019_Oct_31,131,001,2,source,23,HARDLY,HF,target,left,aqua,imageability,conservative,no,1,1,1.88270624154,-,-
2019_Oct_31,131,001,2,source,24,TYCOONS,LF,target,right,yellow,pleasantness,conservative,no,9,1,1.08258276864,-,-
2019_Oct_31,131,001,2,source,25,FUNNILY,LF,target,left,aqua,imageability,conservative,no,1,1,1.63535790278,-,-
2019_Oct_31,131,001,2,source,26,PSEUDONYM,LF,target,right,yellow,pleasantness,conservative,no,9,1,2.05893521485,-,-
2019_Oct_31,131,001,2,source,27,WANTED,HF,target,right,yellow,pleasantness,liberal,no,7,1,1.14145456065,-,-
2019_Oct_31,131,001,2,source,28,IRRIGATED,LF,target,left,aqua,imageability,liberal,no,1,1,1.20009245803,-,-
2019_Oct_31,131,001,2,source,29,GYMKHANA,LF,target,right,yellow,pleasantness,liberal,no,7,1,1.11789975819,-,-
2019_Oct_31,131,001,2,source,30,ANSWER,HF,target,right,yellow,pleasantness,conservative,no,1,0,2.10620319358,-,-
2019_Oct_31,131,001,2,source,31,OUGHT,HF,target,left,aqua,imageability,conservative,no,7,0,2.09424450568,-,-
2019_Oct_31,131,001,2,source,32,FREEDOM,HF,target,left,aqua,imageability,liberal,no,1,1,0.882387660921,-,-
2019_Oct_31,131,001,2,source,33,CASES,HF,target,right,yellow,pleasantness,conservative,no,9,1,0.847293201218,-,-
2019_Oct_31,131,001,2,source,34,EXHALED,LF,target,left,aqua,imageability,conservative,no,1,1,0.72969186032,-,-
2019_Oct_31,131,001,2,source,35,KIBBUTZIM,LF,target,right,yellow,pleasantness,liberal,no,3,0,0.870614475658,-,-
2019_Oct_31,131,001,2,source,36,LIGHT,HF,target,left,aqua,imageability,liberal,no,1,1,2.45909593493,-,-
2019_Oct_31,131,001,2,source,37,WALKED,HF,target,right,yellow,pleasantness,liberal,no,7,1,2.65911067249,-,-
2019_Oct_31,131,001,2,source,38,SUCCESS,HF,target,right,yellow,pleasantness,conservative,no,9,1,2.65900105729,-,-
2019_Oct_31,131,001,2,source,39,UNKEMPT,LF,target,left,aqua,imageability,liberal,no,1,1,1.18850477541,-,-
2019_Oct_31,131,001,2,source,40,HADJI,LF,target,left,aqua,imageability,conservative,no,3,1,1.00030171674,-,-
2019_Oct_31,131,001,2,source,41,ALREADY,HF,target,left,aqua,imageability,conservative,no,3,1,1.12949440632,-,-
2019_Oct_31,131,001,2,source,42,SUPPORT,HF,target,right,yellow,pleasantness,conservative,yes,3,0,0.61178330359,-,-
2019_Oct_31,131,001,2,source,43,LEVEL,HF,target,left,aqua,imageability,liberal,no,7,0,2.88250717448,-,-
2019_Oct_31,131,001,2,source,44,REACHED,HF,target,left,aqua,imageability,liberal,no,1,1,1.40029746411,-,-
2019_Oct_31,131,001,2,source,45,FISHY,LF,target,left,aqua,imageability,conservative,no,1,1,1.10617056564,-,-
2019_Oct_31,131,001,2,source,46,ENLIGHTEN,LF,target,right,yellow,pleasantness,conservative,no,9,1,1.76483067935,-,-
2019_Oct_31,131,001,2,source,47,TULIPS,LF,target,right,yellow,pleasantness,liberal,no,9,1,1.5530775841,-,-
2019_Oct_31,131,001,2,recog,0,GYMKHANA,LF,target,right,yellow,pleasantness,liberal,no,z,1,1.11791992152,3,321
2019_Oct_31,131,001,2,recog,1,FUNNILY,LF,target,left,aqua,imageability,conservative,no,z,1,0.659056048193,1,322
2019_Oct_31,131,001,2,recog,2,LETTER,HF,lure,-,-,-,conservative,no,z,0,0.894438733537,-3,319
2019_Oct_31,131,001,2,recog,3,OUGHT,HF,target,left,aqua,imageability,conservative,no,z,1,0.682581155572,1,320
2019_Oct_31,131,001,2,recog,4,RUINOUS,LF,lure,-,-,-,conservative,no,m,1,0.729731820375,3,323
2019_Oct_31,131,001,2,recog,5,EASILY,HF,lure,-,-,-,conservative,no,m,1,0.870792279571,3,326
2019_Oct_31,131,001,2,recog,6,PLODDED,LF,target,right,yellow,pleasantness,liberal,no,m,0,0.84742151332,-3,323
2019_Oct_31,131,001,2,recog,7,SABLE,LF,target,left,aqua,imageability,conservative,no,z,1,0.635578599594,1,324
2019_Oct_31,131,001,2,recog,8,BULBOUS,LF,target,right,yellow,pleasantness,liberal,no,z,1,0.741268911371,3,327
2019_Oct_31,131,001,2,recog,9,REACHED,HF,target,left,aqua,imageability,liberal,no,z,1,0.682712767128,3,330
2019_Oct_31,131,001,2,recog,10,ALLOWED,HF,lure,-,-,-,liberal,no,m,1,0.858848989121,1,331
2019_Oct_31,131,001,2,recog,11,WALKED,HF,target,right,yellow,pleasantness,liberal,no,z,1,0.929669570674,3,334
2019_Oct_31,131,001,2,recog,12,BLOOD,HF,lure,-,-,-,conservative,no,m,1,0.68285940953,3,337
2019_Oct_31,131,001,2,recog,13,SLIGHTLY,HF,lure,-,-,-,conservative,no,m,1,0.811932585555,3,340
2019_Oct_31,131,001,2,recog,14,SOVIET,HF,lure,-,-,-,liberal,no,m,1,0.671023168033,1,341
2019_Oct_31,131,001,2,recog,15,LABOUR,HF,target,right,yellow,pleasantness,liberal,no,z,1,0.588511154355,3,344
2019_Oct_31,131,001,2,recog,16,LIGHT,HF,target,left,aqua,imageability,liberal,no,z,1,0.647366815704,3,347
2019_Oct_31,131,001,2,recog,17,GLEANED,LF,lure,-,-,-,conservative,no,m,1,0.74140308917,3,350
2019_Oct_31,131,001,2,recog,18,SPOKE,HF,lure,-,-,-,conservative,no,m,1,1.03532908755,3,353
2019_Oct_31,131,001,2,recog,19,WANTED,HF,target,right,yellow,pleasantness,liberal,no,z,1,0.682575289875,3,356
2019_Oct_31,131,001,2,recog,20,FUMING,LF,lure,-,-,-,liberal,no,m,1,0.647342619708,1,357
2019_Oct_31,131,001,2,recog,21,SLEEP,HF,lure,-,-,-,conservative,no,m,1,0.741424718924,3,360
2019_Oct_31,131,001,2,recog,22,DEGREE,HF,lure,-,-,-,liberal,no,m,1,0.76497108945,1,361
2019_Oct_31,131,001,2,recog,23,ITSELF,HF,lure,-,-,-,liberal,no,m,1,0.647327222256,1,362
2019_Oct_31,131,001,2,recog,24,CADDIE,LF,lure,-,-,-,conservative,no,m,1,1.01204227407,3,365
2019_Oct_31,131,001,2,recog,25,APPEARED,HF,target,right,yellow,pleasantness,conservative,no,z,1,0.576685544432,1,366
2019_Oct_31,131,001,2,recog,26,ANSWER,HF,target,right,yellow,pleasantness,conservative,no,z,1,0.670881291509,1,367
2019_Oct_31,131,001,2,recog,27,CASES,HF,target,right,yellow,pleasantness,conservative,no,z,1,0.541518863345,1,368
2019_Oct_31,131,001,2,recog,28,LODGERS,LF,target,left,aqua,imageability,liberal,no,z,1,0.659154665208,3,371
2019_Oct_31,131,001,2,recog,29,JUROR,LF,target,left,aqua,imageability,liberal,no,z,1,0.611994102043,3,374
2019_Oct_31,131,001,2,recog,30,RAVAGES,LF,lure,-,-,-,liberal,no,z,0,1.01177575151,-1,373
2019_Oct_31,131,001,2,recog,31,HEALTH,HF,lure,-,-,-,conservative,no,m,1,0.823848013948,3,376
2019_Oct_31,131,001,2,recog,32,ELICIT,LF,lure,-,-,-,conservative,no,m,1,0.741256446766,3,379
2019_Oct_31,131,001,2,recog,33,EXHALED,LF,target,left,aqua,imageability,conservative,no,z,1,0.600227882293,1,380
2019_Oct_31,131,001,2,recog,34,NEBULOUS,LF,lure,-,-,-,liberal,no,m,1,0.788259735956,1,381
2019_Oct_31,131,001,2,recog,35,SUCCESS,HF,target,right,yellow,pleasantness,conservative,yes,m,0,0.600236314231,-1,380
2019_Oct_31,131,001,2,recog,36,ALMOST,HF,target,left,aqua,imageability,conservative,no,z,1,2.14155281106,1,381
2019_Oct_31,131,001,2,recog,37,KIBBUTZIM,LF,target,right,yellow,pleasantness,liberal,yes,m,0,0.576769497207,-3,378
2019_Oct_31,131,001,2,recog,38,WADDLED,LF,lure,-,-,-,conservative,no,m,1,0.835285388112,3,381
2019_Oct_31,131,001,2,recog,39,SAYING,HF,lure,-,-,-,liberal,no,m,1,0.800326939237,1,382
2019_Oct_31,131,001,2,recog,40,OTHERS,HF,target,right,yellow,pleasantness,liberal,no,z,1,0.953301727008,3,385
2019_Oct_31,131,001,2,recog,41,LEVEL,HF,target,left,aqua,imageability,liberal,no,z,1,2.21203464867,3,388
2019_Oct_31,131,001,2,recog,42,SUPPORT,HF,target,right,yellow,pleasantness,conservative,no,z,1,1.76480538354,1,389
2019_Oct_31,131,001,2,recog,43,TYCOONS,LF,target,right,yellow,pleasantness,conservative,no,z,1,0.647329788498,1,390
2019_Oct_31,131,001,2,recog,44,NINETIES,LF,lure,-,-,-,conservative,no,m,1,0.611954141988,3,393
2019_Oct_31,131,001,2,recog,45,HIMSELF,HF,target,left,aqua,imageability,liberal,no,z,1,0.635548171295,3,396
2019_Oct_31,131,001,2,recog,46,EVOCATION,LF,target,right,yellow,pleasantness,conservative,no,z,1,0.65886174701,1,397
2019_Oct_31,131,001,2,recog,47,CACOPHONY,LF,lure,-,-,-,conservative,no,m,1,0.705994081512,3,400
2019_Oct_31,131,001,2,recog,48,EMACIATED,LF,target,left,aqua,imageability,liberal,no,m,0,1.03543540329,-3,397
2019_Oct_31,131,001,2,recog,49,ALREADY,HF,target,left,aqua,imageability,conservative,no,z,1,0.800346002748,1,398
2019_Oct_31,131,001,2,recog,50,DOING,HF,lure,-,-,-,liberal,no,m,1,0.612049459549,1,399
2019_Oct_31,131,001,2,recog,51,HUNDRED,HF,lure,-,-,-,liberal,no,m,1,1.05906096071,1,400
2019_Oct_31,131,001,2,recog,52,NERVY,LF,lure,-,-,-,conservative,no,m,1,0.800307509117,3,403
2019_Oct_31,131,001,2,recog,53,FISHY,LF,target,left,aqua,imageability,conservative,no,z,1,0.68274282882,1,404
2019_Oct_31,131,001,2,recog,54,WESTERN,HF,target,right,yellow,pleasantness,conservative,no,z,1,0.623806514149,1,405
2019_Oct_31,131,001,2,recog,55,COVER,HF,target,left,aqua,imageability,conservative,no,z,1,0.565008776548,1,406
2019_Oct_31,131,001,2,recog,56,EAVES,LF,target,right,yellow,pleasantness,conservative,no,z,1,0.682614883323,1,407
2019_Oct_31,131,001,2,recog,57,ROTARY,LF,lure,-,-,-,conservative,no,m,1,0.706333192068,3,410
2019_Oct_31,131,001,2,recog,58,OBVIOUSLY,HF,lure,-,-,-,conservative,no,m,1,1.14157077476,3,413
2019_Oct_31,131,001,2,recog,59,WARDROBES,LF,target,right,yellow,pleasantness,conservative,yes,m,0,0.70612642628,-1,412
2019_Oct_31,131,001,2,recog,60,HADJI,LF,target,left,aqua,imageability,conservative,no,z,1,0.753235664605,1,413
2019_Oct_31,131,001,2,recog,61,CAUGHT,HF,lure,-,-,-,conservative,no,z,0,1.25911675815,-3,410
2019_Oct_31,131,001,2,recog,62,EUPHEMISM,LF,lure,-,-,-,conservative,no,m,1,1.22385036023,3,413
2019_Oct_31,131,001,2,recog,63,LUCERNE,LF,target,left,aqua,imageability,conservative,no,z,1,0.870651136259,1,414
2019_Oct_31,131,001,2,recog,64,TOXICITY,LF,lure,-,-,-,liberal,no,m,1,0.682337729184,1,415
2019_Oct_31,131,001,2,recog,65,HARDLY,HF,target,left,aqua,imageability,conservative,no,z,1,0.929625577955,1,416
2019_Oct_31,131,001,2,recog,66,UNKEMPT,LF,target,left,aqua,imageability,liberal,no,z,1,0.623827410691,3,419
2019_Oct_31,131,001,2,recog,67,SENSE,HF,target,left,aqua,imageability,liberal,no,z,1,0.659110672488,3,422
2019_Oct_31,131,001,2,recog,68,UPSTART,LF,lure,-,-,-,liberal,no,m,1,0.717691012726,1,423
2019_Oct_31,131,001,2,recog,69,BEAUTIFUL,HF,lure,-,-,-,liberal,no,m,1,0.71787614876,1,424
2019_Oct_31,131,001,2,recog,70,FALCON,LF,lure,-,-,-,liberal,no,m,1,0.765030113017,1,425
2019_Oct_31,131,001,2,recog,71,KRAALS,LF,lure,-,-,-,liberal,no,m,1,0.529773540138,1,426
2019_Oct_31,131,001,2,recog,72,PAYOFF,LF,lure,-,-,-,conservative,no,m,1,0.764840577712,3,429
2019_Oct_31,131,001,2,recog,73,ANYONE,HF,target,right,yellow,pleasantness,liberal,no,z,1,0.776706514296,3,432
2019_Oct_31,131,001,2,recog,74,SCHOOL,HF,lure,-,-,-,liberal,no,z,0,1.05915554506,-1,431
2019_Oct_31,131,001,2,recog,75,FORCE,HF,lure,-,-,-,liberal,no,m,1,1.08268028584,1,432
2019_Oct_31,131,001,2,recog,76,VISCOUS,LF,lure,-,-,-,liberal,no,m,1,0.753189472248,1,433
2019_Oct_31,131,001,2,recog,77,MYSELF,HF,lure,-,-,-,conservative,no,z,0,0.776788267434,-3,430
2019_Oct_31,131,001,2,recog,78,TWOFOLD,LF,lure,-,-,-,liberal,no,m,1,0.764951292726,1,431
2019_Oct_31,131,001,2,recog,79,ENLIGHTEN,LF,target,right,yellow,pleasantness,conservative,no,z,1,0.74119559017,1,432
2019_Oct_31,131,001,2,recog,80,FAMILY,HF,target,right,yellow,pleasantness,liberal,no,z,1,0.729480328655,3,435
2019_Oct_31,131,001,2,recog,81,CHEEKBONE,LF,lure,-,-,-,liberal,yes,m,1,0.812081427594,1,436
2019_Oct_31,131,001,2,recog,82,JOWLS,LF,lure,-,-,-,liberal,no,m,1,0.847362123147,1,437
2019_Oct_31,131,001,2,recog,83,PAPER,HF,lure,-,-,-,conservative,no,m,1,0.788537256702,3,440
2019_Oct_31,131,001,2,recog,84,MAKES,HF,target,left,aqua,imageability,conservative,no,z,1,0.800207059072,1,441
2019_Oct_31,131,001,2,recog,85,OCTAGONAL,LF,lure,-,-,-,conservative,no,m,1,0.788463568894,3,444
2019_Oct_31,131,001,2,recog,86,IRRIGATED,LF,target,left,aqua,imageability,liberal,no,z,1,0.706189115907,3,447
2019_Oct_31,131,001,2,recog,87,TURNED,HF,lure,-,-,-,conservative,no,m,1,0.835303718412,3,450
2019_Oct_31,131,001,2,recog,88,ROOFED,LF,target,right,yellow,pleasantness,liberal,no,z,1,0.682490237283,3,453
2019_Oct_31,131,001,2,recog,89,APART,HF,lure,-,-,-,liberal,no,z,0,1.56496258419,-1,452
2019_Oct_31,131,001,2,recog,90,PEACEABLY,LF,target,left,aqua,imageability,liberal,no,z,1,0.729639069055,3,455
2019_Oct_31,131,001,2,recog,91,WHOLE,HF,lure,-,-,-,liberal,no,m,1,0.753015701002,1,456
2019_Oct_31,131,001,2,recog,92,PSEUDONYM,LF,target,right,yellow,pleasantness,conservative,no,z,1,0.753190572066,1,457
2019_Oct_31,131,001,2,recog,93,UPTIGHT,LF,lure,-,-,-,liberal,no,m,1,0.800228688826,1,458
2019_Oct_31,131,001,2,recog,94,FREEDOM,HF,target,left,aqua,imageability,liberal,no,z,1,0.741524069151,3,461
2019_Oct_31,131,001,2,recog,95,TULIPS,LF,target,right,yellow,pleasantness,liberal,no,z,1,0.741523702545,3,464
2019_Oct_31,131,001,3,source,0,GIVEN,HF,target,left,aqua,imageability,conservative,no,3,1,1.58854781495,-,-
2019_Oct_31,131,001,3,source,1,COLDEST,LF,target,right,yellow,pleasantness,conservative,yes,3,0,0.6474397703,-,-
2019_Oct_31,131,001,3,source,2,JOTTED,LF,target,left,aqua,imageability,conservative,no,7,0,0.976813269965,-,-
2019_Oct_31,131,001,3,source,3,WOBBLE,LF,target,right,yellow,pleasantness,liberal,no,7,1,0.847495201127,-,-
2019_Oct_31,131,001,3,source,4,ECLECTIC,LF,target,left,aqua,imageability,conservative,no,3,1,1.00029365141,-,-
2019_Oct_31,131,001,3,source,5,SACRAMENT,LF,target,left,aqua,imageability,liberal,no,2,1,1.52963936234,-,-
2019_Oct_31,131,001,3,source,6,FURTHER,HF,target,right,yellow,pleasantness,conservative,no,8,1,1.01207013613,-,-
2019_Oct_31,131,001,3,source,7,TUMBLER,LF,target,right,yellow,pleasantness,conservative,no,9,1,2.18851210753,-,-
2019_Oct_31,131,001,3,source,8,EVIDENCE,HF,target,left,aqua,imageability,liberal,no,1,1,0.682809917718,-,-
2019_Oct_31,131,001,3,source,9,POTASH,LF,target,left,aqua,imageability,conservative,no,3,1,1.22376384121,-,-
2019_Oct_31,131,001,3,source,10,FINAL,HF,target,left,aqua,imageability,conservative,no,1,1,2.17674442136,-,-
2019_Oct_31,131,001,3,source,11,INORGANIC,LF,target,left,aqua,imageability,liberal,no,1,1,1.44720836859,-,-
2019_Oct_31,131,001,3,source,12,OUTSIDE,HF,target,right,yellow,pleasantness,liberal,no,8,1,1.56492445717,-,-
2019_Oct_31,131,001,3,source,13,HIVES,LF,target,right,yellow,pleasantness,liberal,no,9,1,0.800123839509,-,-
2019_Oct_31,131,001,3,source,14,SIMILAR,HF,target,right,yellow,pleasantness,liberal,no,3,0,1.45911683147,-,-
2019_Oct_31,131,001,3,source,15,PIECE,HF,target,left,aqua,imageability,liberal,no,1,1,1.4355986896,-,-
2019_Oct_31,131,001,3,source,16,TOWARDS,HF,target,right,yellow,pleasantness,conservative,no,8,1,1.95306269989,-,-
2019_Oct_31,131,001,3,source,17,MEMBERS,HF,target,right,yellow,pleasantness,conservative,no,9,1,0.917888686685,-,-
2019_Oct_31,131,001,3,source,18,WHITE,HF,target,left,aqua,imageability,liberal,no,1,1,1.55319673105,-,-
2019_Oct_31,131,001,3,source,19,PAWNS,LF,target,left,aqua,imageability,conservative,no,3,1,1.04736366289,-,-
2019_Oct_31,131,001,3,source,20,DAMASK,LF,target,right,yellow,pleasantness,conservative,no,3,0,1.41181989087,-,-
2019_Oct_31,131,001,3,source,21,LEGALITY,LF,target,right,yellow,pleasantness,liberal,no,9,1,0.835640629331,-,-
2019_Oct_31,131,001,3,source,22,MAJOR,HF,target,left,aqua,imageability,conservative,yes,8,0,0.706010578782,-,-
2019_Oct_31,131,001,3,source,23,OPENED,HF,target,right,yellow,pleasantness,liberal,no,7,1,2.3179056972,-,-
2019_Oct_31,131,001,3,source,24,BOLDNESS,LF,target,left,aqua,imageability,conservative,no,1,1,1.96502945313,-,-
2019_Oct_31,131,001,3,source,25,KIMONO,LF,target,left,aqua,imageability,liberal,no,2,1,1.01211339564,-,-
2019_Oct_31,131,001,3,source,26,ELUDE,LF,target,right,yellow,pleasantness,conservative,no,9,1,1.32944718747,-,-
2019_Oct_31,131,001,3,source,27,GERANIUMS,LF,target,left,aqua,imageability,conservative,no,7,0,0.988648778249,-,-
2019_Oct_31,131,001,3,source,28,UNCANNILY,LF,target,right,yellow,pleasantness,conservative,no,9,1,1.78853212422,-,-
2019_Oct_31,131,001,3,source,29,BELIEVE,HF,target,right,yellow,pleasantness,conservative,no,8,1,1.7532169677,-,-
2019_Oct_31,131,001,3,source,30,MAYBE,HF,target,right,yellow,pleasantness,liberal,no,9,1,1.64731952353,-,-
2019_Oct_31,131,001,3,source,31,UNTIL,HF,target,left,aqua,imageability,liberal,no,3,1,1.05907379192,-,-
2019_Oct_31,131,001,3,source,32,REUNITED,LF,target,right,yellow,pleasantness,liberal,no,9,1,0.918023231089,-,-
2019_Oct_31,131,001,3,source,33,SMALL,HF,target,right,yellow,pleasantness,conservative,no,1,0,2.60042731596,-,-
2019_Oct_31,131,001,3,source,34,DIDACTIC,LF,target,right,yellow,pleasantness,conservative,no,9,1,1.21176262701,-,-
2019_Oct_31,131,001,3,source,35,SPACE,HF,target,right,yellow,pleasantness,liberal,no,9,1,1.98860698516,-,-
2019_Oct_31,131,001,3,source,36,HIGHER,HF,target,left,aqua,imageability,liberal,no,1,1,1.81202313724,-,-
2019_Oct_31,131,001,3,source,37,SNOBBISH,LF,target,left,aqua,imageability,liberal,yes,3,1,0.917901517895,-,-
2019_Oct_31,131,001,3,source,38,GUILDHALL,LF,target,left,aqua,imageability,liberal,no,7,0,3.1414816895,-,-
2019_Oct_31,131,001,3,source,39,LAXATIVE,LF,target,left,aqua,imageability,liberal,no,1,1,1.0944230428,-,-
2019_Oct_31,131,001,3,source,40,PUBLIC,HF,target,left,aqua,imageability,liberal,no,3,1,1.16501376239,-,-
2019_Oct_31,131,001,3,source,41,CHLORIDE,LF,target,right,yellow,pleasantness,liberal,no,9,1,1.08244052551,-,-
2019_Oct_31,131,001,3,source,42,SHORT,HF,target,right,yellow,pleasantness,liberal,no,9,1,1.97654894703,-,-
2019_Oct_31,131,001,3,source,43,CONCERNED,HF,target,left,aqua,imageability,conservative,no,1,1,1.16494630688,-,-
2019_Oct_31,131,001,3,source,44,ANIMAL,HF,target,left,aqua,imageability,conservative,yes,2,1,0.682653010348,-,-
2019_Oct_31,131,001,3,source,45,BEDLAM,LF,target,right,yellow,pleasantness,liberal,no,3,0,1.37675475965,-,-
2019_Oct_31,131,001,3,source,46,ENOUGH,HF,target,right,yellow,pleasantness,conservative,no,7,1,1.80045488473,-,-
2019_Oct_31,131,001,3,source,47,WRITE,HF,target,left,aqua,imageability,conservative,no,1,1,1.63538319859,-,-
2019_Oct_31,131,001,3,recog,0,FIELD,HF,lure,-,-,-,liberal,no,m,1,1.10617203207,1,465
2019_Oct_31,131,001,3,recog,1,SNIGGERED,LF,lure,-,-,-,conservative,no,m,1,0.776759305561,3,468
2019_Oct_31,131,001,3,recog,2,LIZARD,LF,lure,-,-,-,conservative,no,m,1,0.623858938808,3,471
2019_Oct_31,131,001,3,recog,3,BEDLAM,LF,target,right,yellow,pleasantness,liberal,yes,m,0,0.541528028496,-3,468
2019_Oct_31,131,001,3,recog,4,RECENT,HF,lure,-,-,-,liberal,no,m,1,0.764942494182,1,469
2019_Oct_31,131,001,3,recog,5,ENOUGH,HF,target,right,yellow,pleasantness,conservative,no,z,1,0.623851240081,1,470
2019_Oct_31,131,001,3,recog,6,HOEING,LF,lure,-,-,-,liberal,no,m,1,0.670807237096,1,471
2019_Oct_31,131,001,3,recog,7,GLASS,HF,lure,-,-,-,liberal,no,m,1,0.647290928261,1,472
2019_Oct_31,131,001,3,recog,8,REUNITED,LF,target,right,yellow,pleasantness,liberal,no,z,1,0.564747386466,3,475
2019_Oct_31,131,001,3,recog,9,ANIMAL,HF,target,left,aqua,imageability,conservative,no,z,1,0.870815009143,1,476
2019_Oct_31,131,001,3,recog,10,SIMILAR,HF,target,right,yellow,pleasantness,liberal,no,z,1,0.612025996765,3,479
2019_Oct_31,131,001,3,recog,11,HIGHER,HF,target,left,aqua,imageability,liberal,no,z,1,0.706366553214,3,482
2019_Oct_31,131,001,3,recog,12,EGOISM,LF,lure,-,-,-,conservative,no,m,1,0.647247668752,3,485
2019_Oct_31,131,001,3,recog,13,MAYBE,HF,target,right,yellow,pleasantness,liberal,no,z,1,0.635589597775,3,488
2019_Oct_31,131,001,3,recog,14,WHITE,HF,target,left,aqua,imageability,liberal,no,z,1,0.611974305318,3,491
2019_Oct_31,131,001,3,recog,15,UNDER,HF,lure,-,-,-,conservative,no,m,1,0.764956058604,3,494
2019_Oct_31,131,001,3,recog,16,POTASH,LF,target,left,aqua,imageability,conservative,no,z,1,0.659089775945,1,495
2019_Oct_31,131,001,3,recog,17,BUBBLED,LF,lure,-,-,-,conservative,no,z,0,0.823992823321,-3,492
2019_Oct_31,131,001,3,recog,18,WRITE,HF,target,left,aqua,imageability,conservative,no,z,1,1.00022802894,1,493
2019_Oct_31,131,001,3,recog,19,SNOBBISH,LF,target,left,aqua,imageability,liberal,no,z,1,0.682624781686,3,496
2019_Oct_31,131,001,3,recog,20,PYJAMA,LF,lure,-,-,-,conservative,yes,m,1,0.553160070446,3,499
2019_Oct_31,131,001,3,recog,21,USUAL,HF,lure,-,-,-,liberal,no,m,1,2.38863279423,1,500
2019_Oct_31,131,001,3,recog,22,QUICKLY,HF,lure,-,-,-,conservative,no,m,1,0.788572084273,3,503
2019_Oct_31,131,001,3,recog,23,USING,HF,lure,-,-,-,conservative,no,m,1,0.788248004564,3,506
2019_Oct_31,131,001,3,recog,24,OUTSIDE,HF,target,right,yellow,pleasantness,liberal,no,z,1,0.576743834787,3,509
2019_Oct_31,131,001,3,recog,25,HIVES,LF,target,right,yellow,pleasantness,liberal,no,z,1,0.80024481949,3,512
2019_Oct_31,131,001,3,recog,26,VARIOUS,HF,lure,-,-,-,conservative,no,m,1,0.741546798723,3,515
2019_Oct_31,131,001,3,recog,27,KIMONO,LF,target,left,aqua,imageability,liberal,no,z,1,0.788333057157,3,518
2019_Oct_31,131,001,3,recog,28,RAKING,LF,lure,-,-,-,liberal,no,m,1,1.57683511968,1,519
2019_Oct_31,131,001,3,recog,29,SMALL,HF,target,right,yellow,pleasantness,conservative,no,z,1,0.611987503135,1,520
2019_Oct_31,131,001,3,recog,30,SCUFFED,LF,lure,-,-,-,liberal,no,m,1,1.17669529615,1,521
2019_Oct_31,131,001,3,recog,31,DIDACTIC,LF,target,right,yellow,pleasantness,conservative,no,z,1,0.659207456473,1,522
2019_Oct_31,131,001,3,recog,32,JOTTED,LF,target,left,aqua,imageability,conservative,yes,m,0,0.588439666184,-1,521
2019_Oct_31,131,001,3,recog,33,EXACTLY,HF,lure,-,-,-,conservative,no,m,1,1.41201749151,3,524
2019_Oct_31,131,001,3,recog,34,TERMS,HF,lure,-,-,-,liberal,no,m,1,1.67085892854,1,525
2019_Oct_31,131,001,3,recog,35,PUBLIC,HF,target,left,aqua,imageability,liberal,no,z,1,0.611926279931,3,528
2019_Oct_31,131,001,3,recog,36,WREATH,LF,lure,-,-,-,conservative,no,m,1,0.753229065697,3,531
2019_Oct_31,131,001,3,recog,37,BYGONE,LF,lure,-,-,-,liberal,no,m,1,0.882584161741,1,532
2019_Oct_31,131,001,3,recog,38,TUMBLER,LF,target,right,yellow,pleasantness,conservative,no,z,1,0.741382925838,1,533
2019_Oct_31,131,001,3,recog,39,THEORY,HF,lure,-,-,-,liberal,no,m,1,0.68262808114,1,534
2019_Oct_31,131,001,3,recog,40,PIECE,HF,target,left,aqua,imageability,liberal,no,z,1,0.647281029899,3,537
2019_Oct_31,131,001,3,recog,41,LUXURIANT,LF,lure,-,-,-,liberal,no,m,1,0.753184706371,1,538
2019_Oct_31,131,001,3,recog,42,JUNCTURE,LF,lure,-,-,-,conservative,no,m,1,0.82378642414,3,541
2019_Oct_31,131,001,3,recog,43,OBSCURELY,LF,lure,-,-,-,liberal,no,m,1,0.729772147036,1,542
2019_Oct_31,131,001,3,recog,44,MORNING,HF,lure,-,-,-,conservative,no,m,1,0.694392834465,3,545
2019_Oct_31,131,001,3,recog,45,GETTING,HF,lure,-,-,-,conservative,no,m,1,0.635513343726,3,548
2019_Oct_31,131,001,3,recog,46,ECLECTIC,LF,target,left,aqua,imageability,conservative,no,z,1,0.682630280777,1,549
2019_Oct_31,131,001,3,recog,47,PHYSICAL,HF,lure,-,-,-,liberal,no,m,1,0.670860761573,1,550
2019_Oct_31,131,001,3,recog,48,ARRIVED,HF,lure,-,-,-,conservative,no,z,0,2.70623347523,-3,547
2019_Oct_31,131,001,3,recog,49,YACHTING,LF,lure,-,-,-,conservative,no,m,1,0.776490583358,3,550
2019_Oct_31,131,001,3,recog,50,RUGGER,LF,lure,-,-,-,liberal,no,z,0,1.03553878618,-1,549
2019_Oct_31,131,001,3,recog,51,EVIDENCE,HF,target,left,aqua,imageability,liberal,no,z,1,0.623770220154,3,552
2019_Oct_31,131,001,3,recog,52,TAKEN,HF,lure,-,-,-,liberal,no,z,0,0.906184423351,-1,551
2019_Oct_31,131,001,3,recog,53,BELIEVE,HF,target,right,yellow,pleasantness,conservative,no,z,1,0.635623325526,1,552
2019_Oct_31,131,001,3,recog,54,GIVEN,HF,target,left,aqua,imageability,conservative,no,z,1,1.08263922596,1,553
2019_Oct_31,131,001,3,recog,55,UNTIL,HF,target,left,aqua,imageability,liberal,no,z,1,0.953252601803,3,556
2019_Oct_31,131,001,3,recog,56,LAXATIVE,LF,target,left,aqua,imageability,liberal,no,z,1,0.776749773804,3,559
2019_Oct_31,131,001,3,recog,57,UNCANNILY,LF,target,right,yellow,pleasantness,conservative,no,z,1,0.765027546775,1,560
2019_Oct_31,131,001,3,recog,58,COLDEST,LF,target,right,yellow,pleasantness,conservative,no,z,1,0.811967046519,1,561
2019_Oct_31,131,001,3,recog,59,LARGE,HF,lure,-,-,-,conservative,no,m,1,1.81186659647,3,564
2019_Oct_31,131,001,3,recog,60,DAMASK,LF,target,right,yellow,pleasantness,conservative,no,z,1,0.976825734569,1,565
2019_Oct_31,131,001,3,recog,61,LAPELS,LF,lure,-,-,-,liberal,no,m,1,0.75325912739,1,566
2019_Oct_31,131,001,3,recog,62,OPENED,HF,target,right,yellow,pleasantness,liberal,no,z,1,0.882851417519,3,569
2019_Oct_31,131,001,3,recog,63,UNHEEDED,LF,lure,-,-,-,conservative,no,m,1,0.764956791816,3,572
2019_Oct_31,131,001,3,recog,64,BOLDNESS,LF,target,left,aqua,imageability,conservative,no,z,1,0.8120147053,1,573
2019_Oct_31,131,001,3,recog,65,GERANIUMS,LF,target,left,aqua,imageability,conservative,no,z,1,0.694432061308,1,574
2019_Oct_31,131,001,3,recog,66,LATER,HF,lure,-,-,-,liberal,no,m,1,0.823774692747,1,575
2019_Oct_31,131,001,3,recog,67,ARDENTLY,LF,lure,-,-,-,liberal,no,m,1,0.741485208914,1,576
2019_Oct_31,131,001,3,recog,68,NAUGHT,LF,lure,-,-,-,liberal,no,m,1,0.682577856117,1,577
2019_Oct_31,131,001,3,recog,69,ENTIRELY,HF,lure,-,-,-,liberal,no,m,1,0.765084737312,1,578
2019_Oct_31,131,001,3,recog,70,CONCERNED,HF,target,left,aqua,imageability,conservative,no,z,1,0.717863317549,1,579
2019_Oct_31,131,001,3,recog,71,INORGANIC,LF,target,left,aqua,imageability,liberal,yes,m,0,0.647062166114,-3,576
2019_Oct_31,131,001,3,recog,72,MUSIC,HF,lure,-,-,-,liberal,no,m,1,0.800292478271,1,577
2019_Oct_31,131,001,3,recog,73,FINAL,HF,target,left,aqua,imageability,conservative,no,z,1,0.823793389653,1,578
2019_Oct_31,131,001,3,recog,74,MAJOR,HF,target,left,aqua,imageability,conservative,no,z,1,0.823740964996,1,579
2019_Oct_31,131,001,3,recog,75,YARDSTICK,LF,lure,-,-,-,conservative,no,m,1,0.682428647473,3,582
2019_Oct_31,131,001,3,recog,76,OMELETTE,LF,lure,-,-,-,liberal,no,m,1,0.706112861859,1,583
2019_Oct_31,131,001,3,recog,77,SPACE,HF,target,right,yellow,pleasantness,liberal,no,z,1,0.68259875266,3,586
2019_Oct_31,131,001,3,recog,78,TOWARDS,HF,target,right,yellow,pleasantness,conservative,no,z,1,1.37675329322,1,587
2019_Oct_31,131,001,3,recog,79,CHLORIDE,LF,target,right,yellow,pleasantness,liberal,no,z,1,0.741553397632,3,590
2019_Oct_31,131,001,3,recog,80,PAWNS,LF,target,left,aqua,imageability,conservative,no,z,1,0.72947153011,1,591
2019_Oct_31,131,001,3,recog,81,TIGHTNESS,LF,lure,-,-,-,conservative,no,m,1,0.800269382093,3,594
2019_Oct_31,131,001,3,recog,82,SHORT,HF,target,right,yellow,pleasantness,liberal,no,z,1,0.788273666984,3,597
2019_Oct_31,131,001,3,recog,83,PICTURE,HF,lure,-,-,-,conservative,no,m,1,2.07087997173,3,600
2019_Oct_31,131,001,3,recog,84,ELUDE,LF,target,right,yellow,pleasantness,conservative,no,z,1,0.69427222109,1,601
2019_Oct_31,131,001,3,recog,85,SACRAMENT,LF,target,left,aqua,imageability,liberal,no,z,1,1.32969537974,3,604
2019_Oct_31,131,001,3,recog,86,BEHIND,HF,lure,-,-,-,liberal,no,m,1,1.50618171047,1,605
2019_Oct_31,131,001,3,recog,87,SKATES,LF,lure,-,-,-,conservative,no,m,1,1.83566189248,3,608
2019_Oct_31,131,001,3,recog,88,GUILDHALL,LF,target,left,aqua,imageability,liberal,no,z,1,0.823960195386,3,611
2019_Oct_31,131,001,3,recog,89,WOBBLE,LF,target,right,yellow,pleasantness,liberal,no,z,1,2.2709746294,3,614
2019_Oct_31,131,001,3,recog,90,FURTHER,HF,target,right,yellow,pleasantness,conservative,no,z,1,0.659190592597,1,615
2019_Oct_31,131,001,3,recog,91,BROUGHT,HF,lure,-,-,-,conservative,no,m,1,0.623829243721,3,618
2019_Oct_31,131,001,3,recog,92,MEMBERS,HF,target,right,yellow,pleasantness,conservative,no,z,1,0.682629547565,1,619
2019_Oct_31,131,001,3,recog,93,CHIEF,HF,lure,-,-,-,conservative,no,m,1,0.682620382414,3,622
2019_Oct_31,131,001,3,recog,94,COHESIVE,LF,lure,-,-,-,liberal,no,m,1,0.729637969237,1,623
2019_Oct_31,131,001,3,recog,95,LEGALITY,LF,target,right,yellow,pleasantness,liberal,no,z,1,0.941225725183,3,626
2019_Oct_31,131,001,4,source,0,CUCKOO,LF,target,left,aqua,imageability,liberal,no,3,1,1.00025919045,-,-
2019_Oct_31,131,001,4,source,1,GEARING,LF,target,left,aqua,imageability,liberal,no,7,0,0.776677185815,-,-
2019_Oct_31,131,001,4,source,2,GREATER,HF,target,left,aqua,imageability,conservative,no,7,0,1.07080701713,-,-
2019_Oct_31,131,001,4,source,3,NUCLEAR,HF,target,right,yellow,pleasantness,conservative,yes,7,1,0.62360451424,-,-
2019_Oct_31,131,001,4,source,4,THRASH,LF,target,right,yellow,pleasantness,conservative,no,3,0,0.835533580377,-,-
2019_Oct_31,131,001,4,source,5,IDOLATRY,LF,target,right,yellow,pleasantness,conservative,no,3,0,0.835606168365,-,-
2019_Oct_31,131,001,4,source,6,UDDER,LF,target,right,yellow,pleasantness,liberal,yes,3,0,0.600271875013,-,-
2019_Oct_31,131,001,4,source,7,BUILDING,HF,target,left,aqua,imageability,conservative,no,2,1,1.80042665607,-,-
2019_Oct_31,131,001,4,source,8,HURDLES,LF,target,left,aqua,imageability,conservative,no,8,0,0.835548611223,-,-
2019_Oct_31,131,001,4,source,9,ECONOMIC,HF,target,left,aqua,imageability,conservative,no,2,1,1.71788018143,-,-
2019_Oct_31,131,001,4,source,10,RETURN,HF,target,right,yellow,pleasantness,liberal,no,8,1,1.42377014683,-,-
2019_Oct_31,131,001,4,source,11,HOWEVER,HF,target,right,yellow,pleasantness,conservative,no,9,1,1.63557236729,-,-
2019_Oct_31,131,001,4,source,12,DUMMIES,LF,target,right,yellow,pleasantness,conservative,no,2,0,1.76498135442,-,-
2019_Oct_31,131,001,4,source,13,BENIGNLY,LF,target,right,yellow,pleasantness,liberal,no,9,1,0.929432743195,-,-
2019_Oct_31,131,001,4,source,14,MINISTER,HF,target,left,aqua,imageability,conservative,no,1,1,0.92948920052,-,-
2019_Oct_31,131,001,4,source,15,UNLESS,HF,target,left,aqua,imageability,liberal,no,1,1,1.83555704316,-,-
2019_Oct_31,131,001,4,source,16,SINCE,HF,target,right,yellow,pleasantness,conservative,no,9,1,0.812012139058,-,-
2019_Oct_31,131,001,4,source,17,POLICE,HF,target,left,aqua,imageability,conservative,no,1,1,0.941526342108,-,-
2019_Oct_31,131,001,4,source,18,HERSELF,HF,target,left,aqua,imageability,liberal,no,3,1,1.29433329765,-,-
2019_Oct_31,131,001,4,source,19,CLEAR,HF,target,left,aqua,imageability,liberal,no,2,1,1.14141716684,-,-
2019_Oct_31,131,001,4,source,20,BEREAVED,LF,target,right,yellow,pleasantness,conservative,no,9,1,1.48260197879,-,-
2019_Oct_31,131,001,4,source,21,NUTSHELL,LF,target,left,aqua,imageability,conservative,no,1,1,0.894163412427,-,-
2019_Oct_31,131,001,4,source,22,UNJUSTLY,LF,target,right,yellow,pleasantness,liberal,no,9,1,1.30605589128,-,-
2019_Oct_31,131,001,4,source,23,SEVEN,HF,target,right,yellow,pleasantness,liberal,no,7,1,1.32966568465,-,-
2019_Oct_31,131,001,4,source,24,UNION,HF,target,right,yellow,pleasantness,conservative,no,9,1,0.823765527598,-,-
2019_Oct_31,131,001,4,source,25,FIDDLED,LF,target,left,aqua,imageability,liberal,no,1,1,0.894434334265,-,-
2019_Oct_31,131,001,4,source,26,DOWDY,LF,target,left,aqua,imageability,conservative,no,3,1,0.870792646177,-,-
2019_Oct_31,131,001,4,source,27,DROLL,LF,target,right,yellow,pleasantness,liberal,no,7,1,1.00039410146,-,-
2019_Oct_31,131,001,4,source,28,UNMADE,LF,target,left,aqua,imageability,liberal,no,7,0,1.15297112171,-,-
2019_Oct_31,131,001,4,source,29,GROUND,HF,target,right,yellow,pleasantness,conservative,no,8,1,1.95318331327,-,-
2019_Oct_31,131,001,4,source,30,NARRATOR,LF,target,left,aqua,imageability,conservative,no,1,1,0.753172974978,-,-
2019_Oct_31,131,001,4,source,31,ODDER,LF,target,left,aqua,imageability,liberal,no,2,1,1.14131451716,-,-
2019_Oct_31,131,001,4,source,32,MATERIAL,HF,target,left,aqua,imageability,liberal,yes,2,1,0.588453597212,-,-
2019_Oct_31,131,001,4,source,33,PECKED,LF,target,right,yellow,pleasantness,conservative,no,9,1,1.37655275974,-,-
2019_Oct_31,131,001,4,source,34,NEGATION,LF,target,right,yellow,pleasantness,conservative,no,9,1,1.04740398955,-,-
2019_Oct_31,131,001,4,source,35,RIVER,HF,target,left,aqua,imageability,liberal,no,3,1,1.74140675523,-,-
2019_Oct_31,131,001,4,source,36,BECAME,HF,target,left,aqua,imageability,liberal,no,1,1,1.10594620277,-,-
2019_Oct_31,131,001,4,source,37,AFRAID,HF,target,right,yellow,pleasantness,liberal,yes,3,0,0.682657409621,-,-
2019_Oct_31,131,001,4,source,38,SPICED,LF,target,left,aqua,imageability,liberal,no,1,1,0.835312883562,-,-
2019_Oct_31,131,001,4,source,39,GENERAL,HF,target,right,yellow,pleasantness,liberal,no,8,1,1.02393863895,-,-
2019_Oct_31,131,001,4,source,40,PUNCTUAL,LF,target,right,yellow,pleasantness,liberal,no,8,1,1.52965292676,-,-
2019_Oct_31,131,001,4,source,41,ZIGZAG,LF,target,left,aqua,imageability,conservative,no,1,1,0.835420665727,-,-
2019_Oct_31,131,001,4,source,42,GNARLED,LF,target,left,aqua,imageability,conservative,no,1,1,1.25891475824,-,-
2019_Oct_31,131,001,4,source,43,CORNER,HF,target,right,yellow,pleasantness,liberal,no,9,1,2.17676788414,-,-
2019_Oct_31,131,001,4,source,44,FOLLOWED,HF,target,right,yellow,pleasantness,liberal,no,9,1,1.1177604479,-,-
2019_Oct_31,131,001,4,source,45,DRINK,HF,target,right,yellow,pleasantness,conservative,no,3,0,1.00023902712,-,-
2019_Oct_31,131,001,4,source,46,APOSTLE,LF,target,right,yellow,pleasantness,liberal,no,9,1,0.835566941524,-,-
2019_Oct_31,131,001,4,source,47,OLDER,HF,target,left,aqua,imageability,conservative,no,1,1,2.14144759514,-,-
2019_Oct_31,131,001,4,recog,0,ICEBOX,LF,lure,-,-,-,conservative,no,m,1,0.812064930323,3,629
2019_Oct_31,131,001,4,recog,1,WITHIN,HF,lure,-,-,-,conservative,no,m,1,0.682618549384,3,632
2019_Oct_31,131,001,4,recog,2,UNION,HF,target,right,yellow,pleasantness,conservative,no,z,1,0.753287722659,1,633
2019_Oct_31,131,001,4,recog,3,VILLAGE,HF,lure,-,-,-,conservative,no,m,1,0.588305488385,3,636
2019_Oct_31,131,001,4,recog,4,SYRINGE,LF,lure,-,-,-,liberal,no,m,1,0.612163840623,1,637
2019_Oct_31,131,001,4,recog,5,NATIONAL,HF,lure,-,-,-,conservative,no,m,1,0.647363882857,3,640
2019_Oct_31,131,001,4,recog,6,PECKED,LF,target,right,yellow,pleasantness,conservative,yes,m,0,0.612038094763,-1,639
2019_Oct_31,131,001,4,recog,7,STUDENT,HF,lure,-,-,-,liberal,no,m,1,0.729761515461,1,640
2019_Oct_31,131,001,4,recog,8,DECIDED,HF,lure,-,-,-,liberal,no,m,1,0.564794312035,1,641
2019_Oct_31,131,001,4,recog,9,IMPORTANT,HF,lure,-,-,-,liberal,no,m,1,0.576790760356,1,642
2019_Oct_31,131,001,4,recog,10,SEVEN,HF,target,right,yellow,pleasantness,liberal,no,z,1,0.611915281751,3,645
2019_Oct_31,131,001,4,recog,11,HUSBAND,HF,lure,-,-,-,conservative,no,m,1,0.647365715886,3,648
2019_Oct_31,131,001,4,recog,12,UDDER,LF,target,right,yellow,pleasantness,liberal,no,z,1,0.623793682938,3,651
2019_Oct_31,131,001,4,recog,13,FOLLOWED,HF,target,right,yellow,pleasantness,liberal,no,z,1,0.635675750186,3,654
2019_Oct_31,131,001,4,recog,14,PONCE,LF,lure,-,-,-,conservative,no,m,1,0.68270433519,3,657
2019_Oct_31,131,001,4,recog,15,MIDDLE,HF,lure,-,-,-,liberal,no,m,1,0.717937371963,1,658
2019_Oct_31,131,001,4,recog,16,RUNNING,HF,lure,-,-,-,conservative,no,m,1,0.706274901713,3,661
2019_Oct_31,131,001,4,recog,17,KENNEL,LF,lure,-,-,-,conservative,no,z,0,0.823863044795,-3,658
2019_Oct_31,131,001,4,recog,18,PLEASE,HF,lure,-,-,-,conservative,no,m,1,0.918036795512,3,661
2019_Oct_31,131,001,4,recog,19,PUNCTUAL,LF,target,right,yellow,pleasantness,liberal,no,z,1,0.753311185443,3,664
2019_Oct_31,131,001,4,recog,20,TOLERABLY,LF,lure,-,-,-,liberal,no,m,1,0.706216611358,1,665
2019_Oct_31,131,001,4,recog,21,THRASH,LF,target,right,yellow,pleasantness,conservative,no,z,1,0.753233098363,1,666
2019_Oct_31,131,001,4,recog,22,ATTACK,HF,lure,-,-,-,liberal,no,m,1,0.682648977683,1,667
2019_Oct_31,131,001,4,recog,23,CORNER,HF,target,right,yellow,pleasantness,liberal,no,z,1,0.682629180958,3,670
2019_Oct_31,131,001,4,recog,24,RETURN,HF,target,right,yellow,pleasantness,liberal,no,z,1,0.611990802588,3,673
2019_Oct_31,131,001,4,recog,25,HOMESTEAD,LF,lure,-,-,-,liberal,no,m,1,0.694439760035,1,674
2019_Oct_31,131,001,4,recog,26,REFECTORY,LF,lure,-,-,-,liberal,no,m,1,1.57696563142,1,675
2019_Oct_31,131,001,4,recog,27,GEARING,LF,target,left,aqua,imageability,liberal,no,z,1,0.659092342187,3,678
2019_Oct_31,131,001,4,recog,28,BANALITY,LF,lure,-,-,-,liberal,no,m,1,0.776810997007,1,679
2019_Oct_31,131,001,4,recog,29,HOLED,LF,lure,-,-,-,conservative,no,m,1,0.682716433187,3,682
2019_Oct_31,131,001,4,recog,30,POLICE,HF,target,left,aqua,imageability,conservative,no,z,1,0.553203696561,1,683
2019_Oct_31,131,001,4,recog,31,FIDDLED,LF,target,left,aqua,imageability,liberal,no,z,1,1.56504543715,3,686
2019_Oct_31,131,001,4,recog,32,NUTSHELL,LF,target,left,aqua,imageability,conservative,no,z,1,0.694388435194,1,687
2019_Oct_31,131,001,4,recog,33,AMALGAM,LF,lure,-,-,-,conservative,no,m,1,0.69437597059,3,690
2019_Oct_31,131,001,4,recog,34,NEGATION,LF,target,right,yellow,pleasantness,conservative,no,z,1,0.600421083658,1,691
2019_Oct_31,131,001,4,recog,35,DRINK,HF,target,right,yellow,pleasantness,conservative,no,z,1,0.647262332993,1,692
2019_Oct_31,131,001,4,recog,36,RIVER,HF,target,left,aqua,imageability,liberal,no,z,1,0.706022676782,3,695
2019_Oct_31,131,001,4,recog,37,NIMBLE,LF,lure,-,-,-,conservative,no,m,1,0.776849490638,3,698
2019_Oct_31,131,001,4,recog,38,BECAME,HF,target,left,aqua,imageability,liberal,no,z,1,0.635383931805,3,701
2019_Oct_31,131,001,4,recog,39,GNARLED,LF,target,left,aqua,imageability,conservative,no,z,1,0.600294604586,1,702
2019_Oct_31,131,001,4,recog,40,UNJUSTLY,LF,target,right,yellow,pleasantness,liberal,no,z,1,0.68260975084,3,705
2019_Oct_31,131,001,4,recog,41,POWER,HF,lure,-,-,-,conservative,no,m,1,0.788228941051,3,708
2019_Oct_31,131,001,4,recog,42,IDOLATRY,LF,target,right,yellow,pleasantness,conservative,no,z,1,0.776777269254,1,709
2019_Oct_31,131,001,4,recog,43,PASSED,HF,lure,-,-,-,liberal,no,m,1,1.01210606352,1,710
2019_Oct_31,131,001,4,recog,44,SONAR,LF,lure,-,-,-,liberal,yes,m,1,0.588577143435,1,711
2019_Oct_31,131,001,4,recog,45,EXCEPT,HF,lure,-,-,-,liberal,no,m,1,0.929702931821,1,712
2019_Oct_31,131,001,4,recog,46,NEARLY,HF,lure,-,-,-,conservative,no,m,1,1.28264186553,3,715
2019_Oct_31,131,001,4,recog,47,GEOLOGIST,LF,lure,-,-,-,conservative,no,m,1,0.70621551154,3,718
2019_Oct_31,131,001,4,recog,48,MOCCASINS,LF,lure,-,-,-,conservative,no,m,1,0.812150349522,3,721
2019_Oct_31,131,001,4,recog,49,PARENTS,HF,lure,-,-,-,liberal,no,m,1,0.894388141908,1,722
2019_Oct_31,131,001,4,recog,50,HURDLES,LF,target,left,aqua,imageability,conservative,no,z,1,0.717993096076,1,723
2019_Oct_31,131,001,4,recog,51,UNLESS,HF,target,left,aqua,imageability,liberal,no,z,1,1.50616044732,3,726
2019_Oct_31,131,001,4,recog,52,DOUBT,HF,lure,-,-,-,liberal,no,m,1,0.800358833959,1,727
2019_Oct_31,131,001,4,recog,53,SPLASHES,LF,lure,-,-,-,conservative,no,m,1,0.65903148559,3,730
2019_Oct_31,131,001,4,recog,54,BUILDING,HF,target,left,aqua,imageability,conservative,no,z,1,0.776686717571,1,731
2019_Oct_31,131,001,4,recog,55,UPKEEP,LF,lure,-,-,-,liberal,no,m,1,0.694103215721,1,732
2019_Oct_31,131,001,4,recog,56,TRYING,HF,lure,-,-,-,liberal,no,m,1,0.741531767877,1,733
2019_Oct_31,131,001,4,recog,57,BOXCAR,LF,lure,-,-,-,liberal,no,m,1,0.565002910852,1,734
2019_Oct_31,131,001,4,recog,58,GROUND,HF,target,right,yellow,pleasantness,conservative,no,z,1,0.541481836139,1,735
2019_Oct_31,131,001,4,recog,59,HOIST,LF,lure,-,-,-,liberal,no,m,1,0.765073739131,1,736
2019_Oct_31,131,001,4,recog,60,DOWDY,LF,target,left,aqua,imageability,conservative,no,z,1,0.76504917653,1,737
2019_Oct_31,131,001,4,recog,61,OLDER,HF,target,left,aqua,imageability,conservative,no,z,1,0.623807247361,1,738
2019_Oct_31,131,001,4,recog,62,SECOND,HF,lure,-,-,-,conservative,no,m,1,0.741606555502,3,741
2019_Oct_31,131,001,4,recog,63,BENIGNLY,LF,target,right,yellow,pleasantness,liberal,no,z,1,0.753239697271,3,744
2019_Oct_31,131,001,4,recog,64,CLEAR,HF,target,left,aqua,imageability,liberal,no,z,1,0.600202953085,3,747
2019_Oct_31,131,001,4,recog,65,DROLL,LF,target,right,yellow,pleasantness,liberal,no,z,1,0.670871026541,3,750
2019_Oct_31,131,001,4,recog,66,BOGEY,LF,lure,-,-,-,conservative,no,m,1,0.753234564788,3,753
2019_Oct_31,131,001,4,recog,67,ZIGZAG,LF,target,left,aqua,imageability,conservative,no,z,1,0.612019031251,1,754
2019_Oct_31,131,001,4,recog,68,FIVER,LF,lure,-,-,-,conservative,no,m,1,0.859136408229,3,757
2019_Oct_31,131,001,4,recog,69,BEREAVED,LF,target,right,yellow,pleasantness,conservative,no,z,1,0.659079877582,1,758
