date,subj,session,cycle,task,trial,item,wf,type,source,colour,encoding,bias,null,response,corr,rt,points,total
2019_Nov_05,132,001,0,source,0,PEOPLED,LF,target,right,aqua,pleasantness,conservative,no,9,1,1.48269449039,-,-
2019_Nov_05,132,001,0,source,1,MITIGATE,LF,target,right,aqua,pleasantness,liberal,yes,7,1,2.25913135544,-,-
2019_Nov_05,132,001,0,source,2,TRADE,HF,target,left,yellow,imageability,liberal,no,1,1,1.45904930961,-,-
2019_Nov_05,132,001,0,source,3,BEHIND,HF,target,right,aqua,pleasantness,conservative,no,2,0,2.49446502311,-,-
2019_Nov_05,132,001,0,source,4,MONEY,HF,target,right,aqua,pleasantness,liberal,no,8,1,1.5767989958,-,-
2019_Nov_05,132,001,0,source,5,SYRINGE,LF,target,left,yellow,imageability,conservative,no,9,0,1.12983659757,-,-
2019_Nov_05,132,001,0,source,6,CONCERNED,HF,target,right,aqua,pleasantness,conservative,no,8,1,2.32967793165,-,-
2019_Nov_05,132,001,0,source,7,CINDER,LF,target,right,aqua,pleasantness,liberal,no,8,1,1.38848476983,-,-
2019_Nov_05,132,001,0,source,8,CUISINE,LF,target,right,aqua,pleasantness,liberal,no,2,0,1.31789750065,-,-
2019_Nov_05,132,001,0,source,9,EITHER,HF,target,right,aqua,pleasantness,conservative,no,8,1,2.54144853769,-,-
2019_Nov_05,132,001,0,source,10,NEEDED,HF,target,right,aqua,pleasantness,liberal,no,7,1,2.870977995,-,-
2019_Nov_05,132,001,0,source,11,HYPNOSIS,LF,target,left,yellow,imageability,liberal,yes,1,1,1.57676490169,-,-
2019_Nov_05,132,001,0,source,12,TAKEN,HF,target,left,yellow,imageability,conservative,no,2,1,3.71808351517,-,-
2019_Nov_05,132,001,0,source,13,MYSELF,HF,target,left,yellow,imageability,conservative,no,2,1,2.72953180357,-,-
2019_Nov_05,132,001,0,source,14,AGONIZED,LF,target,right,aqua,pleasantness,conservative,no,8,1,1.12972258394,-,-
2019_Nov_05,132,001,0,source,15,RUFFLES,LF,target,left,yellow,imageability,conservative,no,1,1,1.38865890641,-,-
2019_Nov_05,132,001,0,source,16,SOPHISTS,LF,target,left,yellow,imageability,liberal,no,1,1,1.17682084536,-,-
2019_Nov_05,132,001,0,source,17,HIKING,LF,target,left,yellow,imageability,conservative,no,1,1,0.729618688557,-,-
2019_Nov_05,132,001,0,source,18,CHAIR,HF,target,left,yellow,imageability,conservative,no,1,1,0.894137059783,-,-
2019_Nov_05,132,001,0,source,19,SANDAL,LF,target,right,aqua,pleasantness,conservative,no,1,0,0.847379372844,-,-
2019_Nov_05,132,001,0,source,20,MAGGOT,LF,target,left,yellow,imageability,liberal,no,7,0,1.20027832524,-,-
2019_Nov_05,132,001,0,source,21,DURING,HF,target,left,yellow,imageability,liberal,no,1,1,0.965014678797,-,-
2019_Nov_05,132,001,0,source,22,HUMAN,HF,target,right,aqua,pleasantness,liberal,no,1,0,2.18855911698,-,-
2019_Nov_05,132,001,0,source,23,MOVED,HF,target,right,aqua,pleasantness,conservative,no,8,1,1.95323608081,-,-
2019_Nov_05,132,001,0,source,24,FLOOR,HF,target,left,yellow,imageability,conservative,no,1,1,0.894448305999,-,-
2019_Nov_05,132,001,0,source,25,CABLED,LF,target,right,aqua,pleasantness,liberal,no,8,1,1.38837405563,-,-
2019_Nov_05,132,001,0,source,26,BASIC,HF,target,left,yellow,imageability,liberal,yes,3,1,1.92972581005,-,-
2019_Nov_05,132,001,0,source,27,VISCOUS,LF,target,right,aqua,pleasantness,liberal,no,9,1,2.07081896248,-,-
2019_Nov_05,132,001,0,source,28,COWARDS,LF,target,left,yellow,imageability,conservative,no,2,1,1.69439067596,-,-
2019_Nov_05,132,001,0,source,29,DIPLOMAS,LF,target,right,aqua,pleasantness,conservative,no,2,0,2.49440966601,-,-
2019_Nov_05,132,001,0,source,30,DISARMED,LF,target,right,aqua,pleasantness,liberal,no,8,1,1.69452191995,-,-
2019_Nov_05,132,001,0,source,31,LOBBIES,LF,target,left,yellow,imageability,conservative,no,2,1,1.17680178199,-,-
2019_Nov_05,132,001,0,source,32,ANEMONES,LF,target,right,aqua,pleasantness,conservative,no,7,1,2.35331138113,-,-
2019_Nov_05,132,001,0,source,33,SEEMED,HF,target,left,yellow,imageability,liberal,no,3,1,2.18822257514,-,-
2019_Nov_05,132,001,0,source,34,HEDGED,LF,target,left,yellow,imageability,liberal,no,2,1,1.24738831797,-,-
2019_Nov_05,132,001,0,source,35,OFFER,HF,target,right,aqua,pleasantness,liberal,no,8,1,1.1061928832,-,-
2019_Nov_05,132,001,0,source,36,SLOWLY,HF,target,right,aqua,pleasantness,liberal,no,8,1,2.16499128951,-,-
2019_Nov_05,132,001,0,source,37,DOING,HF,target,left,yellow,imageability,liberal,no,2,1,1.92968804991,-,-
2019_Nov_05,132,001,0,source,38,CLASS,HF,target,right,aqua,pleasantness,conservative,no,7,1,1.50615930234,-,-
2019_Nov_05,132,001,0,source,39,CIRCUSES,LF,target,left,yellow,imageability,liberal,yes,3,1,1.3884814704,-,-
2019_Nov_05,132,001,0,source,40,WASHBASIN,LF,target,left,yellow,imageability,conservative,no,1,1,1.57678176544,-,-
2019_Nov_05,132,001,0,source,41,FRONT,HF,target,right,aqua,pleasantness,conservative,no,1,0,1.57672274231,-,-
2019_Nov_05,132,001,0,source,42,OXIDE,LF,target,right,aqua,pleasantness,conservative,no,9,1,1.20031315255,-,-
2019_Nov_05,132,001,0,source,43,MAYBE,HF,target,right,aqua,pleasantness,liberal,no,8,1,1.67083714601,-,-
2019_Nov_05,132,001,0,source,44,HAGGLING,LF,target,left,yellow,imageability,liberal,no,7,0,1.576820992,-,-
2019_Nov_05,132,001,0,source,45,DOCTOR,HF,target,left,yellow,imageability,liberal,no,1,1,1.10618775076,-,-
2019_Nov_05,132,001,0,source,46,LIVED,HF,target,left,yellow,imageability,conservative,no,2,1,1.08241829145,-,-
2019_Nov_05,132,001,0,source,47,MIDDLE,HF,target,left,yellow,imageability,conservative,no,8,0,1.05913861418,-,-
2019_Nov_05,132,001,0,recog,0,MYSELF,HF,target,left,yellow,imageability,conservative,no,z,1,1.89438818306,1,1
2019_Nov_05,132,001,0,recog,1,HAGGLING,LF,target,left,yellow,imageability,liberal,no,z,1,0.953163493348,3,4
2019_Nov_05,132,001,0,recog,2,VESTIBULE,LF,lure,-,-,-,liberal,no,m,1,1.02388383954,1,5
2019_Nov_05,132,001,0,recog,3,OXIDE,LF,target,right,aqua,pleasantness,conservative,no,z,1,1.16496159464,1,6
2019_Nov_05,132,001,0,recog,4,ACCORDING,HF,lure,-,-,-,liberal,no,m,1,1.27082416825,1,7
2019_Nov_05,132,001,0,recog,5,OUSTED,LF,lure,-,-,-,conservative,no,m,1,0.976934419066,3,10
2019_Nov_05,132,001,0,recog,6,PULSAR,LF,lure,-,-,-,liberal,no,m,1,1.07079549987,1,11
2019_Nov_05,132,001,0,recog,7,SMALL,HF,lure,-,-,-,conservative,no,m,1,1.03558545083,3,14
2019_Nov_05,132,001,0,recog,8,LIVED,HF,target,left,yellow,imageability,conservative,no,z,1,0.670894336125,1,15
2019_Nov_05,132,001,0,recog,9,NEEDED,HF,target,right,aqua,pleasantness,liberal,no,z,1,1.14141393034,3,18
2019_Nov_05,132,001,0,recog,10,LEPROSY,LF,lure,-,-,-,conservative,no,m,1,0.670867940687,3,21
2019_Nov_05,132,001,0,recog,11,BEHIND,HF,target,right,aqua,pleasantness,conservative,no,z,1,1.64740752798,1,22
2019_Nov_05,132,001,0,recog,12,PELTED,LF,lure,-,-,-,liberal,no,z,0,2.38857055501,-1,21
2019_Nov_05,132,001,0,recog,13,FINAL,HF,lure,-,-,-,liberal,no,m,1,2.47094778689,1,22
2019_Nov_05,132,001,0,recog,14,CINDER,LF,target,right,aqua,pleasantness,liberal,no,z,1,0.670848877314,3,25
2019_Nov_05,132,001,0,recog,15,FAMILY,HF,lure,-,-,-,liberal,no,z,0,0.847127882968,-1,24
2019_Nov_05,132,001,0,recog,16,CLASS,HF,target,right,aqua,pleasantness,conservative,no,z,1,1.38853096185,1,25
2019_Nov_05,132,001,0,recog,17,HEDGED,LF,target,left,yellow,imageability,liberal,no,z,1,0.694336052064,3,28
2019_Nov_05,132,001,0,recog,18,ARDENTLY,LF,lure,-,-,-,liberal,no,m,1,0.953259176814,1,29
2019_Nov_05,132,001,0,recog,19,MAYBE,HF,target,right,aqua,pleasantness,liberal,no,z,1,0.600236679102,3,32
2019_Nov_05,132,001,0,recog,20,STICKER,LF,lure,-,-,-,conservative,no,m,1,0.682666335257,3,35
2019_Nov_05,132,001,0,recog,21,DOCTOR,HF,target,left,yellow,imageability,liberal,no,z,1,0.635512350133,3,38
2019_Nov_05,132,001,0,recog,22,SANDAL,LF,target,right,aqua,pleasantness,conservative,no,z,1,0.929707479881,1,39
2019_Nov_05,132,001,0,recog,23,TAKEN,HF,target,left,yellow,imageability,conservative,no,z,1,1.01200919148,1,40
2019_Nov_05,132,001,0,recog,24,AGONIZED,LF,target,right,aqua,pleasantness,conservative,no,z,1,1.65916486298,1,41
2019_Nov_05,132,001,0,recog,25,BLEACH,LF,lure,-,-,-,conservative,no,m,1,0.906155416344,3,44
2019_Nov_05,132,001,0,recog,26,ROMANCES,LF,lure,-,-,-,conservative,yes,z,0,1.1296082037,-3,41
2019_Nov_05,132,001,0,recog,27,LABOUR,HF,lure,-,-,-,conservative,no,m,1,1.38857422104,3,44
2019_Nov_05,132,001,0,recog,28,LEARN,HF,lure,-,-,-,liberal,no,m,1,2.17675778959,1,45
2019_Nov_05,132,001,0,recog,29,FLOOR,HF,target,left,yellow,imageability,conservative,no,z,1,0.929857054034,1,46
2019_Nov_05,132,001,0,recog,30,MITIGATE,LF,target,right,aqua,pleasantness,liberal,no,z,1,2.57688954682,3,49
2019_Nov_05,132,001,0,recog,31,MIDDLE,HF,target,left,yellow,imageability,conservative,no,z,1,2.00031747847,1,50
2019_Nov_05,132,001,0,recog,32,COWARDS,LF,target,left,yellow,imageability,conservative,no,z,1,0.764943117829,1,51
2019_Nov_05,132,001,0,recog,33,HIKING,LF,target,left,yellow,imageability,conservative,no,z,1,0.541531390042,1,52
2019_Nov_05,132,001,0,recog,34,SLOWLY,HF,target,right,aqua,pleasantness,liberal,no,z,1,0.964998548251,3,55
2019_Nov_05,132,001,0,recog,35,NIBBLE,LF,lure,-,-,-,conservative,no,m,1,0.870808990873,3,58
2019_Nov_05,132,001,0,recog,36,ROCKER,LF,lure,-,-,-,conservative,no,m,1,1.27090225476,3,61
2019_Nov_05,132,001,0,recog,37,TRADE,HF,target,left,yellow,imageability,liberal,no,z,1,0.717869052228,3,64
2019_Nov_05,132,001,0,recog,38,CONCERNED,HF,target,right,aqua,pleasantness,conservative,no,z,1,1.00024745724,1,65
2019_Nov_05,132,001,0,recog,39,SHORT,HF,lure,-,-,-,conservative,no,m,1,0.894377184956,3,68
2019_Nov_05,132,001,0,recog,40,VISCOUS,LF,target,right,aqua,pleasantness,liberal,no,z,1,1.11774602015,3,71
2019_Nov_05,132,001,0,recog,41,JOVIAL,LF,lure,-,-,-,conservative,no,m,1,0.682654237348,3,74
2019_Nov_05,132,001,0,recog,42,NECESSARY,HF,lure,-,-,-,liberal,no,m,1,1.17670059947,1,75
2019_Nov_05,132,001,0,recog,43,VARIOUS,HF,lure,-,-,-,conservative,no,m,1,1.21214050879,3,78
2019_Nov_05,132,001,0,recog,44,LOBBIES,LF,target,left,yellow,imageability,conservative,no,z,1,0.800234552803,1,79
2019_Nov_05,132,001,0,recog,45,MONEY,HF,target,right,aqua,pleasantness,liberal,no,z,1,0.706243694423,3,82
2019_Nov_05,132,001,0,recog,46,PLACE,HF,lure,-,-,-,conservative,no,m,1,0.953215184416,3,85
2019_Nov_05,132,001,0,recog,47,JUTTED,LF,lure,-,-,-,liberal,yes,m,1,1.23563648202,1,86
2019_Nov_05,132,001,0,recog,48,GALACTIC,LF,lure,-,-,-,liberal,no,m,1,1.37668087621,1,87
2019_Nov_05,132,001,0,recog,49,FOLLOWED,HF,lure,-,-,-,liberal,no,z,0,0.83559710882,-1,86
2019_Nov_05,132,001,0,recog,50,EDUCATION,HF,lure,-,-,-,liberal,no,m,1,0.800347100021,1,87
2019_Nov_05,132,001,0,recog,51,FRONT,HF,target,right,aqua,pleasantness,conservative,no,z,1,0.576708444781,1,88
2019_Nov_05,132,001,0,recog,52,DURING,HF,target,left,yellow,imageability,liberal,no,z,1,0.600236312499,3,91
2019_Nov_05,132,001,0,recog,53,CIRCUSES,LF,target,left,yellow,imageability,liberal,no,m,0,1.90635044931,-3,88
2019_Nov_05,132,001,0,recog,54,SWEARS,LF,lure,-,-,-,liberal,no,m,1,1.24742901093,1,89
2019_Nov_05,132,001,0,recog,55,CUISINE,LF,target,right,aqua,pleasantness,liberal,no,z,1,0.659121237184,3,92
2019_Nov_05,132,001,0,recog,56,LONGER,HF,lure,-,-,-,conservative,no,m,1,1.5415599851,3,95
2019_Nov_05,132,001,0,recog,57,HIMSELF,HF,lure,-,-,-,liberal,no,m,1,1.14164489043,1,96
2019_Nov_05,132,001,0,recog,58,REQUIRED,HF,lure,-,-,-,conservative,no,m,1,1.83567629514,3,99
2019_Nov_05,132,001,0,recog,59,UPKEEP,LF,lure,-,-,-,conservative,no,m,1,0.753295763825,3,102
2019_Nov_05,132,001,0,recog,60,CABLED,LF,target,right,aqua,pleasantness,liberal,no,z,1,0.647337873349,3,105
2019_Nov_05,132,001,0,recog,61,DOING,HF,target,left,yellow,imageability,liberal,no,z,1,1.01198536226,3,108
2019_Nov_05,132,001,0,recog,62,DISARMED,LF,target,right,aqua,pleasantness,liberal,no,z,1,0.741378956383,3,111
2019_Nov_05,132,001,0,recog,63,AWAITS,LF,lure,-,-,-,conservative,no,m,1,0.564992535956,3,114
2019_Nov_05,132,001,0,recog,64,DIPLOMAS,LF,target,right,aqua,pleasantness,conservative,no,z,1,0.671087536074,1,115
2019_Nov_05,132,001,0,recog,65,ANEMONES,LF,target,right,aqua,pleasantness,conservative,no,z,1,1.04735891638,1,116
2019_Nov_05,132,001,0,recog,66,SOPHISTS,LF,target,left,yellow,imageability,liberal,no,z,1,0.694444566646,3,119
2019_Nov_05,132,001,0,recog,67,MOVED,HF,target,right,aqua,pleasantness,conservative,no,z,1,1.09445791101,1,120
2019_Nov_05,132,001,0,recog,68,SYRINGE,LF,target,left,yellow,imageability,conservative,no,z,1,0.741442378757,1,121
2019_Nov_05,132,001,0,recog,69,CHROMIUM,LF,lure,-,-,-,liberal,no,m,1,0.623744383637,1,122
2019_Nov_05,132,001,0,recog,70,JOYFULLY,LF,lure,-,-,-,liberal,yes,z,0,1.0002324265,-1,121
2019_Nov_05,132,001,0,recog,71,BIBLES,LF,lure,-,-,-,liberal,no,m,1,1.49413324711,1,122
2019_Nov_05,132,001,0,recog,72,MAGGOT,LF,target,left,yellow,imageability,liberal,no,z,1,0.600205884423,3,125
2019_Nov_05,132,001,0,recog,73,SEEMED,HF,target,left,yellow,imageability,liberal,no,z,1,0.953239746838,3,128
2019_Nov_05,132,001,0,recog,74,HYPNOSIS,LF,target,left,yellow,imageability,liberal,no,z,1,0.576766001502,3,131
2019_Nov_05,132,001,0,recog,75,HUMAN,HF,target,right,aqua,pleasantness,liberal,no,z,1,0.776817032683,3,134
2019_Nov_05,132,001,0,recog,76,PEOPLED,LF,target,right,aqua,pleasantness,conservative,no,z,1,0.964902131578,1,135
2019_Nov_05,132,001,0,recog,77,RUSSET,LF,lure,-,-,-,conservative,no,m,1,0.717674385866,3,138
2019_Nov_05,132,001,0,recog,78,GENERAL,HF,lure,-,-,-,liberal,no,m,1,0.870935102414,1,139
2019_Nov_05,132,001,0,recog,79,BAUXITE,LF,lure,-,-,-,liberal,no,m,1,0.541461368809,1,140
2019_Nov_05,132,001,0,recog,80,CHAIR,HF,target,left,yellow,imageability,conservative,no,z,1,0.553212838155,1,141
2019_Nov_05,132,001,0,recog,81,STOOD,HF,lure,-,-,-,conservative,no,m,1,0.788646588536,3,144
2019_Nov_05,132,001,0,recog,82,MOMENT,HF,lure,-,-,-,conservative,no,z,0,1.30615886242,-3,141
2019_Nov_05,132,001,0,recog,83,RUFFLES,LF,target,left,yellow,imageability,conservative,no,z,1,0.812184721147,1,142
2019_Nov_05,132,001,0,recog,84,WANTED,HF,lure,-,-,-,liberal,no,z,0,0.765024503766,-1,141
2019_Nov_05,132,001,0,recog,85,EITHER,HF,target,right,aqua,pleasantness,conservative,no,z,1,0.706348542972,1,142
2019_Nov_05,132,001,0,recog,86,PAPER,HF,lure,-,-,-,liberal,no,m,1,1.44734036625,1,143
2019_Nov_05,132,001,0,recog,87,ENTIRELY,HF,lure,-,-,-,conservative,yes,m,1,0.894402847188,3,146
2019_Nov_05,132,001,0,recog,88,GARDEN,HF,lure,-,-,-,liberal,no,m,1,1.29438173084,1,147
2019_Nov_05,132,001,0,recog,89,OFFER,HF,target,right,aqua,pleasantness,liberal,no,z,1,1.69450835562,3,150
2019_Nov_05,132,001,0,recog,90,WASHBASIN,LF,target,left,yellow,imageability,conservative,no,z,1,0.600079406279,1,151
2019_Nov_05,132,001,0,recog,91,SUCCESS,HF,lure,-,-,-,conservative,no,m,1,0.894425943197,3,154
2019_Nov_05,132,001,0,recog,92,ARCADES,LF,lure,-,-,-,liberal,no,m,1,0.67078435513,1,155
2019_Nov_05,132,001,0,recog,93,BASIC,HF,target,left,yellow,imageability,liberal,no,m,0,0.776801635344,-3,152
2019_Nov_05,132,001,0,recog,94,ANSWER,HF,lure,-,-,-,conservative,no,m,1,2.08266281587,3,155
2019_Nov_05,132,001,0,recog,95,JUROR,LF,lure,-,-,-,conservative,no,m,1,0.612124891485,3,158
2019_Nov_05,132,001,1,source,0,HARDLY,HF,target,left,yellow,imageability,conservative,no,2,1,1.8826579767,-,-
2019_Nov_05,132,001,1,source,1,COBALT,LF,target,right,aqua,pleasantness,conservative,no,9,1,0.647244756106,-,-
2019_Nov_05,132,001,1,source,2,CASES,HF,target,left,yellow,imageability,conservative,no,1,1,1.60010140248,-,-
2019_Nov_05,132,001,1,source,3,CARRIED,HF,target,right,aqua,pleasantness,liberal,no,2,0,0.859163103283,-,-
2019_Nov_05,132,001,1,source,4,PEGGED,LF,target,right,aqua,pleasantness,liberal,no,2,0,0.823817411018,-,-
2019_Nov_05,132,001,1,source,5,WRITE,HF,target,left,yellow,imageability,liberal,no,8,0,1.08266464888,-,-
2019_Nov_05,132,001,1,source,6,CAUGHT,HF,target,right,aqua,pleasantness,conservative,no,2,0,2.88248787276,-,-
2019_Nov_05,132,001,1,source,7,SPRATS,LF,target,right,aqua,pleasantness,liberal,no,1,0,1.42388178656,-,-
2019_Nov_05,132,001,1,source,8,KRONOR,LF,target,right,aqua,pleasantness,liberal,no,7,1,1.09432336759,-,-
2019_Nov_05,132,001,1,source,9,YANKED,LF,target,left,yellow,imageability,liberal,yes,8,0,0.72971070599,-,-
2019_Nov_05,132,001,1,source,10,AUSPICES,LF,target,left,yellow,imageability,conservative,no,3,1,1.62381550468,-,-
2019_Nov_05,132,001,1,source,11,NIPPED,LF,target,right,aqua,pleasantness,conservative,no,8,1,0.929866585721,-,-
2019_Nov_05,132,001,1,source,12,LIQUEUR,LF,target,right,aqua,pleasantness,conservative,no,9,1,1.01203192088,-,-
2019_Nov_05,132,001,1,source,13,WOODCOCK,LF,target,left,yellow,imageability,conservative,no,3,1,1.22372957286,-,-
2019_Nov_05,132,001,1,source,14,DULLED,LF,target,left,yellow,imageability,liberal,no,2,1,1.38833922831,-,-
2019_Nov_05,132,001,1,source,15,BIKINI,LF,target,left,yellow,imageability,liberal,no,1,1,0.965153988058,-,-
2019_Nov_05,132,001,1,source,16,PRACTICE,HF,target,left,yellow,imageability,liberal,no,7,0,1.07086772072,-,-
2019_Nov_05,132,001,1,source,17,SPOKE,HF,target,right,aqua,pleasantness,liberal,no,9,1,0.964912763075,-,-
2019_Nov_05,132,001,1,source,18,HEALTH,HF,target,right,aqua,pleasantness,conservative,no,9,1,0.77651165212,-,-
2019_Nov_05,132,001,1,source,19,BEGAN,HF,target,right,aqua,pleasantness,conservative,no,2,0,1.07081529645,-,-
2019_Nov_05,132,001,1,source,20,CRONE,LF,target,right,aqua,pleasantness,liberal,no,8,1,1.12974567995,-,-
2019_Nov_05,132,001,1,source,21,ALERTING,LF,target,right,aqua,pleasantness,conservative,no,9,1,0.976695027099,-,-
2019_Nov_05,132,001,1,source,22,TWOFOLD,LF,target,left,yellow,imageability,conservative,no,2,1,1.04708433049,-,-
2019_Nov_05,132,001,1,source,23,FIGURE,HF,target,left,yellow,imageability,conservative,no,1,1,1.37648144401,-,-
2019_Nov_05,132,001,1,source,24,RETURN,HF,target,right,aqua,pleasantness,liberal,no,1,0,0.717651289857,-,-
2019_Nov_05,132,001,1,source,25,HAWKED,LF,target,right,aqua,pleasantness,liberal,yes,3,0,0.859197930597,-,-
2019_Nov_05,132,001,1,source,26,BEAUTIFUL,HF,target,right,aqua,pleasantness,liberal,no,9,1,2.16507120903,-,-
2019_Nov_05,132,001,1,source,27,DOWDY,LF,target,left,yellow,imageability,liberal,yes,2,1,1.30611047078,-,-
2019_Nov_05,132,001,1,source,28,EXACTLY,HF,target,left,yellow,imageability,liberal,no,1,1,2.27108555642,-,-
2019_Nov_05,132,001,1,source,29,SPUDS,LF,target,left,yellow,imageability,liberal,no,1,1,0.917741547594,-,-
2019_Nov_05,132,001,1,source,30,HAPPEN,HF,target,right,aqua,pleasantness,conservative,no,7,1,0.906126821285,-,-
2019_Nov_05,132,001,1,source,31,PUPPETS,LF,target,left,yellow,imageability,liberal,no,1,1,0.976774213416,-,-
2019_Nov_05,132,001,1,source,32,HUDDLE,LF,target,left,yellow,imageability,conservative,no,2,1,1.16493923183,-,-
2019_Nov_05,132,001,1,source,33,SUGARY,LF,target,left,yellow,imageability,conservative,no,1,1,0.823800913869,-,-
2019_Nov_05,132,001,1,source,34,WESTERN,HF,target,left,yellow,imageability,conservative,no,8,0,0.988520183712,-,-
2019_Nov_05,132,001,1,source,35,GLIDED,LF,target,right,aqua,pleasantness,liberal,no,9,1,0.917886355904,-,-
2019_Nov_05,132,001,1,source,36,WEAKENS,LF,target,right,aqua,pleasantness,conservative,no,9,1,0.635752108702,-,-
2019_Nov_05,132,001,1,source,37,GLASS,HF,target,right,aqua,pleasantness,liberal,no,9,1,0.7178881156,-,-
2019_Nov_05,132,001,1,source,38,NEARLY,HF,target,left,yellow,imageability,conservative,yes,7,0,1.4355551694,-,-
2019_Nov_05,132,001,1,source,39,ENOUGH,HF,target,left,yellow,imageability,conservative,no,2,1,1.47063764048,-,-
2019_Nov_05,132,001,1,source,40,TOTAL,HF,target,left,yellow,imageability,liberal,no,2,1,0.917995970296,-,-
2019_Nov_05,132,001,1,source,41,PLEASE,HF,target,left,yellow,imageability,liberal,no,1,1,0.882722865489,-,-
2019_Nov_05,132,001,1,source,42,CALLED,HF,target,right,aqua,pleasantness,conservative,no,8,1,0.706227563877,-,-
2019_Nov_05,132,001,1,source,43,VOICE,HF,target,right,aqua,pleasantness,liberal,no,2,0,1.28263356092,-,-
2019_Nov_05,132,001,1,source,44,DOUBT,HF,target,right,aqua,pleasantness,conservative,no,1,0,0.823900996574,-,-
2019_Nov_05,132,001,1,source,45,MADDENED,LF,target,right,aqua,pleasantness,conservative,no,2,0,0.682550122006,-,-
2019_Nov_05,132,001,1,source,46,PETERED,LF,target,left,yellow,imageability,conservative,no,7,0,0.423780604045,-,-
2019_Nov_05,132,001,1,source,47,SUDDENLY,HF,target,left,yellow,imageability,liberal,no,2,1,1.77673454694,-,-
2019_Nov_05,132,001,1,recog,0,HOWEVER,HF,lure,-,-,-,liberal,no,m,1,1.23560568734,1,159
2019_Nov_05,132,001,1,recog,1,ENSCONCED,LF,lure,-,-,-,conservative,no,m,1,1.2826753537,3,162
2019_Nov_05,132,001,1,recog,2,RETURN,HF,target,right,aqua,pleasantness,liberal,no,z,1,0.63550538467,3,165
2019_Nov_05,132,001,1,recog,3,HAWKED,LF,target,right,aqua,pleasantness,liberal,no,z,1,1.18855801717,3,168
2019_Nov_05,132,001,1,recog,4,EXACTLY,HF,target,left,yellow,imageability,liberal,no,z,1,0.706014200746,3,171
2019_Nov_05,132,001,1,recog,5,WEEKS,HF,lure,-,-,-,conservative,no,m,1,0.753130059126,3,174
2019_Nov_05,132,001,1,recog,6,REACHED,HF,lure,-,-,-,conservative,no,m,1,0.741571789728,3,177
2019_Nov_05,132,001,1,recog,7,PUPPETS,LF,target,left,yellow,imageability,liberal,no,z,1,0.517859080618,3,180
2019_Nov_05,132,001,1,recog,8,PEGGED,LF,target,right,aqua,pleasantness,liberal,no,z,1,0.823794315009,3,183
2019_Nov_05,132,001,1,recog,9,ALONE,HF,lure,-,-,-,liberal,no,z,0,1.2353358673,-1,182
2019_Nov_05,132,001,1,recog,10,CASES,HF,target,left,yellow,imageability,conservative,no,z,1,1.18853015532,1,183
2019_Nov_05,132,001,1,recog,11,TOTAL,HF,target,left,yellow,imageability,liberal,no,z,1,0.847169309144,3,186
2019_Nov_05,132,001,1,recog,12,WEAKENS,LF,target,right,aqua,pleasantness,conservative,yes,m,0,1.38862957814,-1,185
2019_Nov_05,132,001,1,recog,13,ENOUGH,HF,target,left,yellow,imageability,conservative,no,m,0,0.929660188053,-1,184
2019_Nov_05,132,001,1,recog,14,COBALT,LF,target,right,aqua,pleasantness,conservative,no,z,1,0.741306368926,1,185
2019_Nov_05,132,001,1,recog,15,NIPPED,LF,target,right,aqua,pleasantness,conservative,no,z,1,0.835550183595,1,186
2019_Nov_05,132,001,1,recog,16,BEGAN,HF,target,right,aqua,pleasantness,conservative,no,z,1,0.576803028437,1,187
2019_Nov_05,132,001,1,recog,17,MADDENED,LF,target,right,aqua,pleasantness,conservative,no,z,1,0.541480432181,1,188
2019_Nov_05,132,001,1,recog,18,FIGURE,HF,target,left,yellow,imageability,conservative,no,z,1,0.506078283006,1,189
2019_Nov_05,132,001,1,recog,19,AUSPICES,LF,target,left,yellow,imageability,conservative,no,z,1,1.32974428685,1,190
2019_Nov_05,132,001,1,recog,20,BIKINI,LF,target,left,yellow,imageability,liberal,no,z,1,0.529909331667,3,193
2019_Nov_05,132,001,1,recog,21,HEALTH,HF,target,right,aqua,pleasantness,conservative,no,z,1,0.612013077474,1,194
2019_Nov_05,132,001,1,recog,22,REGAINING,LF,lure,-,-,-,conservative,no,m,1,0.917867659135,3,197
2019_Nov_05,132,001,1,recog,23,SUBJECT,HF,lure,-,-,-,conservative,no,m,1,1.0944461797,3,200
2019_Nov_05,132,001,1,recog,24,CARRIED,HF,target,right,aqua,pleasantness,liberal,no,z,1,0.612259801506,3,203
2019_Nov_05,132,001,1,recog,25,ENVIRONS,LF,lure,-,-,-,conservative,no,m,1,0.682696396729,3,206
2019_Nov_05,132,001,1,recog,26,HAVING,HF,lure,-,-,-,liberal,no,m,1,0.847381572464,1,207
2019_Nov_05,132,001,1,recog,27,KRONOR,LF,target,right,aqua,pleasantness,liberal,no,z,1,0.78847795101,3,210
2019_Nov_05,132,001,1,recog,28,SPUDS,LF,target,left,yellow,imageability,liberal,yes,z,1,1.29422079198,3,213
2019_Nov_05,132,001,1,recog,29,GUSHED,LF,lure,-,-,-,liberal,no,m,1,0.941444285094,1,214
2019_Nov_05,132,001,1,recog,30,ALMOST,HF,lure,-,-,-,conservative,no,z,0,0.965137490908,-3,211
2019_Nov_05,132,001,1,recog,31,SUGARY,LF,target,left,yellow,imageability,conservative,no,z,1,0.682629674925,1,212
2019_Nov_05,132,001,1,recog,32,TASSELS,LF,lure,-,-,-,conservative,no,m,1,0.623852531616,3,215
2019_Nov_05,132,001,1,recog,33,ALERTING,LF,target,right,aqua,pleasantness,conservative,no,z,1,0.729723537106,1,216
2019_Nov_05,132,001,1,recog,34,CALLED,HF,target,right,aqua,pleasantness,conservative,no,m,0,1.91825405903,-1,215
2019_Nov_05,132,001,1,recog,35,CACOPHONY,LF,lure,-,-,-,liberal,yes,m,1,0.776807134394,1,216
2019_Nov_05,132,001,1,recog,36,GLIDED,LF,target,right,aqua,pleasantness,liberal,no,z,1,0.9532023533,3,219
2019_Nov_05,132,001,1,recog,37,PETERED,LF,target,left,yellow,imageability,conservative,no,z,1,0.741520465263,1,220
2019_Nov_05,132,001,1,recog,38,BUDDIES,LF,lure,-,-,-,liberal,no,m,1,0.694459963985,1,221
2019_Nov_05,132,001,1,recog,39,ADVERSELY,LF,lure,-,-,-,conservative,no,m,1,0.635442328899,3,224
2019_Nov_05,132,001,1,recog,40,QUESTION,HF,lure,-,-,-,conservative,no,m,1,0.765060064288,3,227
2019_Nov_05,132,001,1,recog,41,TIMES,HF,lure,-,-,-,liberal,no,m,1,0.541432407147,1,228
2019_Nov_05,132,001,1,recog,42,BEAUTIFUL,HF,target,right,aqua,pleasantness,liberal,no,z,1,0.553227502288,3,231
2019_Nov_05,132,001,1,recog,43,HARDLY,HF,target,left,yellow,imageability,conservative,no,z,1,0.564794203562,1,232
2019_Nov_05,132,001,1,recog,44,VOICE,HF,target,right,aqua,pleasantness,liberal,no,z,1,0.576707711574,3,235
2019_Nov_05,132,001,1,recog,45,YANKED,LF,target,left,yellow,imageability,liberal,no,z,1,1.08266391568,3,238
2019_Nov_05,132,001,1,recog,46,NUANCE,LF,lure,-,-,-,conservative,no,m,1,0.670866840876,3,241
2019_Nov_05,132,001,1,recog,47,DWELT,LF,lure,-,-,-,liberal,no,m,1,1.61222534079,1,242
2019_Nov_05,132,001,1,recog,48,SINCE,HF,lure,-,-,-,liberal,no,z,0,1.50628064804,-1,241
2019_Nov_05,132,001,1,recog,49,ABLAZE,LF,lure,-,-,-,conservative,no,m,1,0.647391764036,3,244
2019_Nov_05,132,001,1,recog,50,CAUGHT,HF,target,right,aqua,pleasantness,conservative,no,z,1,0.659107672861,1,245
2019_Nov_05,132,001,1,recog,51,STYLED,LF,lure,-,-,-,conservative,no,m,1,0.612066601558,3,248
2019_Nov_05,132,001,1,recog,52,HISTORY,HF,lure,-,-,-,conservative,no,m,1,1.01208397856,3,251
2019_Nov_05,132,001,1,recog,53,EVIDENCE,HF,lure,-,-,-,liberal,no,m,1,0.812172989841,1,252
2019_Nov_05,132,001,1,recog,54,GLASS,HF,target,right,aqua,pleasantness,liberal,no,z,1,0.588549365336,3,255
2019_Nov_05,132,001,1,recog,55,THEORY,HF,lure,-,-,-,liberal,no,m,1,0.788462920274,1,256
2019_Nov_05,132,001,1,recog,56,TWOFOLD,LF,target,left,yellow,imageability,conservative,no,z,1,0.776706685085,1,257
2019_Nov_05,132,001,1,recog,57,SHALL,HF,lure,-,-,-,liberal,no,m,1,0.753067003355,1,258
2019_Nov_05,132,001,1,recog,58,NEWMARKET,LF,lure,-,-,-,liberal,no,m,1,0.529694502123,1,259
2019_Nov_05,132,001,1,recog,59,HUDDLE,LF,target,left,yellow,imageability,conservative,no,z,1,1.17678711785,1,260
2019_Nov_05,132,001,1,recog,60,FRACTIONS,LF,lure,-,-,-,conservative,no,m,1,0.57658343305,3,263
2019_Nov_05,132,001,1,recog,61,DULLED,LF,target,left,yellow,imageability,liberal,no,z,1,0.753302729288,3,266
2019_Nov_05,132,001,1,recog,62,LOCAL,HF,lure,-,-,-,liberal,no,m,1,0.553350314399,1,267
2019_Nov_05,132,001,1,recog,63,WOODCOCK,LF,target,left,yellow,imageability,conservative,no,z,1,0.673664757396,1,268
2019_Nov_05,132,001,1,recog,64,TACITLY,LF,lure,-,-,-,liberal,no,m,1,0.635342246193,1,269
2019_Nov_05,132,001,1,recog,65,PRACTICE,HF,target,left,yellow,imageability,liberal,no,z,1,0.600331629361,3,272
2019_Nov_05,132,001,1,recog,66,LIQUEUR,LF,target,right,aqua,pleasantness,conservative,no,z,1,0.835560815091,1,273
2019_Nov_05,132,001,1,recog,67,UNDER,HF,lure,-,-,-,conservative,no,m,1,0.635596668895,3,276
2019_Nov_05,132,001,1,recog,68,DOWDY,LF,target,left,yellow,imageability,liberal,no,z,1,1.0709091469,3,279
2019_Nov_05,132,001,1,recog,69,BURGH,LF,lure,-,-,-,liberal,no,m,1,0.835554216231,1,280
2019_Nov_05,132,001,1,recog,70,DRINK,HF,lure,-,-,-,liberal,no,m,1,0.788549072054,1,281
2019_Nov_05,132,001,1,recog,71,DOUBT,HF,target,right,aqua,pleasantness,conservative,no,z,1,0.729669646419,1,282
2019_Nov_05,132,001,1,recog,72,SPRATS,LF,target,right,aqua,pleasantness,liberal,no,z,1,0.894546922292,3,285
2019_Nov_05,132,001,1,recog,73,CRONE,LF,target,right,aqua,pleasantness,liberal,no,z,1,0.741650242838,3,288
2019_Nov_05,132,001,1,recog,74,HAPPEN,HF,target,right,aqua,pleasantness,conservative,no,z,1,0.506202194927,1,289
2019_Nov_05,132,001,1,recog,75,FRIEND,HF,lure,-,-,-,conservative,no,m,1,0.612230106638,3,292
2019_Nov_05,132,001,1,recog,76,PLEASE,HF,target,left,yellow,imageability,liberal,no,z,1,1.00040143063,3,295
2019_Nov_05,132,001,1,recog,77,EXCEPT,HF,lure,-,-,-,liberal,no,m,1,0.847277090519,1,296
2019_Nov_05,132,001,1,recog,78,COMES,HF,lure,-,-,-,liberal,no,m,1,0.694443100232,1,297
2019_Nov_05,132,001,1,recog,79,PAINTWORK,LF,lure,-,-,-,conservative,no,m,1,0.529643910866,3,300
2019_Nov_05,132,001,1,recog,80,ORIGINALS,LF,lure,-,-,-,liberal,no,m,1,0.50629751179,1,301
2019_Nov_05,132,001,1,recog,81,RUNNING,HF,lure,-,-,-,conservative,no,m,1,0.647133675301,3,304
2019_Nov_05,132,001,1,recog,82,SUDDENLY,HF,target,left,yellow,imageability,liberal,no,z,1,1.1178948611,3,307
2019_Nov_05,132,001,1,recog,83,LARGE,HF,lure,-,-,-,conservative,no,m,1,1.77678990404,3,310
2019_Nov_05,132,001,1,recog,84,GORGED,LF,lure,-,-,-,liberal,no,m,1,0.682707761432,1,311
2019_Nov_05,132,001,1,recog,85,ELATION,LF,lure,-,-,-,liberal,no,m,1,0.694311856245,1,312
2019_Nov_05,132,001,1,recog,86,ENFORCING,LF,lure,-,-,-,liberal,yes,z,0,1.11793702048,-1,311
2019_Nov_05,132,001,1,recog,87,WESTERN,HF,target,left,yellow,imageability,conservative,no,z,1,0.694422203843,1,312
2019_Nov_05,132,001,1,recog,88,GATEHOUSE,LF,lure,-,-,-,conservative,no,m,1,0.894405413411,3,315
2019_Nov_05,132,001,1,recog,89,SPOKE,HF,target,right,aqua,pleasantness,liberal,no,z,1,0.600247310598,3,318
2019_Nov_05,132,001,1,recog,90,DALES,LF,lure,-,-,-,conservative,no,m,1,0.56499400237,3,321
2019_Nov_05,132,001,1,recog,91,NUCLEAR,HF,lure,-,-,-,conservative,no,m,1,0.647267118909,3,324
2019_Nov_05,132,001,1,recog,92,ITSELF,HF,lure,-,-,-,conservative,no,m,1,0.518051913963,3,327
2019_Nov_05,132,001,1,recog,93,NEARLY,HF,target,left,yellow,imageability,conservative,no,z,1,0.894410545858,1,328
2019_Nov_05,132,001,1,recog,94,OPTIC,LF,lure,-,-,-,liberal,no,m,1,0.753233074658,1,329
2019_Nov_05,132,001,1,recog,95,WRITE,HF,target,left,yellow,imageability,liberal,no,m,0,1.21231794479,-3,326
2019_Nov_05,132,001,2,source,0,FITFUL,LF,target,left,yellow,imageability,liberal,no,1,1,1.42359253654,-,-
2019_Nov_05,132,001,2,source,1,CULINARY,LF,target,right,aqua,pleasantness,conservative,no,1,0,0.753170752094,-,-
2019_Nov_05,132,001,2,source,2,DAYBREAK,LF,target,right,aqua,pleasantness,conservative,no,2,0,1.25885970238,-,-
2019_Nov_05,132,001,2,source,3,FUTURE,HF,target,right,aqua,pleasantness,conservative,no,8,1,0.764969879871,-,-
2019_Nov_05,132,001,2,source,4,IDEAS,HF,target,right,aqua,pleasantness,conservative,no,8,1,0.612200045166,-,-
2019_Nov_05,132,001,2,source,5,BAIZE,LF,target,right,aqua,pleasantness,conservative,yes,7,1,1.28258810211,-,-
2019_Nov_05,132,001,2,source,6,VALUE,HF,target,left,yellow,imageability,conservative,no,7,0,1.62382980221,-,-
2019_Nov_05,132,001,2,source,7,TREES,HF,target,right,aqua,pleasantness,liberal,no,2,0,0.859076218296,-,-
2019_Nov_05,132,001,2,source,8,WHITE,HF,target,right,aqua,pleasantness,conservative,no,9,1,1.8708339199,-,-
2019_Nov_05,132,001,2,source,9,BOUGH,LF,target,left,yellow,imageability,conservative,yes,3,1,1.97649779451,-,-
2019_Nov_05,132,001,2,source,10,MAUSOLEUM,LF,target,left,yellow,imageability,conservative,no,2,1,1.21187215516,-,-
2019_Nov_05,132,001,2,source,11,RAYON,LF,target,right,aqua,pleasantness,liberal,no,8,1,0.988506252786,-,-
2019_Nov_05,132,001,2,source,12,ADJOURNED,LF,target,left,yellow,imageability,liberal,no,8,0,1.22357669928,-,-
2019_Nov_05,132,001,2,source,13,TRIED,HF,target,right,aqua,pleasantness,liberal,no,8,1,0.68276715117,-,-
2019_Nov_05,132,001,2,source,14,MORNING,HF,target,left,yellow,imageability,conservative,no,2,1,1.31795432416,-,-
2019_Nov_05,132,001,2,source,15,HUSBAND,HF,target,right,aqua,pleasantness,conservative,no,9,1,1.01185558469,-,-
2019_Nov_05,132,001,2,source,16,POLICE,HF,target,left,yellow,imageability,conservative,no,2,1,1.69441010593,-,-
2019_Nov_05,132,001,2,source,17,BUZZARD,LF,target,left,yellow,imageability,conservative,no,1,1,1.81209893597,-,-
2019_Nov_05,132,001,2,source,18,WHATEVER,HF,target,left,yellow,imageability,conservative,no,8,0,0.870964797283,-,-
2019_Nov_05,132,001,2,source,19,DUPLICITY,LF,target,right,aqua,pleasantness,conservative,no,8,1,0.717964002487,-,-
2019_Nov_05,132,001,2,source,20,ABOVE,HF,target,left,yellow,imageability,liberal,no,1,1,1.22377869771,-,-
2019_Nov_05,132,001,2,source,21,APTLY,LF,target,left,yellow,imageability,conservative,no,8,0,0.894274536027,-,-
2019_Nov_05,132,001,2,source,22,COILING,LF,target,right,aqua,pleasantness,liberal,yes,3,0,1.01198206283,-,-
2019_Nov_05,132,001,2,source,23,SAVOURED,LF,target,right,aqua,pleasantness,liberal,no,7,1,1.11789082846,-,-
2019_Nov_05,132,001,2,source,24,SNOBBISH,LF,target,left,yellow,imageability,conservative,no,2,1,1.57674987096,-,-
2019_Nov_05,132,001,2,source,25,QUICKLY,HF,target,left,yellow,imageability,conservative,no,3,1,0.882678873091,-,-
2019_Nov_05,132,001,2,source,26,BUILDING,HF,target,right,aqua,pleasantness,liberal,no,1,0,0.753183216607,-,-
2019_Nov_05,132,001,2,source,27,SIMILAR,HF,target,left,yellow,imageability,liberal,no,8,0,0.635659724666,-,-
2019_Nov_05,132,001,2,source,28,ENERGY,HF,target,right,aqua,pleasantness,conservative,no,9,1,0.824041772248,-,-
2019_Nov_05,132,001,2,source,29,SPACE,HF,target,left,yellow,imageability,conservative,no,2,1,1.4004041435,-,-
2019_Nov_05,132,001,2,source,30,INSIDE,HF,target,left,yellow,imageability,liberal,no,7,0,0.600049344807,-,-
2019_Nov_05,132,001,2,source,31,IMPORTANT,HF,target,right,aqua,pleasantness,liberal,no,8,1,0.447430184064,-,-
2019_Nov_05,132,001,2,source,32,EFFECT,HF,target,right,aqua,pleasantness,liberal,no,2,0,0.600322097675,-,-
2019_Nov_05,132,001,2,source,33,OVENS,LF,target,right,aqua,pleasantness,conservative,no,1,0,0.588489242392,-,-
2019_Nov_05,132,001,2,source,34,PRUDENTLY,LF,target,right,aqua,pleasantness,liberal,no,9,1,0.706097786303,-,-
2019_Nov_05,132,001,2,source,35,KNEAD,LF,target,left,yellow,imageability,liberal,no,8,0,0.318038276319,-,-
2019_Nov_05,132,001,2,source,36,APART,HF,target,left,yellow,imageability,liberal,no,2,1,0.506455151216,-,-
2019_Nov_05,132,001,2,source,37,ROLLERS,LF,target,left,yellow,imageability,liberal,no,1,1,0.917937313766,-,-
2019_Nov_05,132,001,2,source,38,ZIGZAG,LF,target,right,aqua,pleasantness,conservative,no,9,1,1.00044139039,-,-
2019_Nov_05,132,001,2,source,39,NOTHING,HF,target,right,aqua,pleasantness,conservative,no,2,0,0.788323977617,-,-
2019_Nov_05,132,001,2,source,40,RANGE,HF,target,left,yellow,imageability,liberal,no,1,1,0.729684310551,-,-
2019_Nov_05,132,001,2,source,41,AMBIENCE,LF,target,left,yellow,imageability,liberal,no,7,0,1.0591404472,-,-
2019_Nov_05,132,001,2,source,42,HOSPITAL,HF,target,left,yellow,imageability,liberal,no,1,1,0.894299465052,-,-
2019_Nov_05,132,001,2,source,43,FONDLE,LF,target,left,yellow,imageability,conservative,no,8,0,0.835603341076,-,-
2019_Nov_05,132,001,2,source,44,CERTAIN,HF,target,right,aqua,pleasantness,liberal,no,2,0,0.823865436053,-,-
2019_Nov_05,132,001,2,source,45,INEDIBLE,LF,target,left,yellow,imageability,liberal,yes,3,1,0.870880845123,-,-
2019_Nov_05,132,001,2,source,46,AFIELD,LF,target,right,aqua,pleasantness,liberal,no,2,0,1.12973871448,-,-
2019_Nov_05,132,001,2,source,47,MESSED,LF,target,right,aqua,pleasantness,liberal,no,8,1,1.11798687853,-,-
2019_Nov_05,132,001,2,recog,0,DEVELOPED,HF,lure,-,-,-,conservative,no,z,0,1.22385165177,-3,323
2019_Nov_05,132,001,2,recog,1,LEMURS,LF,lure,-,-,-,liberal,no,m,1,1.10612836102,1,324
2019_Nov_05,132,001,2,recog,2,MUSIC,HF,lure,-,-,-,conservative,no,m,1,0.976979144671,3,327
2019_Nov_05,132,001,2,recog,3,ABOVE,HF,target,left,yellow,imageability,liberal,no,z,1,0.964991216184,3,330
2019_Nov_05,132,001,2,recog,4,SECOND,HF,lure,-,-,-,conservative,no,m,1,0.800203024917,3,333
2019_Nov_05,132,001,2,recog,5,PICTURE,HF,lure,-,-,-,liberal,no,z,0,0.929635992234,-1,332
2019_Nov_05,132,001,2,recog,6,FONDLE,LF,target,left,yellow,imageability,conservative,no,z,1,0.941432553788,1,333
2019_Nov_05,132,001,2,recog,7,DRUDGERY,LF,lure,-,-,-,conservative,no,m,1,0.859352637198,3,336
2019_Nov_05,132,001,2,recog,8,LOUDEST,LF,lure,-,-,-,liberal,no,m,1,0.764950449896,1,337
2019_Nov_05,132,001,2,recog,9,WILDFOWL,LF,lure,-,-,-,liberal,no,m,1,0.729388461674,1,338
2019_Nov_05,132,001,2,recog,10,CERTAIN,HF,target,right,aqua,pleasantness,liberal,no,z,1,0.635548643861,3,341
2019_Nov_05,132,001,2,recog,11,ACTION,HF,lure,-,-,-,conservative,no,z,0,0.917941346402,-3,338
2019_Nov_05,132,001,2,recog,12,GREATER,HF,lure,-,-,-,conservative,no,m,1,0.541392080782,3,341
2019_Nov_05,132,001,2,recog,13,RAYON,LF,target,right,aqua,pleasantness,liberal,yes,z,1,1.04731455738,3,344
2019_Nov_05,132,001,2,recog,14,HOSPITAL,HF,target,left,yellow,imageability,liberal,no,z,1,0.894359221393,3,347
2019_Nov_05,132,001,2,recog,15,FUTURE,HF,target,right,aqua,pleasantness,conservative,no,z,1,1.20031608538,1,348
2019_Nov_05,132,001,2,recog,16,NOTHING,HF,target,right,aqua,pleasantness,conservative,no,z,1,0.635613166045,1,349
2019_Nov_05,132,001,2,recog,17,MESSED,LF,target,right,aqua,pleasantness,liberal,no,z,1,0.600400917388,3,352
2019_Nov_05,132,001,2,recog,18,MAUSOLEUM,LF,target,left,yellow,imageability,conservative,no,z,1,0.623619371906,1,353
2019_Nov_05,132,001,2,recog,19,KITCHEN,HF,lure,-,-,-,liberal,no,z,0,0.94161512224,-1,352
2019_Nov_05,132,001,2,recog,20,YELLOWED,LF,lure,-,-,-,liberal,no,m,1,1.04710339387,1,353
2019_Nov_05,132,001,2,recog,21,CULINARY,LF,target,right,aqua,pleasantness,conservative,no,z,1,0.753212911476,1,354
2019_Nov_05,132,001,2,recog,22,COILING,LF,target,right,aqua,pleasantness,liberal,no,z,1,0.882350029915,3,357
2019_Nov_05,132,001,2,recog,23,WHITE,HF,target,right,aqua,pleasantness,conservative,no,z,1,0.564909317003,1,358
2019_Nov_05,132,001,2,recog,24,USUAL,HF,lure,-,-,-,conservative,no,m,1,1.20027979165,3,361
2019_Nov_05,132,001,2,recog,25,BUSINESS,HF,lure,-,-,-,liberal,no,z,0,1.23568634007,-1,360
2019_Nov_05,132,001,2,recog,26,APART,HF,target,left,yellow,imageability,liberal,no,z,1,1.24743524319,3,363
2019_Nov_05,132,001,2,recog,27,RANGE,HF,target,left,yellow,imageability,liberal,no,z,1,0.541603977499,3,366
2019_Nov_05,132,001,2,recog,28,ZIGZAG,LF,target,right,aqua,pleasantness,conservative,no,z,1,0.529507534431,1,367
2019_Nov_05,132,001,2,recog,29,LIFEBOAT,LF,lure,-,-,-,conservative,yes,m,1,0.953263209451,3,370
2019_Nov_05,132,001,2,recog,30,POETICAL,LF,lure,-,-,-,conservative,no,m,1,1.62379204207,3,373
2019_Nov_05,132,001,2,recog,31,IDEAS,HF,target,right,aqua,pleasantness,conservative,no,z,1,1.09435636189,1,374
2019_Nov_05,132,001,2,recog,32,DWARFED,LF,lure,-,-,-,liberal,no,z,0,0.847352244199,-1,373
2019_Nov_05,132,001,2,recog,33,SAVOURED,LF,target,right,aqua,pleasantness,liberal,no,z,1,0.741514599611,3,376
2019_Nov_05,132,001,2,recog,34,BINDINGS,LF,lure,-,-,-,conservative,no,z,0,1.18845903428,-3,373
2019_Nov_05,132,001,2,recog,35,BUILDING,HF,target,right,aqua,pleasantness,liberal,no,z,1,0.953239013632,3,376
2019_Nov_05,132,001,2,recog,36,GERANIUMS,LF,lure,-,-,-,liberal,no,m,1,0.647326142043,1,377
2019_Nov_05,132,001,2,recog,37,PRUDENTLY,LF,target,right,aqua,pleasantness,liberal,no,z,1,0.835602974473,3,380
2019_Nov_05,132,001,2,recog,38,PUCKERED,LF,lure,-,-,-,liberal,no,m,1,0.800410522395,1,381
2019_Nov_05,132,001,2,recog,39,WHATEVER,HF,target,left,yellow,imageability,conservative,no,z,1,1.42369518547,1,382
2019_Nov_05,132,001,2,recog,40,AMEND,LF,lure,-,-,-,conservative,no,m,1,0.788619459891,3,385
2019_Nov_05,132,001,2,recog,41,TRIED,HF,target,right,aqua,pleasantness,liberal,no,z,1,0.647386998193,3,388
2019_Nov_05,132,001,2,recog,42,CLEAR,HF,lure,-,-,-,liberal,no,z,0,0.541417743014,-1,387
2019_Nov_05,132,001,2,recog,43,KNEAD,LF,target,left,yellow,imageability,liberal,no,z,1,0.729615022524,3,390
2019_Nov_05,132,001,2,recog,44,DIVAN,LF,lure,-,-,-,conservative,no,m,1,0.741284006124,3,393
2019_Nov_05,132,001,2,recog,45,MEANS,HF,lure,-,-,-,conservative,no,m,1,0.647269685132,3,396
2019_Nov_05,132,001,2,recog,46,IMPORTANT,HF,target,right,aqua,pleasantness,liberal,no,m,0,0.741227915816,-3,393
2019_Nov_05,132,001,2,recog,47,MODERN,HF,lure,-,-,-,liberal,no,z,0,1.35321496445,-1,392
2019_Nov_05,132,001,2,recog,48,INSIDE,HF,target,left,yellow,imageability,liberal,no,z,1,2.60034152765,3,395
2019_Nov_05,132,001,2,recog,49,LAWFUL,LF,lure,-,-,-,liberal,no,m,1,0.717889582013,1,396
2019_Nov_05,132,001,2,recog,50,AMBIENCE,LF,target,left,yellow,imageability,liberal,no,z,1,0.612094096807,3,399
2019_Nov_05,132,001,2,recog,51,HANDS,HF,lure,-,-,-,conservative,no,z,0,1.75344387157,-3,396
2019_Nov_05,132,001,2,recog,52,POLICE,HF,target,left,yellow,imageability,conservative,no,z,1,0.529768555994,1,397
2019_Nov_05,132,001,2,recog,53,DAYBREAK,LF,target,right,aqua,pleasantness,conservative,no,z,1,0.647365368598,1,398
2019_Nov_05,132,001,2,recog,54,SLEEP,HF,lure,-,-,-,conservative,no,m,1,0.635614632458,3,401
2019_Nov_05,132,001,2,recog,55,QUICKLY,HF,target,left,yellow,imageability,conservative,no,m,0,0.541553752845,-1,400
2019_Nov_05,132,001,2,recog,56,PREPARED,HF,lure,-,-,-,conservative,no,m,1,0.659064780273,3,403
2019_Nov_05,132,001,2,recog,57,MORNING,HF,target,left,yellow,imageability,conservative,no,z,1,0.647411560616,1,404
2019_Nov_05,132,001,2,recog,58,CAIRN,LF,lure,-,-,-,liberal,no,m,1,0.976784844912,1,405
2019_Nov_05,132,001,2,recog,59,BOUGH,LF,target,left,yellow,imageability,conservative,no,m,0,1.28277250358,-1,404
2019_Nov_05,132,001,2,recog,60,BROUGHT,HF,lure,-,-,-,liberal,no,z,0,0.706170007156,-1,403
2019_Nov_05,132,001,2,recog,61,SPACE,HF,target,left,yellow,imageability,conservative,no,z,1,0.847102220736,1,404
2019_Nov_05,132,001,2,recog,62,CURATOR,LF,lure,-,-,-,liberal,no,m,1,1.31788283651,1,405
2019_Nov_05,132,001,2,recog,63,CLOSE,HF,lure,-,-,-,conservative,no,m,1,1.08272330541,3,408
2019_Nov_05,132,001,2,recog,64,OUGHT,HF,lure,-,-,-,liberal,no,m,1,0.859085749983,1,409
2019_Nov_05,132,001,2,recog,65,BAIZE,LF,target,right,aqua,pleasantness,conservative,yes,z,1,0.847321816123,1,410
2019_Nov_05,132,001,2,recog,66,SIMILAR,HF,target,left,yellow,imageability,liberal,no,z,1,0.906230936627,3,413
2019_Nov_05,132,001,2,recog,67,GOUGED,LF,lure,-,-,-,conservative,no,m,1,0.929662387673,3,416
2019_Nov_05,132,001,2,recog,68,OVENS,LF,target,right,aqua,pleasantness,conservative,no,z,1,0.776803101757,1,417
2019_Nov_05,132,001,2,recog,69,BUZZARD,LF,target,left,yellow,imageability,conservative,no,z,1,0.576670684639,1,418
2019_Nov_05,132,001,2,recog,70,THANK,HF,lure,-,-,-,liberal,no,m,1,0.694362080899,1,419
2019_Nov_05,132,001,2,recog,71,MILES,HF,lure,-,-,-,liberal,no,m,1,1.29439676157,1,420
2019_Nov_05,132,001,2,recog,72,HUSBAND,HF,target,right,aqua,pleasantness,conservative,no,z,1,0.576540907065,1,421
2019_Nov_05,132,001,2,recog,73,OUTSIDE,HF,lure,-,-,-,conservative,no,z,0,0.588557797213,-3,418
2019_Nov_05,132,001,2,recog,74,INEDIBLE,LF,target,left,yellow,imageability,liberal,no,m,0,0.741641444358,-3,415
2019_Nov_05,132,001,2,recog,75,TREES,HF,target,right,aqua,pleasantness,liberal,no,z,1,1.81208793787,3,418
2019_Nov_05,132,001,2,recog,76,SKETCHY,LF,lure,-,-,-,liberal,no,m,1,0.776896219,1,419
2019_Nov_05,132,001,2,recog,77,VALUE,HF,target,left,yellow,imageability,conservative,no,z,1,1.98850038713,1,420
2019_Nov_05,132,001,2,recog,78,DIMMED,LF,lure,-,-,-,conservative,no,m,1,0.705964709298,3,423
2019_Nov_05,132,001,2,recog,79,SYSTEM,HF,lure,-,-,-,liberal,no,m,1,0.706345610145,1,424
2019_Nov_05,132,001,2,recog,80,FEVERS,LF,lure,-,-,-,conservative,no,m,1,1.00026395439,3,427
2019_Nov_05,132,001,2,recog,81,TOKENS,LF,lure,-,-,-,conservative,yes,z,0,0.647428057765,-3,424
2019_Nov_05,132,001,2,recog,82,FITFUL,LF,target,left,yellow,imageability,liberal,no,z,1,0.917978006734,3,427
2019_Nov_05,132,001,2,recog,83,ROLLERS,LF,target,left,yellow,imageability,liberal,no,z,1,0.917943912625,3,430
2019_Nov_05,132,001,2,recog,84,SNOBBISH,LF,target,left,yellow,imageability,conservative,no,z,1,0.647334207316,1,431
2019_Nov_05,132,001,2,recog,85,PROBABLY,HF,lure,-,-,-,liberal,no,z,0,0.835593442786,-1,430
2019_Nov_05,132,001,2,recog,86,YEARN,LF,lure,-,-,-,liberal,no,z,0,1.00036806973,-1,429
2019_Nov_05,132,001,2,recog,87,NATIONAL,HF,lure,-,-,-,liberal,no,m,1,0.717933941015,1,430
2019_Nov_05,132,001,2,recog,88,APTLY,LF,target,left,yellow,imageability,conservative,no,m,0,0.776785138195,-1,429
2019_Nov_05,132,001,2,recog,89,DUPLICITY,LF,target,right,aqua,pleasantness,conservative,no,z,1,1.37686637749,1,430
2019_Nov_05,132,001,2,recog,90,EFFECT,HF,target,right,aqua,pleasantness,liberal,no,m,0,1.34149465639,-3,427
2019_Nov_05,132,001,2,recog,91,AFIELD,LF,target,right,aqua,pleasantness,liberal,no,m,0,0.788587198799,-3,424
2019_Nov_05,132,001,2,recog,92,ASSERTIVE,LF,lure,-,-,-,conservative,no,z,0,0.765216237301,-3,421
2019_Nov_05,132,001,2,recog,93,IRRIGATED,LF,lure,-,-,-,conservative,no,z,0,0.729649116633,-3,418
2019_Nov_05,132,001,2,recog,94,ADJOURNED,LF,target,left,yellow,imageability,liberal,no,z,1,0.564795669975,3,421
2019_Nov_05,132,001,2,recog,95,ENERGY,HF,target,right,aqua,pleasantness,conservative,no,z,1,0.318057339692,1,422
2019_Nov_05,132,001,3,source,0,AVIDLY,LF,target,left,yellow,imageability,liberal,no,2,1,1.12976804275,-,-
2019_Nov_05,132,001,3,source,1,ICILY,LF,target,left,yellow,imageability,conservative,no,1,1,0.635758340959,-,-
2019_Nov_05,132,001,3,source,2,TOADS,LF,target,right,aqua,pleasantness,conservative,no,9,1,1.18844950259,-,-
2019_Nov_05,132,001,3,source,3,USING,HF,target,left,yellow,imageability,conservative,no,8,0,0.917753645503,-,-
2019_Nov_05,132,001,3,source,4,FISHY,LF,target,right,aqua,pleasantness,liberal,yes,7,1,0.694423670257,-,-
2019_Nov_05,132,001,3,source,5,FREEDOM,HF,target,right,aqua,pleasantness,conservative,yes,7,1,0.823714762089,-,-
2019_Nov_05,132,001,3,source,6,BREAK,HF,target,right,aqua,pleasantness,conservative,no,1,0,0.964746325168,-,-
2019_Nov_05,132,001,3,source,7,ALREADY,HF,target,left,yellow,imageability,conservative,no,2,1,0.670729731236,-,-
2019_Nov_05,132,001,3,source,8,RAPACIOUS,LF,target,right,aqua,pleasantness,liberal,no,9,1,1.24737731987,-,-
2019_Nov_05,132,001,3,source,9,TENABLE,LF,target,left,yellow,imageability,liberal,no,1,1,1.00037393538,-,-
2019_Nov_05,132,001,3,source,10,FICKLE,LF,target,right,aqua,pleasantness,conservative,no,8,1,0.659176960888,-,-
2019_Nov_05,132,001,3,source,11,NIGHT,HF,target,left,yellow,imageability,liberal,no,8,0,1.07095643873,-,-
2019_Nov_05,132,001,3,source,12,POTASH,LF,target,left,yellow,imageability,liberal,no,1,1,0.964696100514,-,-
2019_Nov_05,132,001,3,source,13,RIOTERS,LF,target,left,yellow,imageability,conservative,no,8,0,0.964997815044,-,-
2019_Nov_05,132,001,3,source,14,SPEAK,HF,target,left,yellow,imageability,liberal,yes,3,1,1.12942233582,-,-
2019_Nov_05,132,001,3,source,15,KIDNAP,LF,target,right,aqua,pleasantness,conservative,no,7,1,1.01175293576,-,-
2019_Nov_05,132,001,3,source,16,ECONOMIC,HF,target,left,yellow,imageability,liberal,no,1,1,0.976740852514,-,-
2019_Nov_05,132,001,3,source,17,INDEED,HF,target,left,yellow,imageability,conservative,no,2,1,1.4117864433,-,-
2019_Nov_05,132,001,3,source,18,LANGUAGE,HF,target,right,aqua,pleasantness,liberal,no,9,1,0.964952722836,-,-
2019_Nov_05,132,001,3,source,19,DECIDED,HF,target,right,aqua,pleasantness,conservative,no,2,0,0.882807184252,-,-
2019_Nov_05,132,001,3,source,20,WINDOW,HF,target,right,aqua,pleasantness,liberal,no,9,1,0.882938061636,-,-
2019_Nov_05,132,001,3,source,21,SIESTA,LF,target,right,aqua,pleasantness,conservative,no,9,1,0.800036220408,-,-
2019_Nov_05,132,001,3,source,22,REPORT,HF,target,left,yellow,imageability,liberal,no,8,0,1.09439412203,-,-
2019_Nov_05,132,001,3,source,23,EMBATTLED,LF,target,left,yellow,imageability,conservative,no,2,1,0.729804189836,-,-
2019_Nov_05,132,001,3,source,24,MARKET,HF,target,right,aqua,pleasantness,liberal,no,9,1,0.776789904038,-,-
2019_Nov_05,132,001,3,source,25,FATHER,HF,target,right,aqua,pleasantness,conservative,yes,7,1,0.776744445227,-,-
2019_Nov_05,132,001,3,source,26,BEYOND,HF,target,left,yellow,imageability,liberal,no,1,1,0.835481262171,-,-
2019_Nov_05,132,001,3,source,27,GUARDSMEN,LF,target,right,aqua,pleasantness,liberal,no,2,0,0.717912311419,-,-
2019_Nov_05,132,001,3,source,28,CAPITAL,HF,target,right,aqua,pleasantness,conservative,no,8,1,1.00039886441,-,-
2019_Nov_05,132,001,3,source,29,REDDENED,LF,target,right,aqua,pleasantness,liberal,no,8,1,0.776723182234,-,-
2019_Nov_05,132,001,3,source,30,CYANIDE,LF,target,left,yellow,imageability,liberal,no,8,0,0.729634085897,-,-
2019_Nov_05,132,001,3,source,31,SHRED,LF,target,right,aqua,pleasantness,conservative,no,2,0,0.588534701204,-,-
2019_Nov_05,132,001,3,source,32,ACIDITY,LF,target,right,aqua,pleasantness,conservative,no,1,0,0.882706001736,-,-
2019_Nov_05,132,001,3,source,33,BRING,HF,target,right,aqua,pleasantness,liberal,no,2,0,0.90640250698,-,-
2019_Nov_05,132,001,3,source,34,CADDIE,LF,target,left,yellow,imageability,liberal,no,9,0,0.553192308369,-,-
2019_Nov_05,132,001,3,source,35,LIGHT,HF,target,right,aqua,pleasantness,liberal,no,9,1,0.870950499754,-,-
2019_Nov_05,132,001,3,source,36,LUMBER,LF,target,left,yellow,imageability,conservative,no,2,1,1.17653269515,-,-
2019_Nov_05,132,001,3,source,37,IDIOCY,LF,target,left,yellow,imageability,conservative,no,1,1,0.835529287206,-,-
2019_Nov_05,132,001,3,source,38,BECAME,HF,target,right,aqua,pleasantness,conservative,no,8,1,0.753075801835,-,-
2019_Nov_05,132,001,3,source,39,SLIGHTLY,HF,target,left,yellow,imageability,conservative,no,1,1,0.811868342484,-,-
2019_Nov_05,132,001,3,source,40,EXECUTING,LF,target,left,yellow,imageability,liberal,no,2,1,0.917921916426,-,-
2019_Nov_05,132,001,3,source,41,ISOLATING,LF,target,right,aqua,pleasantness,liberal,no,7,1,1.22367311595,-,-
2019_Nov_05,132,001,3,source,42,ROUND,HF,target,left,yellow,imageability,conservative,no,8,0,0.694561513104,-,-
2019_Nov_05,132,001,3,source,43,SOMEONE,HF,target,left,yellow,imageability,conservative,no,1,1,0.941423388705,-,-
2019_Nov_05,132,001,3,source,44,VANDALS,LF,target,left,yellow,imageability,conservative,no,1,1,0.74144164555,-,-
2019_Nov_05,132,001,3,source,45,CORNER,HF,target,right,aqua,pleasantness,liberal,no,9,1,0.976717389902,-,-
2019_Nov_05,132,001,3,source,46,OBNOXIOUS,LF,target,right,aqua,pleasantness,liberal,no,8,1,0.800311172896,-,-
2019_Nov_05,132,001,3,source,47,BELIEVE,HF,target,left,yellow,imageability,liberal,no,2,1,0.764756150137,-,-
2019_Nov_05,132,001,3,recog,0,PIRACY,LF,lure,-,-,-,conservative,no,m,1,1.03560891345,3,425
2019_Nov_05,132,001,3,recog,1,GIRLS,HF,lure,-,-,-,conservative,no,m,1,0.729664880575,3,428
2019_Nov_05,132,001,3,recog,2,SLIGHTLY,HF,target,left,yellow,imageability,conservative,no,z,1,1.08261955667,1,429
2019_Nov_05,132,001,3,recog,3,ECONOMIC,HF,target,left,yellow,imageability,liberal,no,z,1,0.564934246029,3,432
2019_Nov_05,132,001,3,recog,4,REPORT,HF,target,left,yellow,imageability,liberal,no,z,1,0.58847017902,3,435
2019_Nov_05,132,001,3,recog,5,KETCHUP,LF,lure,-,-,-,conservative,no,m,1,0.694368679759,3,438
2019_Nov_05,132,001,3,recog,6,BOVINE,LF,lure,-,-,-,liberal,no,m,1,0.541538355506,1,439
2019_Nov_05,132,001,3,recog,7,PSEUDONYM,LF,lure,-,-,-,liberal,no,m,1,0.517946332207,1,440
2019_Nov_05,132,001,3,recog,8,FOAMING,LF,lure,-,-,-,liberal,no,m,1,0.576627058844,1,441
2019_Nov_05,132,001,3,recog,9,OBNOXIOUS,LF,target,right,aqua,pleasantness,liberal,no,z,1,0.576760869055,3,444
2019_Nov_05,132,001,3,recog,10,SOMEONE,HF,target,left,yellow,imageability,conservative,no,z,1,0.529716498323,1,445
2019_Nov_05,132,001,3,recog,11,PEEKED,LF,lure,-,-,-,liberal,no,m,1,1.17672882793,1,446
2019_Nov_05,132,001,3,recog,12,GETTING,HF,lure,-,-,-,liberal,no,m,1,0.576763435279,1,447
2019_Nov_05,132,001,3,recog,13,CYANIDE,LF,target,left,yellow,imageability,liberal,no,z,1,0.623787276225,3,450
2019_Nov_05,132,001,3,recog,14,TERMS,HF,lure,-,-,-,liberal,no,m,1,0.706126014758,1,451
2019_Nov_05,132,001,3,recog,15,BEYOND,HF,target,left,yellow,imageability,liberal,no,z,1,0.494466856127,3,454
2019_Nov_05,132,001,3,recog,16,INDEED,HF,target,left,yellow,imageability,conservative,no,z,1,0.812017183431,1,455
2019_Nov_05,132,001,3,recog,17,FISHY,LF,target,right,aqua,pleasantness,liberal,no,z,1,0.623896524014,3,458
2019_Nov_05,132,001,3,recog,18,LUMBER,LF,target,left,yellow,imageability,conservative,no,z,1,0.518008654771,1,459
2019_Nov_05,132,001,3,recog,19,LIGHT,HF,target,right,aqua,pleasantness,liberal,no,z,1,0.459241043148,3,462
2019_Nov_05,132,001,3,recog,20,ISOLATING,LF,target,right,aqua,pleasantness,liberal,no,z,1,0.529794218226,3,465
2019_Nov_05,132,001,3,recog,21,EMBATTLED,LF,target,left,yellow,imageability,conservative,no,z,1,0.870958565027,1,466
2019_Nov_05,132,001,3,recog,22,RIVER,HF,lure,-,-,-,liberal,no,z,0,0.494451825391,-1,465
2019_Nov_05,132,001,3,recog,23,CORNER,HF,target,right,aqua,pleasantness,liberal,no,z,1,0.635794634687,3,468
2019_Nov_05,132,001,3,recog,24,STRAIGHT,HF,lure,-,-,-,conservative,yes,z,0,0.941654715398,-3,465
2019_Nov_05,132,001,3,recog,25,USING,HF,target,left,yellow,imageability,conservative,yes,m,0,0.870816322939,-1,464
2019_Nov_05,132,001,3,recog,26,WINDOW,HF,target,right,aqua,pleasantness,liberal,no,z,1,0.823812278572,3,467
2019_Nov_05,132,001,3,recog,27,CAPITAL,HF,target,right,aqua,pleasantness,conservative,no,z,1,0.659097407968,1,468
2019_Nov_05,132,001,3,recog,28,TENABLE,LF,target,left,yellow,imageability,liberal,no,z,1,0.835583177894,3,471
2019_Nov_05,132,001,3,recog,29,VILLAGE,HF,lure,-,-,-,liberal,no,m,1,0.64707501877,1,472
2019_Nov_05,132,001,3,recog,30,ALREADY,HF,target,left,yellow,imageability,conservative,no,z,1,0.717655689097,1,473
2019_Nov_05,132,001,3,recog,31,UNTIL,HF,lure,-,-,-,conservative,no,m,1,0.58862928486,3,476
2019_Nov_05,132,001,3,recog,32,MARKET,HF,target,right,aqua,pleasantness,liberal,no,z,1,0.612034340466,3,479
2019_Nov_05,132,001,3,recog,33,RAPACIOUS,LF,target,right,aqua,pleasantness,liberal,no,z,1,0.600351792544,3,482
2019_Nov_05,132,001,3,recog,34,OBVIOUSLY,HF,lure,-,-,-,conservative,no,z,0,0.506127774454,-3,479
2019_Nov_05,132,001,3,recog,35,AGELESS,LF,lure,-,-,-,liberal,no,m,1,0.717928808569,1,480
2019_Nov_05,132,001,3,recog,36,IDIOCY,LF,target,left,yellow,imageability,conservative,no,z,1,0.659123803407,1,481
2019_Nov_05,132,001,3,recog,37,BUOYANCY,LF,lure,-,-,-,liberal,no,m,1,0.788549438657,1,482
2019_Nov_05,132,001,3,recog,38,BREAK,HF,target,right,aqua,pleasantness,conservative,no,z,1,0.576803028437,1,483
2019_Nov_05,132,001,3,recog,39,FREEDOM,HF,target,right,aqua,pleasantness,conservative,no,z,1,0.52962338108,1,484
2019_Nov_05,132,001,3,recog,40,BRING,HF,target,right,aqua,pleasantness,liberal,no,z,1,0.623918520213,3,487
2019_Nov_05,132,001,3,recog,41,VANDALS,LF,target,left,yellow,imageability,conservative,no,z,1,0.54150572781,1,488
2019_Nov_05,132,001,3,recog,42,GROUND,HF,lure,-,-,-,conservative,no,m,1,1.9298196605,3,491
2019_Nov_05,132,001,3,recog,43,SUNBURN,LF,lure,-,-,-,liberal,yes,m,1,0.670893969522,1,492
2019_Nov_05,132,001,3,recog,44,SWOOPING,LF,lure,-,-,-,conservative,no,m,1,0.753212178269,3,495
2019_Nov_05,132,001,3,recog,45,NIGHT,HF,target,left,yellow,imageability,liberal,no,z,1,0.94123715422,3,498
2019_Nov_05,132,001,3,recog,46,BLOOD,HF,lure,-,-,-,conservative,no,m,1,0.753214377889,3,501
2019_Nov_05,132,001,3,recog,47,AVIDLY,LF,target,left,yellow,imageability,liberal,no,z,1,0.564955142418,3,504
2019_Nov_05,132,001,3,recog,48,ICILY,LF,target,left,yellow,imageability,conservative,no,z,1,0.553189008939,1,505
2019_Nov_05,132,001,3,recog,49,FICKLE,LF,target,right,aqua,pleasantness,conservative,no,z,1,0.788541006781,1,506
2019_Nov_05,132,001,3,recog,50,KENNEL,LF,lure,-,-,-,conservative,no,m,1,0.611983382605,3,509
2019_Nov_05,132,001,3,recog,51,ROUND,HF,target,left,yellow,imageability,conservative,no,m,0,0.717674019263,-1,508
2019_Nov_05,132,001,3,recog,52,BECAME,HF,target,right,aqua,pleasantness,conservative,no,z,1,0.494221231905,1,509
2019_Nov_05,132,001,3,recog,53,REOPEN,LF,lure,-,-,-,liberal,no,m,1,0.694125621759,1,510
2019_Nov_05,132,001,3,recog,54,REDDENED,LF,target,right,aqua,pleasantness,liberal,no,z,1,0.682660103001,3,513
2019_Nov_05,132,001,3,recog,55,WITHIN,HF,lure,-,-,-,liberal,no,m,1,0.776797236104,1,514
2019_Nov_05,132,001,3,recog,56,DRAFTING,LF,lure,-,-,-,liberal,no,m,1,0.694521553342,1,515
2019_Nov_05,132,001,3,recog,57,GUARDSMEN,LF,target,right,aqua,pleasantness,liberal,no,m,0,0.917888922128,-3,512
2019_Nov_05,132,001,3,recog,58,RIOTERS,LF,target,left,yellow,imageability,conservative,no,z,1,0.4709158924,1,513
2019_Nov_05,132,001,3,recog,59,KIDNAP,LF,target,right,aqua,pleasantness,conservative,no,z,1,0.670677306961,1,514
2019_Nov_05,132,001,3,recog,60,SHUNNED,LF,lure,-,-,-,conservative,no,z,0,1.24744220865,-3,511
2019_Nov_05,132,001,3,recog,61,SIESTA,LF,target,right,aqua,pleasantness,conservative,no,z,1,0.459285035546,1,512
2019_Nov_05,132,001,3,recog,62,SPEAK,HF,target,left,yellow,imageability,liberal,no,z,1,0.776558210741,3,515
2019_Nov_05,132,001,3,recog,63,SONAR,LF,lure,-,-,-,conservative,yes,z,0,0.894521993266,-3,512
2019_Nov_05,132,001,3,recog,64,UNLESS,HF,lure,-,-,-,liberal,no,m,1,1.01200625865,1,513
2019_Nov_05,132,001,3,recog,65,THRASH,LF,lure,-,-,-,conservative,no,m,1,1.00025515591,3,516
2019_Nov_05,132,001,3,recog,66,POTASH,LF,target,left,yellow,imageability,liberal,no,z,1,0.623587844021,3,519
2019_Nov_05,132,001,3,recog,67,BIDDER,LF,lure,-,-,-,conservative,no,m,1,0.623799374135,3,522
2019_Nov_05,132,001,3,recog,68,ROBBERIES,LF,lure,-,-,-,conservative,no,z,0,0.623830168814,-3,519
2019_Nov_05,132,001,3,recog,69,ZOOLOGY,LF,lure,-,-,-,conservative,no,m,1,0.635382205955,3,522
2019_Nov_05,132,001,3,recog,70,DREADING,LF,lure,-,-,-,liberal,no,m,1,0.847261693179,1,523
2019_Nov_05,132,001,3,recog,71,TOADS,LF,target,right,aqua,pleasantness,conservative,no,z,1,0.659038751437,1,524
2019_Nov_05,132,001,3,recog,72,BELIEVE,HF,target,left,yellow,imageability,liberal,no,z,1,0.541430207527,3,527
2019_Nov_05,132,001,3,recog,73,DARKEN,LF,lure,-,-,-,liberal,no,z,0,1.02386367636,-1,526
2019_Nov_05,132,001,3,recog,74,WRONG,HF,lure,-,-,-,liberal,no,m,1,0.823556389456,1,527
2019_Nov_05,132,001,3,recog,75,FATHER,HF,target,right,aqua,pleasantness,conservative,no,z,1,0.58862928486,1,528
2019_Nov_05,132,001,3,recog,76,EXECUTING,LF,target,left,yellow,imageability,liberal,no,z,1,0.506171033645,3,531
2019_Nov_05,132,001,3,recog,77,AFRAID,HF,lure,-,-,-,conservative,no,z,0,0.553197440815,-3,528
2019_Nov_05,132,001,3,recog,78,CADDIE,LF,target,left,yellow,imageability,liberal,no,z,1,0.800396958072,3,531
2019_Nov_05,132,001,3,recog,79,SHRED,LF,target,right,aqua,pleasantness,conservative,no,m,0,0.788532208301,-1,530
2019_Nov_05,132,001,3,recog,80,LEVEL,HF,lure,-,-,-,liberal,no,m,1,0.670840078834,1,531
2019_Nov_05,132,001,3,recog,81,AGATE,LF,lure,-,-,-,liberal,no,m,1,0.459043810563,1,532
2019_Nov_05,132,001,3,recog,82,WOMAN,HF,lure,-,-,-,conservative,no,m,1,0.729712539006,3,535
2019_Nov_05,132,001,3,recog,83,DECIDED,HF,target,right,aqua,pleasantness,conservative,no,z,1,0.541489230661,1,536
2019_Nov_05,132,001,3,recog,84,GIVEN,HF,lure,-,-,-,liberal,no,m,1,0.611976050538,1,537
2019_Nov_05,132,001,3,recog,85,SEVEN,HF,lure,-,-,-,liberal,no,m,1,0.611974217522,1,538
2019_Nov_05,132,001,3,recog,86,LANGUAGE,HF,target,right,aqua,pleasantness,liberal,no,z,1,0.635503551653,3,541
2019_Nov_05,132,001,3,recog,87,ACIDITY,LF,target,right,aqua,pleasantness,conservative,no,z,1,0.717985632083,1,542
2019_Nov_05,132,001,3,recog,88,WHOLE,HF,lure,-,-,-,liberal,no,z,0,0.929468821121,-1,541
2019_Nov_05,132,001,3,recog,89,NUMBER,HF,lure,-,-,-,conservative,no,z,0,0.517876310973,-3,538
2019_Nov_05,132,001,3,recog,90,SUPPORT,HF,lure,-,-,-,conservative,no,z,0,0.788454121795,-3,535
2019_Nov_05,132,001,3,recog,91,COUNCIL,HF,lure,-,-,-,conservative,no,m,1,0.612079066071,3,538
2019_Nov_05,132,001,3,recog,92,SOJOURN,LF,lure,-,-,-,conservative,no,m,1,0.78857290127,3,541
2019_Nov_05,132,001,3,recog,93,DEPARTS,LF,lure,-,-,-,conservative,no,m,1,0.47084293834,3,544
2019_Nov_05,132,001,3,recog,94,ADDED,HF,lure,-,-,-,liberal,no,m,1,0.706212533141,1,545
2019_Nov_05,132,001,3,recog,95,KNOWLEDGE,HF,lure,-,-,-,conservative,no,m,1,0.506128874264,3,548
2019_Nov_05,132,001,4,source,0,PUBLIC,HF,target,left,yellow,imageability,conservative,no,1,1,1.2356240175,-,-
2019_Nov_05,132,001,4,source,1,NEITHER,HF,target,right,aqua,pleasantness,liberal,no,9,1,0.906158715774,-,-
2019_Nov_05,132,001,4,source,2,ABETTED,LF,target,left,yellow,imageability,conservative,no,8,0,0.776863224702,-,-
2019_Nov_05,132,001,4,source,3,GULLIBLE,LF,target,right,aqua,pleasantness,conservative,no,2,0,0.717647623824,-,-
2019_Nov_05,132,001,4,source,4,OPENED,HF,target,left,yellow,imageability,liberal,yes,7,0,0.765232367847,-,-
2019_Nov_05,132,001,4,source,5,PLODDED,LF,target,right,aqua,pleasantness,conservative,no,8,1,1.04709899463,-,-
2019_Nov_05,132,001,4,source,6,DANDELION,LF,target,right,aqua,pleasantness,conservative,no,7,1,1.14150228174,-,-
2019_Nov_05,132,001,4,source,7,LUGGED,LF,target,left,yellow,imageability,conservative,no,3,1,0.69441853781,-,-
2019_Nov_05,132,001,4,source,8,EXPECT,HF,target,left,yellow,imageability,conservative,no,2,1,0.600237778912,-,-
2019_Nov_05,132,001,4,source,9,THOUSAND,HF,target,right,aqua,pleasantness,liberal,no,2,0,0.811966592173,-,-
2019_Nov_05,132,001,4,source,10,BEQUEST,LF,target,left,yellow,imageability,conservative,no,8,0,0.553032835926,-,-
2019_Nov_05,132,001,4,source,11,MAKES,HF,target,right,aqua,pleasantness,conservative,no,2,0,0.482601373149,-,-
2019_Nov_05,132,001,4,source,12,USELESSLY,LF,target,left,yellow,imageability,liberal,no,7,0,0.423748709556,-,-
2019_Nov_05,132,001,4,source,13,WHETHER,HF,target,left,yellow,imageability,conservative,yes,3,1,0.941410924192