date,subj,session,cycle,task,trial,item,wf,type,source,colour,encoding,bias,null,response,corr,rt,points,total
2019_Nov_12,133,001,0,source,0,ROUND,HF,target,left,aqua,pleasantness,liberal,no,2,1,5.81221450557,-,-
2019_Nov_12,133,001,0,source,1,TABLE,HF,target,left,aqua,pleasantness,liberal,no,1,1,2.91784506057,-,-
2019_Nov_12,133,001,0,source,2,WEEKS,HF,target,left,aqua,pleasantness,conservative,no,1,1,1.83563623006,-,-
2019_Nov_12,133,001,0,source,3,ENGULF,LF,target,right,yellow,imageability,conservative,yes,3,0,2.7532961546,-,-
2019_Nov_12,133,001,0,source,4,TOWARDS,HF,target,right,yellow,imageability,conservative,no,8,1,2.23542557825,-,-
2019_Nov_12,133,001,0,source,5,SUNBURN,LF,target,left,aqua,pleasantness,liberal,no,1,1,1.20037327824,-,-
2019_Nov_12,133,001,0,source,6,BANALITY,LF,target,left,aqua,pleasantness,liberal,no,1,1,1.9768217019,-,-
2019_Nov_12,133,001,0,source,7,FAILINGS,LF,target,right,yellow,imageability,liberal,yes,9,1,1.62382484445,-,-
2019_Nov_12,133,001,0,source,8,NAGGED,LF,target,right,yellow,imageability,conservative,no,9,1,2.56512572386,-,-
2019_Nov_12,133,001,0,source,9,EXACTLY,HF,target,left,aqua,pleasantness,liberal,no,1,1,1.38859210096,-,-
2019_Nov_12,133,001,0,source,10,UNTIL,HF,target,left,aqua,pleasantness,liberal,no,8,0,2.87092499095,-,-
2019_Nov_12,133,001,0,source,11,SEEMED,HF,target,left,aqua,pleasantness,conservative,no,2,1,2.23544244212,-,-
2019_Nov_12,133,001,0,source,12,EVIDENCE,HF,target,left,aqua,pleasantness,conservative,no,1,1,1.08266048911,-,-
2019_Nov_12,133,001,0,source,13,PIGLETS,LF,target,right,yellow,imageability,liberal,no,9,1,2.80046185025,-,-
2019_Nov_12,133,001,0,source,14,JEALOUSLY,LF,target,right,yellow,imageability,liberal,no,9,1,1.03570265907,-,-
2019_Nov_12,133,001,0,source,15,IDEAS,HF,target,right,yellow,imageability,liberal,no,9,1,2.28275697981,-,-
2019_Nov_12,133,001,0,source,16,ACACIA,LF,target,left,aqua,pleasantness,liberal,no,3,1,2.98839435368,-,-
2019_Nov_12,133,001,0,source,17,MAKES,HF,target,left,aqua,pleasantness,conservative,no,1,1,2.02385102012,-,-
2019_Nov_12,133,001,0,source,18,STOOD,HF,target,left,aqua,pleasantness,conservative,no,1,1,3.03565170083,-,-
2019_Nov_12,133,001,0,source,19,HOTEL,HF,target,right,yellow,imageability,liberal,yes,3,0,1.22390131846,-,-
2019_Nov_12,133,001,0,source,20,TONAL,LF,target,left,aqua,pleasantness,liberal,no,1,1,1.29438095643,-,-
2019_Nov_12,133,001,0,source,21,LESSENED,LF,target,left,aqua,pleasantness,liberal,no,1,1,1.36503509886,-,-
2019_Nov_12,133,001,0,source,22,PLACE,HF,target,left,aqua,pleasantness,liberal,no,1,1,1.36482613344,-,-
2019_Nov_12,133,001,0,source,23,LANGUAGE,HF,target,right,yellow,imageability,conservative,no,9,1,1.6945413099,-,-
2019_Nov_12,133,001,0,source,24,PIVOT,LF,target,left,aqua,pleasantness,conservative,no,1,1,1.31805343942,-,-
2019_Nov_12,133,001,0,source,25,INJECT,LF,target,right,yellow,imageability,conservative,no,9,1,1.20042203683,-,-
2019_Nov_12,133,001,0,source,26,WEBBED,LF,target,right,yellow,imageability,conservative,no,9,1,2.91777870488,-,-
2019_Nov_12,133,001,0,source,27,PLEASE,HF,target,right,yellow,imageability,liberal,no,9,1,1.45885727442,-,-
2019_Nov_12,133,001,0,source,28,TOGETHER,HF,target,right,yellow,imageability,conservative,no,9,1,0.823885774367,-,-
2019_Nov_12,133,001,0,source,29,ANSWER,HF,target,left,aqua,pleasantness,conservative,no,1,1,1.17669346312,-,-
2019_Nov_12,133,001,0,source,30,WHITE,HF,target,right,yellow,imageability,conservative,no,9,1,0.894332784402,-,-
2019_Nov_12,133,001,0,source,31,HYACINTHS,LF,target,left,aqua,pleasantness,liberal,no,3,1,2.0708539427,-,-
2019_Nov_12,133,001,0,source,32,CHIEF,HF,target,right,yellow,imageability,liberal,no,9,1,1.36506406073,-,-
2019_Nov_12,133,001,0,source,33,SULKED,LF,target,right,yellow,imageability,liberal,no,1,0,1.20032635267,-,-
2019_Nov_12,133,001,0,source,34,DIETING,LF,target,left,aqua,pleasantness,conservative,no,1,1,0.847360656723,-,-
2019_Nov_12,133,001,0,source,35,SERIOUS,HF,target,right,yellow,imageability,liberal,no,9,1,1.36506149449,-,-
2019_Nov_12,133,001,0,source,36,ALMOST,HF,target,right,yellow,imageability,conservative,no,1,0,1.29445977672,-,-
2019_Nov_12,133,001,0,source,37,BOOKS,HF,target,left,aqua,pleasantness,liberal,no,9,0,1.3650743257,-,-
2019_Nov_12,133,001,0,source,38,BAPTIZED,LF,target,right,yellow,imageability,conservative,yes,2,0,0.965184160861,-,-
2019_Nov_12,133,001,0,source,39,NICETIES,LF,target,left,aqua,pleasantness,conservative,no,1,1,2.14153264773,-,-
2019_Nov_12,133,001,0,source,40,SLUGS,LF,target,left,aqua,pleasantness,conservative,no,1,1,0.964926070233,-,-
2019_Nov_12,133,001,0,source,41,BUNGALOWS,LF,target,right,yellow,imageability,conservative,no,9,1,0.847425545986,-,-
2019_Nov_12,133,001,0,source,42,ENAMELLED,LF,target,left,aqua,pleasantness,conservative,no,1,1,1.05905619484,-,-
2019_Nov_12,133,001,0,source,43,HOVELS,LF,target,right,yellow,imageability,liberal,no,9,1,1.90627864109,-,-
2019_Nov_12,133,001,0,source,44,GROUND,HF,target,right,yellow,imageability,liberal,no,9,1,2.84740391623,-,-
2019_Nov_12,133,001,0,source,45,RANGE,HF,target,right,yellow,imageability,conservative,no,9,1,2.00032041365,-,-
2019_Nov_12,133,001,0,source,46,NAUGHT,LF,target,left,aqua,pleasantness,conservative,no,1,1,1.6003503287,-,-
2019_Nov_12,133,001,0,source,47,ATONEMENT,LF,target,right,yellow,imageability,liberal,no,1,0,3.10619109558,-,-
2019_Nov_12,133,001,0,recog,0,NAGGED,LF,target,right,yellow,imageability,conservative,no,z,1,1.8474079489,1,1
2019_Nov_12,133,001,0,recog,1,TONAL,LF,target,left,aqua,pleasantness,liberal,no,z,1,2.45915459189,3,4
2019_Nov_12,133,001,0,recog,2,HANDS,HF,lure,-,-,-,conservative,no,m,1,1.09441607729,3,7
2019_Nov_12,133,001,0,recog,3,CERTAIN,HF,lure,-,-,-,liberal,no,z,0,1.17678548123,-1,6
2019_Nov_12,133,001,0,recog,4,WEEKS,HF,target,left,aqua,pleasantness,conservative,no,z,1,1.50621727125,1,7
2019_Nov_12,133,001,0,recog,5,WEBBED,LF,target,right,yellow,imageability,conservative,no,z,1,0.694243259215,1,8
2019_Nov_12,133,001,0,recog,6,RUPTURE,LF,lure,-,-,-,conservative,yes,m,1,2.70615722119,3,11
2019_Nov_12,133,001,0,recog,7,APPEARED,HF,lure,-,-,-,liberal,no,m,1,1.23560008271,1,12
2019_Nov_12,133,001,0,recog,8,OEDIPAL,LF,lure,-,-,-,liberal,no,m,1,1.05922080093,1,13
2019_Nov_12,133,001,0,recog,9,REACHED,HF,lure,-,-,-,liberal,no,z,0,2.07087703888,-1,12
2019_Nov_12,133,001,0,recog,10,ALTHOUGH,HF,lure,-,-,-,liberal,no,m,1,0.812175645337,1,13
2019_Nov_12,133,001,0,recog,11,ACACIA,LF,target,left,aqua,pleasantness,liberal,no,z,1,0.717861851126,3,16
2019_Nov_12,133,001,0,recog,12,LIKELY,HF,lure,-,-,-,conservative,no,m,1,2.09453155818,3,19
2019_Nov_12,133,001,0,recog,13,TAKEN,HF,lure,-,-,-,conservative,no,m,1,1.54153242777,3,22
2019_Nov_12,133,001,0,recog,14,OBSCURELY,LF,lure,-,-,-,conservative,no,m,1,0.800246652521,3,25
2019_Nov_12,133,001,0,recog,15,JEALOUSLY,LF,target,right,yellow,imageability,liberal,no,z,1,0.682551460485,3,28
2019_Nov_12,133,001,0,recog,16,LEPROSY,LF,lure,-,-,-,liberal,no,m,1,0.729833736844,1,29
2019_Nov_12,133,001,0,recog,17,NUCLEAR,HF,lure,-,-,-,conservative,no,m,1,0.753162710011,3,32
2019_Nov_12,133,001,0,recog,18,ASKED,HF,lure,-,-,-,liberal,no,z,0,1.52972478154,-1,31
2019_Nov_12,133,001,0,recog,19,PIVOT,LF,target,left,aqua,pleasantness,conservative,no,z,1,0.741524069151,1,32
2019_Nov_12,133,001,0,recog,20,WESTERN,HF,lure,-,-,-,liberal,no,m,1,0.729720088983,1,33
2019_Nov_12,133,001,0,recog,21,BURGH,LF,lure,-,-,-,liberal,no,m,1,0.717747836658,1,34
2019_Nov_12,133,001,0,recog,22,ONCOMING,LF,lure,-,-,-,conservative,no,m,1,0.705946422732,3,37
2019_Nov_12,133,001,0,recog,23,CUSTODIAN,LF,lure,-,-,-,conservative,no,m,1,0.705866136017,3,40
2019_Nov_12,133,001,0,recog,24,UNTIL,HF,target,left,aqua,pleasantness,liberal,no,z,1,0.776699182175,3,43
2019_Nov_12,133,001,0,recog,25,CANNOT,HF,lure,-,-,-,liberal,no,m,1,1.10628861278,1,44
2019_Nov_12,133,001,0,recog,26,SUNBURN,LF,target,left,aqua,pleasantness,liberal,no,z,1,0.612032229067,3,47
2019_Nov_12,133,001,0,recog,27,FAILINGS,LF,target,right,yellow,imageability,liberal,no,m,0,1.14160230287,-3,44
2019_Nov_12,133,001,0,recog,28,RANGE,HF,target,right,yellow,imageability,conservative,no,z,1,0.952961516634,1,45
2019_Nov_12,133,001,0,recog,29,WADDLED,LF,lure,-,-,-,conservative,no,m,1,1.4826815323,3,48
2019_Nov_12,133,001,0,recog,30,GOUGED,LF,lure,-,-,-,liberal,no,m,1,0.882450717154,1,49
2019_Nov_12,133,001,0,recog,31,SERIOUS,HF,target,right,yellow,imageability,liberal,no,z,1,0.647550118707,3,52
2019_Nov_12,133,001,0,recog,32,EVIDENCE,HF,target,left,aqua,pleasantness,conservative,no,z,1,0.729614506453,1,53
2019_Nov_12,133,001,0,recog,33,ENGULF,LF,target,right,yellow,imageability,conservative,no,m,0,0.694495117541,-1,52
2019_Nov_12,133,001,0,recog,34,DIETING,LF,target,left,aqua,pleasantness,conservative,no,z,1,0.682464208256,1,53
2019_Nov_12,133,001,0,recog,35,LANGUAGE,HF,target,right,yellow,imageability,conservative,no,z,1,0.694417397068,1,54
2019_Nov_12,133,001,0,recog,36,VANDALS,LF,lure,-,-,-,liberal,no,m,1,0.764958991452,1,55
2019_Nov_12,133,001,0,recog,37,TABLE,HF,target,left,aqua,pleasantness,liberal,no,z,1,0.553250988737,3,58
2019_Nov_12,133,001,0,recog,38,SPUDS,LF,lure,-,-,-,liberal,no,m,1,0.694347008715,1,59
2019_Nov_12,133,001,0,recog,39,SLUGS,LF,target,left,aqua,pleasantness,conservative,no,z,1,0.788783615938,1,60
2019_Nov_12,133,001,0,recog,40,ZEBRA,LF,lure,-,-,-,liberal,no,m,1,0.812080694381,1,61
2019_Nov_12,133,001,0,recog,41,PEEKED,LF,lure,-,-,-,liberal,no,m,1,1.41206148423,1,62
2019_Nov_12,133,001,0,recog,42,TOGETHER,HF,target,right,yellow,imageability,conservative,no,z,1,1.74154056642,1,63
2019_Nov_12,133,001,0,recog,43,GROUND,HF,target,right,yellow,imageability,liberal,no,z,1,1.21205737824,3,66
2019_Nov_12,133,001,0,recog,44,BOOKS,HF,target,left,aqua,pleasantness,liberal,no,z,1,0.717950569779,3,69
2019_Nov_12,133,001,0,recog,45,ANYONE,HF,lure,-,-,-,liberal,yes,z,0,2.20035201509,-1,68
2019_Nov_12,133,001,0,recog,46,FATHER,HF,lure,-,-,-,conservative,no,z,0,1.08258386846,-3,65
2019_Nov_12,133,001,0,recog,47,INSIDE,HF,lure,-,-,-,conservative,no,m,1,1.16505005638,3,68
2019_Nov_12,133,001,0,recog,48,FOUND,HF,lure,-,-,-,conservative,no,m,1,2.1063267398,3,71
2019_Nov_12,133,001,0,recog,49,TOFFEE,LF,lure,-,-,-,liberal,no,m,1,0.74130850482,1,72
2019_Nov_12,133,001,0,recog,50,ROUND,HF,target,left,aqua,pleasantness,liberal,no,z,1,1.02393057362,3,75
2019_Nov_12,133,001,0,recog,51,STOOD,HF,target,left,aqua,pleasantness,conservative,no,z,1,0.788590781179,1,76
2019_Nov_12,133,001,0,recog,52,IDEAS,HF,target,right,yellow,imageability,liberal,no,z,1,1.28257880929,3,79
2019_Nov_12,133,001,0,recog,53,SINCE,HF,lure,-,-,-,liberal,no,m,1,0.776739508836,1,80
2019_Nov_12,133,001,0,recog,54,MAKES,HF,target,left,aqua,pleasantness,conservative,no,z,1,0.870988413784,1,81
2019_Nov_12,133,001,0,recog,55,BANALITY,LF,target,left,aqua,pleasantness,liberal,yes,m,0,1.14155134464,-3,78
2019_Nov_12,133,001,0,recog,56,TEACUP,LF,lure,-,-,-,conservative,no,m,1,1.03552228891,3,81
2019_Nov_12,133,001,0,recog,57,TEETERED,LF,lure,-,-,-,conservative,no,m,1,1.1297129035,3,84
2019_Nov_12,133,001,0,recog,58,ANSWER,HF,target,left,aqua,pleasantness,conservative,no,z,1,0.69415747341,1,85
2019_Nov_12,133,001,0,recog,59,HOTEL,HF,target,right,yellow,imageability,liberal,no,m,0,0.753236764423,-3,82
2019_Nov_12,133,001,0,recog,60,NEEDED,HF,lure,-,-,-,liberal,no,z,0,2.65897062899,-1,81
2019_Nov_12,133,001,0,recog,61,STRAIGHT,HF,lure,-,-,-,liberal,no,m,1,0.776828594096,1,82
2019_Nov_12,133,001,0,recog,62,QUOTAS,LF,lure,-,-,-,conservative,no,m,1,0.788473100651,3,85
2019_Nov_12,133,001,0,recog,63,HYACINTHS,LF,target,left,aqua,pleasantness,liberal,no,z,1,0.776696982539,3,88
2019_Nov_12,133,001,0,recog,64,SIESTA,LF,lure,-,-,-,liberal,no,m,1,0.894369078397,1,89
2019_Nov_12,133,001,0,recog,65,EXACTLY,HF,target,left,aqua,pleasantness,liberal,no,z,1,1.02385505278,3,92
2019_Nov_12,133,001,0,recog,66,ALMOST,HF,target,right,yellow,imageability,conservative,no,m,0,1.41202189078,-1,91
2019_Nov_12,133,001,0,recog,67,POUNDS,HF,lure,-,-,-,conservative,no,m,1,0.882784328619,3,94
2019_Nov_12,133,001,0,recog,68,BUNGALOWS,LF,target,right,yellow,imageability,conservative,no,z,1,0.671141215167,1,95
2019_Nov_12,133,001,0,recog,69,PIGLETS,LF,target,right,yellow,imageability,liberal,no,z,1,0.835568407947,3,98
2019_Nov_12,133,001,0,recog,70,NAUGHT,LF,target,left,aqua,pleasantness,conservative,no,z,1,1.18838122919,1,99
2019_Nov_12,133,001,0,recog,71,MISFITS,LF,lure,-,-,-,conservative,no,m,1,0.659178494598,3,102
2019_Nov_12,133,001,0,recog,72,HUNDRED,HF,lure,-,-,-,conservative,no,m,1,0.788680966256,3,105
2019_Nov_12,133,001,0,recog,73,WOMAN,HF,lure,-,-,-,conservative,no,m,1,0.717954235839,3,108
2019_Nov_12,133,001,0,recog,74,SEEMED,HF,target,left,aqua,pleasantness,conservative,no,z,1,1.30617063896,1,109
2019_Nov_12,133,001,0,recog,75,HOVELS,LF,target,right,yellow,imageability,liberal,no,z,1,0.835579039522,3,112
2019_Nov_12,133,001,0,recog,76,MIDDLE,HF,lure,-,-,-,conservative,no,m,1,0.694336377141,3,115
2019_Nov_12,133,001,0,recog,77,SWEARS,LF,lure,-,-,-,conservative,no,m,1,0.776789733859,3,118
2019_Nov_12,133,001,0,recog,78,POWER,HF,lure,-,-,-,conservative,no,m,1,0.729705424742,3,121
2019_Nov_12,133,001,0,recog,79,INJECT,LF,target,right,yellow,imageability,conservative,no,z,1,0.811791808849,1,122
2019_Nov_12,133,001,0,recog,80,LESSENED,LF,target,left,aqua,pleasantness,liberal,no,z,1,1.30590338319,3,125
2019_Nov_12,133,001,0,recog,81,FRACTIONS,LF,lure,-,-,-,conservative,no,m,1,0.941588665129,3,128
2019_Nov_12,133,001,0,recog,82,POSITION,HF,lure,-,-,-,liberal,no,m,1,1.04716569565,1,129
2019_Nov_12,133,001,0,recog,83,SULKED,LF,target,right,yellow,imageability,liberal,no,z,1,0.929716496244,3,132
2019_Nov_12,133,001,0,recog,84,USELESSLY,LF,lure,-,-,-,liberal,no,m,1,1.00022912875,1,133
2019_Nov_12,133,001,0,recog,85,WHITE,HF,target,right,yellow,imageability,conservative,no,z,1,0.588475593572,1,134
2019_Nov_12,133,001,0,recog,86,ICONS,LF,lure,-,-,-,liberal,yes,z,0,1.1649595047,-1,133
2019_Nov_12,133,001,0,recog,87,BAPTIZED,LF,target,right,yellow,imageability,conservative,no,z,1,0.905898837273,1,134
2019_Nov_12,133,001,0,recog,88,PLACE,HF,target,left,aqua,pleasantness,liberal,no,z,1,1.16504895657,3,137
2019_Nov_12,133,001,0,recog,89,NICETIES,LF,target,left,aqua,pleasantness,conservative,no,z,1,1.36501053626,1,138
2019_Nov_12,133,001,0,recog,90,TOWARDS,HF,target,right,yellow,imageability,conservative,no,z,1,0.91779740179,1,139
2019_Nov_12,133,001,0,recog,91,ENAMELLED,LF,target,left,aqua,pleasantness,conservative,no,z,1,0.682637979502,1,140
2019_Nov_12,133,001,0,recog,92,PLEASE,HF,target,right,yellow,imageability,liberal,no,z,1,0.752954111193,3,143
2019_Nov_12,133,001,0,recog,93,CHIEF,HF,target,right,yellow,imageability,liberal,no,z,1,0.67083986503,3,146
2019_Nov_12,133,001,0,recog,94,ATONEMENT,LF,target,right,yellow,imageability,liberal,no,z,1,0.647408608789,3,149
2019_Nov_12,133,001,0,recog,95,SUAVE,LF,lure,-,-,-,conservative,no,m,1,0.753160510374,3,152
2019_Nov_12,133,001,1,source,0,ABHORRENT,LF,target,left,aqua,pleasantness,liberal,no,2,1,4.20044586622,-,-
2019_Nov_12,133,001,1,source,1,WEAKENS,LF,target,left,aqua,pleasantness,conservative,no,1,1,2.95306819898,-,-
2019_Nov_12,133,001,1,source,2,RELAXES,LF,target,right,yellow,imageability,liberal,no,1,0,1.01178894932,-,-
2019_Nov_12,133,001,1,source,3,OBVIOUSLY,HF,target,right,yellow,imageability,liberal,yes,8,1,1.58868089293,-,-
2019_Nov_12,133,001,1,source,4,MEMBERS,HF,target,right,yellow,imageability,conservative,no,9,1,1.34147076464,-,-
2019_Nov_12,133,001,1,source,5,FIELD,HF,target,left,aqua,pleasantness,conservative,no,1,1,0.859090582478,-,-
2019_Nov_12,133,001,1,source,6,BOWER,LF,target,right,yellow,imageability,conservative,no,9,1,2.42393621935,-,-
2019_Nov_12,133,001,1,source,7,SKYLIGHT,LF,target,left,aqua,pleasantness,liberal,no,1,1,0.80008791212,-,-
2019_Nov_12,133,001,1,source,8,ERRANT,LF,target,right,yellow,imageability,conservative,no,9,1,2.28277274387,-,-
2019_Nov_12,133,001,1,source,9,CHOICE,HF,target,right,yellow,imageability,conservative,no,9,1,2.8002085255,-,-
2019_Nov_12,133,001,1,source,10,GLASS,HF,target,right,yellow,imageability,conservative,no,1,0,0.929726028,-,-
2019_Nov_12,133,001,1,source,11,LETTER,HF,target,left,aqua,pleasantness,liberal,no,1,1,1.0354240385,-,-
2019_Nov_12,133,001,1,source,12,FORCE,HF,target,left,aqua,pleasantness,conservative,no,1,1,0.705971351941,-,-
2019_Nov_12,133,001,1,source,13,MINISTER,HF,target,right,yellow,imageability,liberal,yes,3,0,3.31798745034,-,-
2019_Nov_12,133,001,1,source,14,FICKLE,LF,target,left,aqua,pleasantness,conservative,no,1,1,1.35302251987,-,-
2019_Nov_12,133,001,1,source,15,USUAL,HF,target,left,aqua,pleasantness,conservative,no,1,1,2.43561555348,-,-
2019_Nov_12,133,001,1,source,16,UNDER,HF,target,left,aqua,pleasantness,conservative,no,1,1,1.29436775861,-,-
2019_Nov_12,133,001,1,source,17,UNION,HF,target,right,yellow,imageability,conservative,no,9,1,0.906243446917,-,-
2019_Nov_12,133,001,1,source,18,RAGES,LF,target,right,yellow,imageability,conservative,no,9,1,1.05911081913,-,-
2019_Nov_12,133,001,1,source,19,FLYWHEEL,LF,target,right,yellow,imageability,liberal,no,9,1,2.16504235766,-,-
2019_Nov_12,133,001,1,source,20,DOWDY,LF,target,left,aqua,pleasantness,conservative,no,9,0,1.70594532291,-,-
2019_Nov_12,133,001,1,source,21,MYSELF,HF,target,right,yellow,imageability,conservative,no,9,1,4.27096143158,-,-
2019_Nov_12,133,001,1,source,22,EIGHT,HF,target,left,aqua,pleasantness,liberal,no,1,1,1.05916434361,-,-
2019_Nov_12,133,001,1,source,23,PEACEABLY,LF,target,right,yellow,imageability,liberal,no,9,1,1.41188734637,-,-
2019_Nov_12,133,001,1,source,24,DAFFODILS,LF,target,left,aqua,pleasantness,liberal,no,1,1,0.70620268033,-,-
2019_Nov_12,133,001,1,source,25,QUALITY,HF,target,left,aqua,pleasantness,liberal,no,1,1,0.941223525547,-,-
2019_Nov_12,133,001,1,source,26,SOCIAL,HF,target,left,aqua,pleasantness,conservative,no,1,1,0.811974012033,-,-
2019_Nov_12,133,001,1,source,27,REFECTORY,LF,target,right,yellow,imageability,conservative,no,9,1,0.76495275915,-,-
2019_Nov_12,133,001,1,source,28,ESTRANGED,LF,target,left,aqua,pleasantness,conservative,no,1,1,1.04747254488,-,-
2019_Nov_12,133,001,1,source,29,DURING,HF,target,left,aqua,pleasantness,liberal,no,1,1,2.34163867019,-,-
2019_Nov_12,133,001,1,source,30,LOTTERY,LF,target,left,aqua,pleasantness,liberal,no,1,1,0.659042117165,-,-
2019_Nov_12,133,001,1,source,31,PIECE,HF,target,left,aqua,pleasantness,liberal,yes,3,1,1.36499697183,-,-
2019_Nov_12,133,001,1,source,32,NOURISH,LF,target,right,yellow,imageability,conservative,no,9,1,2.41183052244,-,-
2019_Nov_12,133,001,1,source,33,TROUBLE,HF,target,right,yellow,imageability,liberal,no,1,0,1.55298263314,-,-
2019_Nov_12,133,001,1,source,34,HURDLES,LF,target,left,aqua,pleasantness,liberal,no,1,1,0.953202743386,-,-
2019_Nov_12,133,001,1,source,35,MOMENT,HF,target,right,yellow,imageability,liberal,no,9,1,1.49437992993,-,-
2019_Nov_12,133,001,1,source,36,SYSTEM,HF,target,left,aqua,pleasantness,conservative,no,1,1,1.20000630562,-,-
2019_Nov_12,133,001,1,source,37,SUBJECT,HF,target,right,yellow,imageability,conservative,no,9,1,1.01207380219,-,-
2019_Nov_12,133,001,1,source,38,CULINARY,LF,target,right,yellow,imageability,liberal,no,9,1,1.96498875986,-,-
2019_Nov_12,133,001,1,source,39,BELIEVE,HF,target,right,yellow,imageability,liberal,no,9,1,1.1767961128,-,-
2019_Nov_12,133,001,1,source,40,DUGOUTS,LF,target,left,aqua,pleasantness,liberal,no,1,1,0.682684905071,-,-
2019_Nov_12,133,001,1,source,41,DEVELOPED,HF,target,right,yellow,imageability,liberal,no,1,0,1.07066990649,-,-
2019_Nov_12,133,001,1,source,42,TWAIN,LF,target,right,yellow,imageability,liberal,no,9,1,1.01181057908,-,-
2019_Nov_12,133,001,1,source,43,CREAK,LF,target,right,yellow,imageability,conservative,no,9,1,1.08257543652,-,-
2019_Nov_12,133,001,1,source,44,JEERED,LF,target,left,aqua,pleasantness,conservative,no,1,1,1.01204337389,-,-
2019_Nov_12,133,001,1,source,45,HIKING,LF,target,right,yellow,imageability,liberal,no,9,1,1.76499748508,-,-
2019_Nov_12,133,001,1,source,46,CALLED,HF,target,left,aqua,pleasantness,liberal,yes,3,1,1.27072093804,-,-
2019_Nov_12,133,001,1,source,47,LUMBER,LF,target,left,aqua,pleasantness,conservative,no,1,1,1.24738829882,-,-
2019_Nov_12,133,001,1,recog,0,LUMBER,LF,target,left,aqua,pleasantness,conservative,no,z,1,1.07091699893,1,153
2019_Nov_12,133,001,1,recog,1,OBVIOUSLY,HF,target,right,yellow,imageability,liberal,no,z,1,0.882655649912,3,156
2019_Nov_12,133,001,1,recog,2,MAYBE,HF,lure,-,-,-,conservative,no,z,0,1.04754256662,-3,153
2019_Nov_12,133,001,1,recog,3,SYSTEM,HF,target,left,aqua,pleasantness,conservative,no,z,1,0.906217417892,1,154
2019_Nov_12,133,001,1,recog,4,CRYPT,LF,lure,-,-,-,liberal,no,m,1,0.870974849362,1,155
2019_Nov_12,133,001,1,recog,5,BUOYANCY,LF,lure,-,-,-,conservative,no,m,1,0.682661442287,3,158
2019_Nov_12,133,001,1,recog,6,FORCE,HF,target,left,aqua,pleasantness,conservative,yes,m,0,0.729712390256,-1,157
2019_Nov_12,133,001,1,recog,7,FLYWHEEL,LF,target,right,yellow,imageability,liberal,no,z,1,0.753274158236,3,160
2019_Nov_12,133,001,1,recog,8,DEVELOPED,HF,target,right,yellow,imageability,liberal,no,z,1,0.564806043426,3,163
2019_Nov_12,133,001,1,recog,9,INDEED,HF,lure,-,-,-,liberal,no,m,1,0.776854623121,1,164
2019_Nov_12,133,001,1,recog,10,REEDY,LF,lure,-,-,-,liberal,no,m,1,0.812105623589,1,165
2019_Nov_12,133,001,1,recog,11,HYSTERICS,LF,lure,-,-,-,liberal,no,m,1,0.63542205883,1,166
2019_Nov_12,133,001,1,recog,12,SKYLIGHT,LF,target,left,aqua,pleasantness,liberal,no,z,1,0.553252821766,3,169
2019_Nov_12,133,001,1,recog,13,ERRANT,LF,target,right,yellow,imageability,conservative,no,z,1,0.659082810431,1,170
2019_Nov_12,133,001,1,recog,14,MINISTER,HF,target,right,yellow,imageability,liberal,yes,m,0,0.81187246217,-3,167
2019_Nov_12,133,001,1,recog,15,KEENER,LF,lure,-,-,-,conservative,no,m,1,0.706013878237,3,170
2019_Nov_12,133,001,1,recog,16,VIVACIOUS,LF,lure,-,-,-,conservative,no,m,1,0.870878065376,3,173
2019_Nov_12,133,001,1,recog,17,LOUDEST,LF,lure,-,-,-,conservative,no,m,1,0.63566621843,3,176
2019_Nov_12,133,001,1,recog,18,PUNCTUAL,LF,lure,-,-,-,conservative,no,m,1,0.635489147729,3,179
2019_Nov_12,133,001,1,recog,19,SOCIAL,HF,target,left,aqua,pleasantness,conservative,no,z,1,0.529788204379,1,180
2019_Nov_12,133,001,1,recog,20,MYSELF,HF,target,right,yellow,imageability,conservative,no,z,1,0.529654393186,1,181
2019_Nov_12,133,001,1,recog,21,PICTURE,HF,lure,-,-,-,liberal,no,m,1,0.74131400391,1,182
2019_Nov_12,133,001,1,recog,22,EXCEPT,HF,lure,-,-,-,liberal,no,m,1,0.858871352087,1,183
2019_Nov_12,133,001,1,recog,23,BELIEVE,HF,target,right,yellow,imageability,liberal,no,z,1,0.52965402658,3,186
2019_Nov_12,133,001,1,recog,24,PRUDENTLY,LF,lure,-,-,-,liberal,no,m,1,0.706182150393,1,187
2019_Nov_12,133,001,1,recog,25,RESEARCH,HF,lure,-,-,-,liberal,no,m,1,0.659069246009,1,188
2019_Nov_12,133,001,1,recog,26,MOMENT,HF,target,right,yellow,imageability,liberal,no,z,1,0.576761065269,3,191
2019_Nov_12,133,001,1,recog,27,AMALGAM,LF,lure,-,-,-,conservative,no,m,1,0.635592530622,3,194
2019_Nov_12,133,001,1,recog,28,OFFER,HF,lure,-,-,-,conservative,no,m,1,0.659110305881,3,197
2019_Nov_12,133,001,1,recog,29,DURING,HF,target,left,aqua,pleasantness,liberal,yes,z,1,0.835542378921,3,200
2019_Nov_12,133,001,1,recog,30,CALLED,HF,target,left,aqua,pleasantness,liberal,no,m,0,0.953258467499,-3,197
2019_Nov_12,133,001,1,recog,31,QUALITY,HF,target,left,aqua,pleasantness,liberal,no,z,1,3.11794228448,3,200
2019_Nov_12,133,001,1,recog,32,TROUBLE,HF,target,right,yellow,imageability,liberal,no,z,1,0.647379280309,3,203
2019_Nov_12,133,001,1,recog,33,BAGGY,LF,lure,-,-,-,conservative,no,m,1,0.859129076109,3,206
2019_Nov_12,133,001,1,recog,34,CREAK,LF,target,right,yellow,imageability,conservative,no,z,1,0.635545238448,1,207
2019_Nov_12,133,001,1,recog,35,BOVINE,LF,lure,-,-,-,liberal,no,m,1,0.6238706702,1,208
2019_Nov_12,133,001,1,recog,36,EIGHT,HF,target,left,aqua,pleasantness,liberal,no,z,1,0.51771990128,3,211
2019_Nov_12,133,001,1,recog,37,AUDACIOUS,LF,lure,-,-,-,conservative,no,m,1,0.765162824392,3,214
2019_Nov_12,133,001,1,recog,38,WINDOW,HF,lure,-,-,-,liberal,no,m,1,0.69431804684,1,215
2019_Nov_12,133,001,1,recog,39,GLASS,HF,target,right,yellow,imageability,conservative,no,z,1,0.506151648774,1,216
2019_Nov_12,133,001,1,recog,40,NEARLY,HF,lure,-,-,-,conservative,no,z,0,0.953188812358,-3,213
2019_Nov_12,133,001,1,recog,41,GARDEN,HF,lure,-,-,-,conservative,no,m,1,0.717893745848,3,216
2019_Nov_12,133,001,1,recog,42,HOSPITAL,HF,lure,-,-,-,conservative,no,m,1,0.70596035376,3,219
2019_Nov_12,133,001,1,recog,43,REFECTORY,LF,target,right,yellow,imageability,conservative,no,z,1,0.717963400989,1,220
2019_Nov_12,133,001,1,recog,44,HIKING,LF,target,right,yellow,imageability,liberal,no,z,1,1.11788876001,3,223
2019_Nov_12,133,001,1,recog,45,FICKLE,LF,target,left,aqua,pleasantness,conservative,no,z,1,1.21203428206,1,224
2019_Nov_12,133,001,1,recog,46,CHOICE,HF,target,right,yellow,imageability,conservative,no,z,1,0.941497380234,1,225
2019_Nov_12,133,001,1,recog,47,LABOUR,HF,lure,-,-,-,conservative,no,m,1,1.27092623741,3,228
2019_Nov_12,133,001,1,recog,48,LATER,HF,lure,-,-,-,conservative,no,z,0,0.776839225669,-3,225
2019_Nov_12,133,001,1,recog,49,UNBEATEN,LF,lure,-,-,-,conservative,no,m,1,0.729792676972,3,228
2019_Nov_12,133,001,1,recog,50,ITSELF,HF,lure,-,-,-,conservative,no,m,1,0.647388078853,3,231
2019_Nov_12,133,001,1,recog,51,TWAIN,LF,target,right,yellow,imageability,liberal,no,z,1,0.682597286236,3,234
2019_Nov_12,133,001,1,recog,52,AMICABLY,LF,lure,-,-,-,liberal,no,m,1,0.647307792137,1,235
2019_Nov_12,133,001,1,recog,53,LOCAL,HF,lure,-,-,-,liberal,no,m,1,0.718014359224,1,236
2019_Nov_12,133,001,1,recog,54,HURDLES,LF,target,left,aqua,pleasantness,liberal,no,z,1,0.588550381197,3,239
2019_Nov_12,133,001,1,recog,55,MEMBERS,HF,target,right,yellow,imageability,conservative,no,z,1,0.870736188852,1,240
2019_Nov_12,133,001,1,recog,56,PEACEABLY,LF,target,right,yellow,imageability,liberal,no,z,1,0.847421146715,3,243
2019_Nov_12,133,001,1,recog,57,BOWER,LF,target,right,yellow,imageability,conservative,no,z,1,0.670676725358,1,244
2019_Nov_12,133,001,1,recog,58,SCENARIOS,LF,lure,-,-,-,liberal,no,m,1,0.647361316614,1,245
2019_Nov_12,133,001,1,recog,59,SUDDENLY,HF,lure,-,-,-,liberal,no,m,1,0.635643122252,1,246
2019_Nov_12,133,001,1,recog,60,DOWDY,LF,target,left,aqua,pleasantness,conservative,no,z,1,0.765060907922,1,247
2019_Nov_12,133,001,1,recog,61,DAFFODILS,LF,target,left,aqua,pleasantness,liberal,no,z,1,0.7059383574,3,250
2019_Nov_12,133,001,1,recog,62,MEANS,HF,lure,-,-,-,conservative,no,m,1,1.62402244509,3,253
2019_Nov_12,133,001,1,recog,63,ACORNS,LF,lure,-,-,-,liberal,no,m,1,0.706380117637,1,254
2019_Nov_12,133,001,1,recog,64,WRANGLING,LF,lure,-,-,-,liberal,no,m,1,1.41206734992,1,255
2019_Nov_12,133,001,1,recog,65,MAGGOT,LF,lure,-,-,-,conservative,no,m,1,0.741516003819,3,258
2019_Nov_12,133,001,1,recog,66,CULINARY,LF,target,right,yellow,imageability,liberal,no,z,1,0.670851596423,3,261
2019_Nov_12,133,001,1,recog,67,PIECE,HF,target,left,aqua,pleasantness,liberal,no,z,1,0.882591493861,3,264
2019_Nov_12,133,001,1,recog,68,VISCOUS,LF,lure,-,-,-,liberal,no,m,1,2.4118525188,1,265
2019_Nov_12,133,001,1,recog,69,SOUND,HF,lure,-,-,-,conservative,no,m,1,1.05894254697,3,268
2019_Nov_12,133,001,1,recog,70,DUGOUTS,LF,target,left,aqua,pleasantness,liberal,no,z,1,0.612080987666,3,271
2019_Nov_12,133,001,1,recog,71,WEAKENS,LF,target,left,aqua,pleasantness,conservative,no,z,1,1.07098702068,1,272
2019_Nov_12,133,001,1,recog,72,ESTRANGED,LF,target,left,aqua,pleasantness,conservative,no,z,1,0.635545238448,1,273
2019_Nov_12,133,001,1,recog,73,LETTER,HF,target,left,aqua,pleasantness,liberal,no,z,1,0.506101057145,3,276
2019_Nov_12,133,001,1,recog,74,SUBJECT,HF,target,right,yellow,imageability,conservative,yes,z,1,1.4239149562,1,277
2019_Nov_12,133,001,1,recog,75,ABHORRENT,LF,target,left,aqua,pleasantness,liberal,no,z,1,0.812075195291,3,280
2019_Nov_12,133,001,1,recog,76,JEERED,LF,target,left,aqua,pleasantness,conservative,no,z,1,0.600338230701,1,281
2019_Nov_12,133,001,1,recog,77,CENTRAL,HF,lure,-,-,-,conservative,no,m,1,0.670823734366,3,284
2019_Nov_12,133,001,1,recog,78,FIELD,HF,target,left,aqua,pleasantness,conservative,no,z,1,0.576741635151,1,285
2019_Nov_12,133,001,1,recog,79,SOLEMNITY,LF,lure,-,-,-,conservative,no,m,1,0.600368292393,3,288
2019_Nov_12,133,001,1,recog,80,NOTHING,HF,lure,-,-,-,conservative,no,m,1,0.800088278726,3,291
2019_Nov_12,133,001,1,recog,81,UNION,HF,target,right,yellow,imageability,conservative,no,z,1,0.647370115158,1,292
2019_Nov_12,133,001,1,recog,82,UNDER,HF,target,left,aqua,pleasantness,conservative,no,z,1,0.635649354554,1,293
2019_Nov_12,133,001,1,recog,83,OFTEN,HF,lure,-,-,-,liberal,no,m,1,0.800249218763,1,294
2019_Nov_12,133,001,1,recog,84,LOTTERY,LF,target,left,aqua,pleasantness,liberal,no,z,1,0.600266375924,3,297
2019_Nov_12,133,001,1,recog,85,WATCH,HF,lure,-,-,-,liberal,no,m,1,0.776551073349,1,298
2019_Nov_12,133,001,1,recog,86,USUAL,HF,target,left,aqua,pleasantness,conservative,no,z,1,0.706126059675,1,299
2019_Nov_12,133,001,1,recog,87,BOASTS,LF,lure,-,-,-,liberal,no,m,1,0.564909059714,1,300
2019_Nov_12,133,001,1,recog,88,NOURISH,LF,target,right,yellow,imageability,conservative,no,z,1,0.670899621809,1,301
2019_Nov_12,133,001,1,recog,89,APRICOT,LF,lure,-,-,-,liberal,no,m,1,0.564975782007,1,302
2019_Nov_12,133,001,1,recog,90,MARKET,HF,lure,-,-,-,liberal,no,m,1,0.823934899572,1,303
2019_Nov_12,133,001,1,recog,91,RELAXES,LF,target,right,yellow,imageability,liberal,no,z,1,0.63544222216,3,306
2019_Nov_12,133,001,1,recog,92,EFFECT,HF,lure,-,-,-,liberal,no,m,1,0.823763327961,1,307
2019_Nov_12,133,001,1,recog,93,TILTS,LF,lure,-,-,-,conservative,no,m,1,0.694215763765,3,310
2019_Nov_12,133,001,1,recog,94,HIGHER,HF,lure,-,-,-,liberal,no,m,1,0.72965519972,1,311
2019_Nov_12,133,001,1,recog,95,RAGES,LF,target,right,yellow,imageability,conservative,no,z,1,0.682560259029,1,312
2019_Nov_12,133,001,2,source,0,TASSELS,LF,target,left,aqua,pleasantness,conservative,no,1,1,1.03563666999,-,-
2019_Nov_12,133,001,2,source,1,PUBLIC,HF,target,left,aqua,pleasantness,liberal,no,1,1,2.24728418271,-,-
2019_Nov_12,133,001,2,source,2,SEWED,LF,target,left,aqua,pleasantness,conservative,no,1,1,0.717989796622,-,-
2019_Nov_12,133,001,2,source,3,CODING,LF,target,right,yellow,imageability,liberal,no,9,1,0.894168544912,-,-
2019_Nov_12,133,001,2,source,4,CHAIR,HF,target,left,aqua,pleasantness,liberal,yes,8,0,1.25903830446,-,-
2019_Nov_12,133,001,2,source,5,AFTERNOON,HF,target,left,aqua,pleasantness,conservative,no,1,1,0.929711363759,-,-
2019_Nov_12,133,001,2,source,6,APTLY,LF,target,right,yellow,imageability,conservative,no,9,1,1.76496669018,-,-
2019_Nov_12,133,001,2,source,7,SMUDGE,LF,target,right,yellow,imageability,liberal,no,9,1,1.04747804397,-,-
2019_Nov_12,133,001,2,source,8,SUPPORT,HF,target,left,aqua,pleasantness,conservative,no,1,1,1.10620282697,-,-
2019_Nov_12,133,001,2,source,9,JUNCTURE,LF,target,left,aqua,pleasantness,conservative,no,1,1,0.976906754495,-,-
2019_Nov_12,133,001,2,source,10,ELATION,LF,target,left,aqua,pleasantness,liberal,yes,2,1,1.0473640295,-,-
2019_Nov_12,133,001,2,source,11,PUCKERED,LF,target,right,yellow,imageability,conservative,no,9,1,0.870713092674,-,-
2019_Nov_12,133,001,2,source,12,FAMILY,HF,target,right,yellow,imageability,liberal,no,9,1,2.03542733796,-,-
2019_Nov_12,133,001,2,source,13,WONDROUS,LF,target,right,yellow,imageability,conservative,no,9,1,0.729503424834,-,-
2019_Nov_12,133,001,2,source,14,PREPARED,HF,target,left,aqua,pleasantness,liberal,no,1,1,2.81219837491,-,-
2019_Nov_12,133,001,2,source,15,REPORT,HF,target,right,yellow,imageability,conservative,no,1,0,1.80036323323,-,-
2019_Nov_12,133,001,2,source,16,ENOUGH,HF,target,left,aqua,pleasantness,conservative,no,1,1,0.635389797502,-,-
2019_Nov_12,133,001,2,source,17,TWINE,LF,target,right,yellow,imageability,conservative,yes,2,0,0.800308608936,-,-
2019_Nov_12,133,001,2,source,18,INVOLVED,HF,target,right,yellow,imageability,conservative,no,1,0,2.69430668205,-,-
2019_Nov_12,133,001,2,source,19,JANGLING,LF,target,right,yellow,imageability,liberal,no,9,1,2.14142486557,-,-
2019_Nov_12,133,001,2,source,20,GYMKHANA,LF,target,left,aqua,pleasantness,liberal,no,1,1,1.88285764982,-,-
2019_Nov_12,133,001,2,source,21,OLDER,HF,target,right,yellow,imageability,conservative,no,9,1,1.17676055202,-,-
2019_Nov_12,133,001,2,source,22,TITAN,LF,target,left,aqua,pleasantness,liberal,no,1,1,0.647064365749,-,-
2019_Nov_12,133,001,2,source,23,BUILDING,HF,target,left,aqua,pleasantness,liberal,no,1,1,0.694413364402,-,-
2019_Nov_12,133,001,2,source,24,THANK,HF,target,right,yellow,imageability,conservative,no,9,1,1.28260630474,-,-
2019_Nov_12,133,001,2,source,25,AFRAID,HF,target,right,yellow,imageability,liberal,no,9,1,2.80017479774,-,-
2019_Nov_12,133,001,2,source,26,GEARING,LF,target,right,yellow,imageability,liberal,no,9,1,0.800344536324,-,-
2019_Nov_12,133,001,2,source,27,UNJUSTLY,LF,target,left,aqua,pleasantness,liberal,no,1,1,0.929768920902,-,-
2019_Nov_12,133,001,2,source,28,DAILIES,LF,target,right,yellow,imageability,conservative,no,9,1,1.8473712883,-,-
2019_Nov_12,133,001,2,source,29,PEPPERED,LF,target,left,aqua,pleasantness,conservative,no,1,1,3.12978659131,-,-
2019_Nov_12,133,001,2,source,30,BREAK,HF,target,right,yellow,imageability,liberal,no,9,1,0.929476002704,-,-
2019_Nov_12,133,001,2,source,31,POETICAL,LF,target,right,yellow,imageability,liberal,no,9,1,0.800313008208,-,-
2019_Nov_12,133,001,2,source,32,MODERN,HF,target,right,yellow,imageability,liberal,no,1,0,0.788534323854,-,-
2019_Nov_12,133,001,2,source,33,VEXED,LF,target,left,aqua,pleasantness,conservative,no,1,1,0.906279740912,-,-
2019_Nov_12,133,001,2,source,34,ACCORDING,HF,target,left,aqua,pleasantness,liberal,no,1,1,2.28255314687,-,-
2019_Nov_12,133,001,2,source,35,CASES,HF,target,right,yellow,imageability,liberal,no,1,0,1.02379309637,-,-
2019_Nov_12,133,001,2,source,36,HUMAN,HF,target,right,yellow,imageability,conservative,no,9,1,1.57670644097,-,-
2019_Nov_12,133,001,2,source,37,WOODCOCK,LF,target,left,aqua,pleasantness,liberal,no,1,1,0.823937465814,-,-
2019_Nov_12,133,001,2,source,38,CLEAR,HF,target,right,yellow,imageability,conservative,no,9,1,1.83566372551,-,-
2019_Nov_12,133,001,2,source,39,NOBLEMAN,LF,target,right,yellow,imageability,conservative,no,9,1,0.705987482605,-,-
2019_Nov_12,133,001,2,source,40,NEBULOUS,LF,target,right,yellow,imageability,liberal,no,9,1,1.89444716548,-,-
2019_Nov_12,133,001,2,source,41,REQUIRED,HF,target,left,aqua,pleasantness,liberal,no,1,1,0.706188382695,-,-
2019_Nov_12,133,001,2,source,42,SORRY,HF,target,left,aqua,pleasantness,conservative,yes,2,1,0.764933329032,-,-
2019_Nov_12,133,001,2,source,43,AEROSOL,LF,target,left,aqua,pleasantness,liberal,no,1,1,0.88249800933,-,-
2019_Nov_12,133,001,2,source,44,SECOND,HF,target,left,aqua,pleasantness,conservative,no,1,1,2.40031542781,-,-
2019_Nov_12,133,001,2,source,45,HIMSELF,HF,target,left,aqua,pleasantness,conservative,no,9,0,1.88263292034,-,-
2019_Nov_12,133,001,2,source,46,PEDALLING,LF,target,left,aqua,pleasantness,conservative,no,9,0,1.0943680519,-,-
2019_Nov_12,133,001,2,source,47,SUCCESS,HF,target,right,yellow,imageability,liberal,no,9,1,1.48258034904,-,-
2019_Nov_12,133,001,2,recog,0,GOBBLE,LF,lure,-,-,-,conservative,no,m,1,0.894408671845,3,315
2019_Nov_12,133,001,2,recog,1,HATCHES,LF,lure,-,-,-,liberal,no,m,1,0.670839498424,1,316
2019_Nov_12,133,001,2,recog,2,BREAK,HF,target,right,yellow,imageability,liberal,no,z,1,0.494488078706,3,319
2019_Nov_12,133,001,2,recog,3,PUCKERED,LF,target,right,yellow,imageability,conservative,no,z,1,0.623910263648,1,320
2019_Nov_12,133,001,2,recog,4,REQUIRED,HF,target,left,aqua,pleasantness,liberal,no,z,1,0.647345919162,3,323
2019_Nov_12,133,001,2,recog,5,THANK,HF,target,right,yellow,imageability,conservative,no,z,1,0.788517826584,1,324
2019_Nov_12,133,001,2,recog,6,ACCORDING,HF,target,left,aqua,pleasantness,liberal,no,z,1,0.635504178575,3,327
2019_Nov_12,133,001,2,recog,7,PEPPERED,LF,target,left,aqua,pleasantness,conservative,no,z,1,0.600351061911,1,328
2019_Nov_12,133,001,2,recog,8,RAYON,LF,lure,-,-,-,liberal,no,m,1,0.553222393468,1,329
2019_Nov_12,133,001,2,recog,9,POTASH,LF,lure,-,-,-,conservative,no,m,1,0.506308922751,3,332
2019_Nov_12,133,001,2,recog,10,UPKEEP,LF,lure,-,-,-,conservative,no,m,1,0.494342536122,3,335
2019_Nov_12,133,001,2,recog,11,ELATION,LF,target,left,aqua,pleasantness,liberal,no,z,1,0.647322822983,3,338
2019_Nov_12,133,001,2,recog,12,DANDELION,LF,lure,-,-,-,liberal,no,z,0,0.706229809174,-1,337
2019_Nov_12,133,001,2,recog,13,ENOUGH,HF,target,left,aqua,pleasantness,conservative,no,z,1,2.21204051436,1,338
2019_Nov_12,133,001,2,recog,14,AFTERNOON,HF,target,left,aqua,pleasantness,conservative,no,z,1,0.623796249181,1,339
2019_Nov_12,133,001,2,recog,15,UNJUSTLY,LF,target,left,aqua,pleasantness,liberal,no,z,1,0.729716789529,3,342
2019_Nov_12,133,001,2,recog,16,WOODCOCK,LF,target,left,aqua,pleasantness,liberal,yes,m,0,0.917947710253,-3,339
2019_Nov_12,133,001,2,recog,17,JANGLING,LF,target,right,yellow,imageability,liberal,no,z,1,1.12969347339,3,342
2019_Nov_12,133,001,2,recog,18,PEDALLING,LF,target,left,aqua,pleasantness,conservative,no,z,1,0.623889367106,1,343
2019_Nov_12,133,001,2,recog,19,SUCCESS,HF,target,right,yellow,imageability,liberal,no,z,1,0.623595715696,3,346
2019_Nov_12,133,001,2,recog,20,ABOVE,HF,lure,-,-,-,conservative,no,m,1,0.71801105977,3,349
2019_Nov_12,133,001,2,recog,21,ACROSS,HF,lure,-,-,-,liberal,no,z,0,0.870824174293,-1,348
2019_Nov_12,133,001,2,recog,22,ROADWAY,LF,lure,-,-,-,liberal,no,m,1,1.03552815461,1,349
2019_Nov_12,133,001,2,recog,23,BILATERAL,LF,lure,-,-,-,liberal,no,m,1,0.765030479623,1,350
2019_Nov_12,133,001,2,recog,24,SNUBBED,LF,lure,-,-,-,liberal,no,m,1,0.706192781968,1,351
2019_Nov_12,133,001,2,recog,25,AEROSOL,LF,target,left,aqua,pleasantness,liberal,no,z,1,0.588499056356,3,354
2019_Nov_12,133,001,2,recog,26,CHURCH,HF,lure,-,-,-,conservative,no,m,1,0.788476400105,3,357
2019_Nov_12,133,001,2,recog,27,SAPLINGS,LF,lure,-,-,-,conservative,no,m,1,0.58832345208,3,360
2019_Nov_12,133,001,2,recog,28,FAMILY,HF,target,right,yellow,imageability,liberal,no,z,1,0.682452843469,3,363
2019_Nov_12,133,001,2,recog,29,TASSELS,LF,target,left,aqua,pleasantness,conservative,no,z,1,0.600337864094,1,364
2019_Nov_12,133,001,2,recog,30,VOICE,HF,lure,-,-,-,liberal,no,m,1,0.706353722004,1,365
2019_Nov_12,133,001,2,recog,31,INVOLVED,HF,target,right,yellow,imageability,conservative,no,z,1,0.635563568748,1,366
2019_Nov_12,133,001,2,recog,32,DAILIES,LF,target,right,yellow,imageability,conservative,no,z,1,0.811819670905,1,367
2019_Nov_12,133,001,2,recog,33,ACIDITY,LF,lure,-,-,-,liberal,no,m,1,0.600226415869,1,368
2019_Nov_12,133,001,2,recog,34,VEXED,LF,target,left,aqua,pleasantness,conservative,no,z,1,0.541262972354,1,369
2019_Nov_12,133,001,2,recog,35,CASES,HF,target,right,yellow,imageability,liberal,no,z,1,0.670970010162,3,372
2019_Nov_12,133,001,2,recog,36,TWINE,LF,target,right,yellow,imageability,conservative,no,z,1,0.647337853829,1,373
2019_Nov_12,133,001,2,recog,37,NURTURING,LF,lure,-,-,-,liberal,no,z,0,0.776528343777,-1,372
2019_Nov_12,133,001,2,recog,38,HUMAN,HF,target,right,yellow,imageability,conservative,no,z,1,0.659076578129,1,373
2019_Nov_12,133,001,2,recog,39,ENDEARING,LF,lure,-,-,-,conservative,no,m,1,1.4473311816,3,376
2019_Nov_12,133,001,2,recog,40,NOBLEMAN,LF,target,right,yellow,imageability,conservative,no,z,1,0.682695903251,1,377
2019_Nov_12,133,001,2,recog,41,PREPARED,HF,target,left,aqua,pleasantness,liberal,no,z,1,0.882561065562,3,380
2019_Nov_12,133,001,2,recog,42,JUNCTURE,LF,target,left,aqua,pleasantness,conservative,no,z,1,0.564969916311,1,381
2019_Nov_12,133,001,2,recog,43,TUBERS,LF,lure,-,-,-,liberal,no,m,1,0.65886174701,1,382
2019_Nov_12,133,001,2,recog,44,SMALL,HF,lure,-,-,-,conservative,no,m,1,0.718003361044,3,385
2019_Nov_12,133,001,2,recog,45,GEARING,LF,target,right,yellow,imageability,liberal,no,z,1,0.612208566556,3,388
2019_Nov_12,133,001,2,recog,46,TELEPHONE,HF,lure,-,-,-,liberal,no,m,1,0.565012442608,1,389
2019_Nov_12,133,001,2,recog,47,RAIDER,LF,lure,-,-,-,conservative,no,m,1,0.600414851356,3,392
2019_Nov_12,133,001,2,recog,48,CLEAR,HF,target,right,yellow,imageability,conservative,no,z,1,0.612133412325,1,393
2019_Nov_12,133,001,2,recog,49,SPACE,HF,lure,-,-,-,liberal,no,m,1,0.576806157808,1,394
2019_Nov_12,133,001,2,recog,50,CODING,LF,target,right,yellow,imageability,liberal,no,z,1,0.623883868016,3,397
2019_Nov_12,133,001,2,recog,51,THING,HF,lure,-,-,-,conservative,no,m,1,0.576749700483,3,400
2019_Nov_12,133,001,2,recog,52,SECOND,HF,target,left,aqua,pleasantness,conservative,no,z,1,0.600294971192,1,401
2019_Nov_12,133,001,2,recog,53,PUBLIC,HF,target,left,aqua,pleasantness,liberal,no,z,1,0.776844724759,3,404
2019_Nov_12,133,001,2,recog,54,CHAIR,HF,target,left,aqua,pleasantness,liberal,no,z,1,0.623905131165,3,407
2019_Nov_12,133,001,2,recog,55,HIMSELF,HF,target,left,aqua,pleasantness,conservative,no,z,1,0.553153838145,1,408
2019_Nov_12,133,001,2,recog,56,SMUDGE,LF,target,right,yellow,imageability,liberal,no,z,1,0.682425348019,3,411
2019_Nov_12,133,001,2,recog,57,SHORT,HF,lure,-,-,-,conservative,no,m,1,0.61208795318,3,414
2019_Nov_12,133,001,2,recog,58,POETICAL,LF,target,right,yellow,imageability,liberal,no,z,1,0.741419219833,3,417
2019_Nov_12,133,001,2,recog,59,AFRAID,HF,target,right,yellow,imageability,liberal,no,z,1,1.04747217827,3,420
2019_Nov_12,133,001,2,recog,60,MATERIAL,HF,lure,-,-,-,conservative,no,m,1,0.965134302444,3,423
2019_Nov_12,133,001,2,recog,61,SORRY,HF,target,left,aqua,pleasantness,conservative,no,z,1,1.07063324589,1,424
2019_Nov_12,133,001,2,recog,62,NEBULOUS,LF,target,right,yellow,imageability,liberal,no,z,1,0.776829693913,3,427
2019_Nov_12,133,001,2,recog,63,ALREADY,HF,lure,-,-,-,liberal,no,m,1,0.623730993311,1,428
2019_Nov_12,133,001,2,recog,64,WHATEVER,HF,lure,-,-,-,conservative,no,m,1,0.965067580151,3,431
2019_Nov_12,133,001,2,recog,65,SUPPORT,HF,target,left,aqua,pleasantness,conservative,no,z,1,0.647280296687,1,432
2019_Nov_12,133,001,2,recog,66,OPENED,HF,lure,-,-,-,conservative,no,m,1,0.62375225646,3,435
2019_Nov_12,133,001,2,recog,67,BUILDING,HF,target,left,aqua,pleasantness,liberal,no,z,1,0.635603162197,3,438
2019_Nov_12,133,001,2,recog,68,JADED,LF,lure,-,-,-,liberal,no,m,1,0.741545698905,1,439
2019_Nov_12,133,001,2,recog,69,WONDROUS,LF,target,right,yellow,imageability,conservative,no,z,1,0.565001811034,1,440
2019_Nov_12,133,001,2,recog,70,MESSED,LF,lure,-,-,-,liberal,no,m,1,0.612097484936,1,441
2019_Nov_12,133,001,2,recog,71,IMPORTANT,HF,lure,-,-,-,conservative,no,m,1,1.11792835346,3,444
2019_Nov_12,133,001,2,recog,72,SEWED,LF,target,left,aqua,pleasantness,conservative,no,z,1,0.670839131818,1,445
2019_Nov_12,133,001,2,recog,73,POLICE,HF,lure,-,-,-,liberal,no,m,1,0.564973582371,1,446
2019_Nov_12,133,001,2,recog,74,MAILBOX,LF,lure,-,-,-,conservative,no,m,1,0.623758488762,3,449
2019_Nov_12,133,001,2,recog,75,GYMKHANA,LF,target,left,aqua,pleasantness,liberal,no,z,1,0.647388445459,3,452
2019_Nov_12,133,001,2,recog,76,BUSINESS,HF,lure,-,-,-,conservative,no,m,1,0.765030479623,3,455
2019_Nov_12,133,001,2,recog,77,AHEAD,HF,lure,-,-,-,liberal,no,m,1,0.90610560306,1,456
2019_Nov_12,133,001,2,recog,78,OLDER,HF,target,right,yellow,imageability,conservative,no,z,1,0.823729966815,1,457
2019_Nov_12,133,001,2,recog,79,MEETING,HF,lure,-,-,-,conservative,yes,m,1,0.717869183246,3,460
2019_Nov_12,133,001,2,recog,80,FENCED,LF,lure,-,-,-,conservative,no,m,1,0.89432838513,3,463
2019_Nov_12,133,001,2,recog,81,GORGED,LF,lure,-,-,-,conservative,no,m,1,0.835585271824,3,466
2019_Nov_12,133,001,2,recog,82,TITAN,LF,target,left,aqua,pleasantness,liberal,no,z,1,0.717956802081,3,469
2019_Nov_12,133,001,2,recog,83,MODERN,HF,target,right,yellow,imageability,liberal,no,z,1,0.894401706331,3,472
2019_Nov_12,133,001,2,recog,84,APTLY,LF,target,right,yellow,imageability,conservative,no,m,0,0.576841351985,-1,471
2019_Nov_12,133,001,2,recog,85,ARRIVED,HF,lure,-,-,-,liberal,no,m,1,0.988578756502,1,472
2019_Nov_12,133,001,2,recog,86,FOLLOWED,HF,lure,-,-,-,liberal,no,m,1,1.37652269804,1,473
2019_Nov_12,133,001,2,recog,87,REPORT,HF,target,right,yellow,imageability,conservative,no,z,1,0.753228699091,1,474
2019_Nov_12,133,001,2,recog,88,ADDED,HF,lure,-,-,-,liberal,yes,m,1,0.847388885385,1,475
2019_Nov_12,133,001,2,recog,89,MORNING,HF,lure,-,-,-,liberal,no,m,1,0.647403842911,1,476
2019_Nov_12,133,001,2,recog,90,JOVIAL,LF,lure,-,-,-,liberal,no,m,1,0.576790393749,1,477
2019_Nov_12,133,001,2,recog,91,OVARIES,LF,lure,-,-,-,conservative,yes,z,0,0.847377887206,-3,474
2019_Nov_12,133,001,2,recog,92,ECONOMIC,HF,lure,-,-,-,conservative,no,m,1,0.635519942634,3,477
2019_Nov_12,133,001,2,recog,93,SADDER,LF,lure,-,-,-,conservative,no,m,1,0.894204105694,3,480
2019_Nov_12,133,001,2,recog,94,UMPIRE,LF,lure,-,-,-,conservative,no,m,1,0.623862604868,3,483
2019_Nov_12,133,001,2,recog,95,KITCHEN,HF,lure,-,-,-,liberal,no,m,1,0.729615972877,1,484
2019_Nov_12,133,001,3,source,0,SENSE,HF,target,left,aqua,pleasantness,conservative,no,1,1,2.68274356203,-,-
2019_Nov_12,133,001,3,source,1,DECIDED,HF,target,right,yellow,imageability,liberal,no,9,1,1.36485619513,-,-
2019_Nov_12,133,001,3,source,2,PNEUMATIC,LF,target,right,yellow,imageability,conservative,no,9,1,1.54139458391,-,-
2019_Nov_12,133,001,3,source,3,MUSIC,HF,target,right,yellow,imageability,conservative,no,9,1,0.917753775675,-,-
2019_Nov_12,133,001,3,source,4,HAVING,HF,target,left,aqua,pleasantness,conservative,no,1,1,1.03557178072,-,-
2019_Nov_12,133,001,3,source,5,ATHEIST,LF,target,left,aqua,pleasantness,conservative,no,1,1,0.906296971395,-,-
2019_Nov_12,133,001,3,source,6,NOMAD,LF,target,left,aqua,pleasantness,liberal,no,1,1,0.658912338638,-,-
2019_Nov_12,133,001,3,source,7,SARDINES,LF,target,left,aqua,pleasantness,conservative,no,1,1,0.953236837744,-,-
2019_Nov_12,133,001,3,source,8,ATTACK,HF,target,left,aqua,pleasantness,conservative,no,1,1,0.635571267474,-,-
2019_Nov_12,133,001,3,source,9,GENERAL,HF,target,right,yellow,imageability,conservative,no,9,1,1.35333230195,-,-
2019_Nov_12,133,001,3,source,10,BLACK,HF,target,left,aqua,pleasantness,liberal,no,1,1,2.04743515106,-,-
2019_Nov_12,133,001,3,source,11,STYLED,LF,target,right,yellow,imageability,conservative,yes,2,0,0.953358917544,-,-
2019_Nov_12,133,001,3,source,12,DOING,HF,target,left,aqua,pleasantness,liberal,no,1,1,0.92973702618,-,-
2019_Nov_12,133,001,3,source,13,LIMELIGHT,LF,target,right,yellow,imageability,conservative,no,9,1,0.659026353106,-,-
2019_Nov_12,133,001,3,source,14,FERRET,LF,target,right,yellow,imageability,liberal,no,9,1,0.847307498853,-,-
2019_Nov_12,133,001,3,source,15,POINT,HF,target,left,aqua,pleasantness,liberal,no,1,1,1.00024489281,-,-
2019_Nov_12,133,001,3,source,16,AROUND,HF,target,right,yellow,imageability,liberal,no,9,1,0.87099427948,-,-
2019_Nov_12,133,001,3,source,17,BRING,HF,target,right,yellow,imageability,conservative,no,1,0,1.27083385269,-,-
2019_Nov_12,133,001,3,source,18,SOPHISTS,LF,target,left,aqua,pleasantness,liberal,no,9,0,1.09443184134,-,-
2019_Nov_12,133,001,3,source,19,RUINOUS,LF,target,left,aqua,pleasantness,liberal,no,1,1,1.54152326262,-,-
2019_Nov_12,133,001,3,source,20,LEMURS,LF,target,left,aqua,pleasantness,conservative,no,1,1,1.01204740656,-,-
2019_Nov_12,133,001,3,source,21,FITFUL,LF,target,right,yellow,imageability,liberal,no,1,0,1.60025354471,-,-
2019_Nov_12,133,001,3,source,22,SCHOOL,HF,target,left,aqua,pleasantness,liberal,no,1,1,1.02388584769,-,-
2019_Nov_12,133,001,3,source,23,TRADE,HF,target,right,yellow,imageability,conservative,yes,2,0,0.706262437109,-,-
2019_Nov_12,133,001,3,source,24,SEABED,LF,target,left,aqua,pleasantness,liberal,no,1,1,1.63553790633,-,-
2019_Nov_12,133,001,3,source,25,RIVER,HF,target,right,yellow,imageability,liberal,no,9,1,1.23561328052,-,-
2019_Nov_12,133,001,3,source,26,EUPHEMISM,LF,target,left,aqua,pleasantness,liberal,no,1,1,1.17676128523,-,-
2019_Nov_12,133,001,3,source,27,VENDETTA,LF,target,right,yellow,imageability,liberal,no,9,1,1.70599664775,-,-
2019_Nov_12,133,001,3,source,28,HUSBAND,HF,target,right,yellow,imageability,conservative,no,9,1,0.694373037741,-,-
2019_Nov_12,133,001,3,source,29,ENERGY,HF,target,left,aqua,pleasantness,conservative,no,1,1,0.753234564787,-,-
2019_Nov_12,133,001,3,source,30,GLUTINOUS,LF,target,right,yellow,imageability,conservative,yes,2,0,0.871041571655,-,-
2019_Nov_12,133,001,3,source,31,FIFTIETH,LF,target,right,yellow,imageability,liberal,no,9,1,0.835417366273,-,-
2019_Nov_12,133,001,3,source,32,JINGLE,LF,target,right,yellow,imageability,conservative,no,9,1,2.02389794569,-,-
2019_Nov_12,133,001,3,source,33,ASCEND,LF,target,right,yellow,imageability,conservative,no,9,1,1.71772840654,-,-
2019_Nov_12,133,001,3,source,34,FIGURE,HF,target,left,aqua,pleasantness,conservative,no,1,1,1.09447693388,-,-
2019_Nov_12,133,001,3,source,35,CAIRN,LF,target,right,yellow,imageability,liberal,no,9,1,0.92964244183,-,-
2019_Nov_12,133,001,3,source,36,ORIGINALS,LF,target,left,aqua,pleasantness,conservative,no,1,1,1.58849319066,-,-
2019_Nov_12,133,001,3,source,37,OTHERS,HF,target,right,yellow,imageability,liberal,no,9,1,0.870639771472,-,-
2019_Nov_12,133,001,3,source,38,MASKING,LF,target,left,aqua,pleasantness,liberal,no,1,1,1.01207013613,-,-
2019_Nov_12,133,001,3,source,39,QUICKLY,HF,target,left,aqua,pleasantness,liberal,no,1,1,0.823869643703,-,-
2019_Nov_12,133,001,3,source,40,MYTHIC,LF,target,left,aqua,pleasantness,conservative,no,1,1,0.635368167747,-,-
2019_Nov_12,133,001,3,source,41,TIGHTNESS,LF,target,right,yellow,imageability,liberal,no,9,1,0.706165653123,-,-
2019_Nov_12,133,001,3,source,42,SITTING,HF,target,left,aqua,pleasantness,liberal,no,1,1,0.929684601521,-,-
2019_Nov_12,133,001,3,source,43,VILLAGE,HF,target,right,yellow,imageability,conservative,no,9,1,0.741403822381,-,-
2019_Nov_12,133,001,3,source,44,NAIVELY,LF,target,left,aqua,pleasantness,conservative,yes,2,1,0.576704607945,-,-
2019_Nov_12,133,001,3,source,45,BASIC,HF,target,left,aqua,pleasantness,conservative,no,1,1,0.976740315369,-,-
2019_Nov_12,133,001,3,source,46,SLEEP,HF,target,right,yellow,imageability,liberal,no,9,1,0.882624488401,-,-
2019_Nov_12,133,001,3,source,47,PAPER,HF,target,right,yellow,imageability,liberal,no,1,0,0.600226415869,-,-
2019_Nov_12,133,001,3,recog,0,FIGURE,HF,target,left,aqua,pleasantness,conservative,no,z,1,1.34126949794,1,485
2019_Nov_12,133,001,3,recog,1,CAIRN,LF,target,right,yellow,imageability,liberal,no,z,1,0.576814589746,3,488
2019_Nov_12,133,001,3,recog,2,BRING,HF,target,right,yellow,imageability,conservative,yes,z,1,0.906096071303,1,489
2019_Nov_12,133,001,3,recog,3,DRAFTING,LF,lure,-,-,-,liberal,yes,m,1,0.964805456857,1,490
2019_Nov_12,133,001,3,recog,4,FIFTIETH,LF,target,right,yellow,imageability,liberal,no,z,1,0.623762154822,3,493
2019_Nov_12,133,001,3,recog,5,CLASS,HF,lure,-,-,-,conservative,no,m,1,0.847373854539,3,496
2019_Nov_12,133,001,3,recog,6,ODDER,LF,lure,-,-,-,conservative,no,m,1,0.694328311809,3,499
2019_Nov_12,133,001,3,recog,7,OUTSIDE,HF,lure,-,-,-,liberal,no,z,0,0.811822970359,-1,498
2019_Nov_12,133,001,3,recog,8,COUNCIL,HF,lure,-,-,-,conservative,no,m,1,0.694462123,3,501
2019_Nov_12,133,001,3,recog,9,TINGLING,LF,lure,-,-,-,liberal,no,m,1,1.08284195908,1,502
2019_Nov_12,133,001,3,recog,10,CAPITAL,HF,lure,-,-,-,liberal,no,m,1,0.600223116415,1,503
2019_Nov_12,133,001,3,recog,11,PRIVATE,HF,lure,-,-,-,conservative,no,m,1,0.647343719526,3,506
2019_Nov_12,133,001,3,recog,12,INCLUDING,HF,lure,-,-,-,conservative,no,m,1,0.588306954809,3,509
2019_Nov_12,133,001,3,recog,13,LOWED,LF,lure,-,-,-,conservative,no,m,1,0.623995682848,3,512
2019_Nov_12,133,001,3,recog,14,HARDLY,HF,lure,-,-,-,conservative,no,m,1,0.659052015526,3,515
2019_Nov_12,133,001,3,recog,15,GLUTINOUS,LF,target,right,yellow,imageability,conservative,no,m,0,0.859195431796,-1,514
2019_Nov_12,133,001,3,recog,16,MYTHIC,LF,target,left,aqua,pleasantness,conservative,no,z,1,0.600291671738,1,515
2019_Nov_12,133,001,3,recog,17,SNIGGERED,LF,lure,-,-,-,conservative,no,m,1,0.76493809491,3,518
2019_Nov_12,133,001,3,recog,18,SITTING,HF,target,left,aqua,pleasantness,liberal,no,z,1,0.564821807485,3,521
2019_Nov_12,133,001,3,recog,19,OTHERS,HF,target,right,yellow,imageability,liberal,no,z,1,0.823863044795,3,524
2019_Nov_12,133,001,3,recog,20,NOMAD,LF,target,left,aqua,pleasantness,liberal,no,z,1,0.588322352261,3,527
2019_Nov_12,133,001,3,recog,21,HUSBAND,HF,target,right,yellow,imageability,conservative,no,z,1,0.635841822706,1,528
2019_Nov_12,133,001,3,recog,22,SEVEN,HF,lure,-,-,-,liberal,no,m,1,0.706215878146,1,529
2019_Nov_12,133,001,3,recog,23,ORIGINALS,LF,target,left,aqua,pleasantness,conservative,no,z,1,0.682622215444,1,530
2019_Nov_12,133,001,3,recog,24,MIXER,LF,lure,-,-,-,liberal,no,m,1,0.494486612282,1,531
2019_Nov_12,133,001,3,recog,25,BLACK,HF,target,left,aqua,pleasantness,liberal,no,z,1,0.541367088459,3,534
2019_Nov_12,133,001,3,recog,26,QUICKLY,HF,target,left,aqua,pleasantness,liberal,no,z,1,0.623753356278,3,537
2019_Nov_12,133,001,3,recog,27,SODDING,LF,lure,-,-,-,liberal,no,m,1,0.682830447655,1,538
2019_Nov_12,133,001,3,recog,28,LIMELIGHT,LF,target,right,yellow,imageability,conservative,no,z,1,0.529837696189,1,539
2019_Nov_12,133,001,3,recog,29,APOSTLE,LF,lure,-,-,-,conservative,no,m,1,0.647438303875,3,542
2019_Nov_12,133,001,3,recog,30,PNEUMATIC,LF,target,right,yellow,imageability,conservative,no,z,1,0.600294604586,1,543
2019_Nov_12,133,001,3,recog,31,VARIOUS,HF,lure,-,-,-,liberal,no,m,1,0.61193837793,1,544
2019_Nov_12,133,001,3,recog,32,VENDETTA,LF,target,right,yellow,imageability,liberal,no,z,1,0.576690676916,3,547
2019_Nov_12,133,001,3,recog,33,TOTAL,HF,lure,-,-,-,conservative,no,m,1,0.764913165702,3,550
2019_Nov_12,133,001,3,recog,34,RECENT,HF,lure,-,-,-,liberal,no,m,1,0.600321733431,1,551
2019_Nov_12,133,001,3,recog,35,TODAY,HF,lure,-,-,-,liberal,no,m,1,0.670872492964,1,552
2019_Nov_12,133,001,3,recog,36,RUINOUS,LF,target,left,aqua,pleasantness,liberal,no,z,1,0.776477752148,3,555
2019_Nov_12,133,001,3,recog,37,BRUISING,LF,lure,-,-,-,conservative,no,m,1,0.553165202931,3,558
2019_Nov_12,133,001,3,recog,38,DOING,HF,target,left,aqua,pleasantness,liberal,no,z,1,0.588264795118,3,561
2019_Nov_12,133,001,3,recog,39,TANGIER,LF,lure,-,-,-,conservative,no,m,1,0.964942567503,3,564
2019_Nov_12,133,001,3,recog,40,ASCEND,LF,target,right,yellow,imageability,conservative,no,z,1,0.62373392616,1,565
2019_Nov_12,133,001,3,recog,41,DAUGHTER,HF,lure,-,-,-,conservative,no,m,1,1.00023242821,3,568
2019_Nov_12,133,001,3,recog,42,AROUND,HF,target,right,yellow,imageability,liberal,no,z,1,0.635640189403,3,571
2019_Nov_12,133,001,3,recog,43,STYLED,LF,target,right,yellow,imageability,conservative,no,z,1,0.858917177838,1,572
2019_Nov_12,133,001,3,recog,44,NERVY,LF,lure,-,-,-,liberal,no,m,1,0.564948653163,1,573
2019_Nov_12,133,001,3,recog,45,SLEEP,HF,target,right,yellow,imageability,liberal,no,z,1,0.553255021402,3,576
2019_Nov_12,133,001,3,recog,46,ATTACK,HF,target,left,aqua,pleasantness,conservative,no,z,1,0.529540378719,1,577
2019_Nov_12,133,001,3,recog,47,MUSIC,HF,target,right,yellow,imageability,conservative,no,z,1,0.553273718309,1,578
2019_Nov_12,133,001,3,recog,48,POINT,HF,target,left,aqua,pleasantness,liberal,no,z,1,0.564967716675,3,581
2019_Nov_12,133,001,3,recog,49,BETTER,HF,lure,-,-,-,liberal,no,m,1,0.835521115773,1,582
2019_Nov_12,133,001,3,recog,50,DUSTER,LF,lure,-,-,-,conservative,no,m,1,0.659174095326,3,585
2019_Nov_12,133,001,3,recog,51,FITFUL,LF,target,right,yellow,imageability,liberal,no,m,0,1.05907415853,-3,582
2019_Nov_12,133,001,3,recog,52,ENERGY,HF,target,left,aqua,pleasantness,conservative,no,z,1,0.953177814177,1,583
2019_Nov_12,133,001,3,recog,53,ENTIRELY,HF,lure,-,-,-,liberal,no,m,1,1.7531806737,1,584
2019_Nov_12,133,001,3,recog,54,BROUGHT,HF,lure,-,-,-,conservative,no,m,1,1.42379507604,3,587
2019_Nov_12,133,001,3,recog,55,VILLAGE,HF,target,right,yellow,imageability,conservative,no,z,1,0.635577133171,1,588
2019_Nov_12,133,001,3,recog,56,GESTURING,LF,lure,-,-,-,liberal,no,m,1,0.788291630678,1,589
2019_Nov_12,133,001,3,recog,57,TIGHTNESS,LF,target,right,yellow,imageability,liberal,no,z,1,0.694460289971,3,592
2019_Nov_12,133,001,3,recog,58,BASIC,HF,target,left,aqua,pleasantness,conservative,no,z,1,0.56500401067,1,593
2019_Nov_12,133,001,3,recog,59,LEMURS,LF,target,left,aqua,pleasantness,conservative,no,z,1,0.706172252032,1,594
2019_Nov_12,133,001,3,recog,60,FERRET,LF,target,right,yellow,imageability,liberal,no,m,0,0.612084653726,-3,591
2019_Nov_12,133,001,3,recog,61,ELICIT,LF,lure,-,-,-,liberal,no,m,1,0.65910224055,1,592
2019_Nov_12,133,001,3,recog,62,HAPPEN,HF,lure,-,-,-,liberal,yes,m,1,0.847291001582,1,593
2019_Nov_12,133,001,3,recog,63,SCHOOL,HF,target,left,aqua,pleasantness,liberal,no,z,1,0.517979458332,3,596
2019_Nov_12,133,001,3,recog,64,TUSKS,LF,lure,-,-,-,conservative,no,m,1,0.60042548293,3,599
2019_Nov_12,133,001,3,recog,65,LAVISHED,LF,lure,-,-,-,liberal,no,m,1,0.741478610006,1,600
2019_Nov_12,133,001,3,recog,66,SAVOURED,LF,lure,-,-,-,liberal,no,m,1,0.553052654887,1,601
2019_Nov_12,133,001,3,recog,67,EARLIER,HF,lure,-,-,-,liberal,no,m,1,0.682426447837,1,602
2019_Nov_12,133,001,3,recog,68,HAVING,HF,target,left,aqua,pleasantness,conservative,no,z,1,1.15342901261,1,603
2019_Nov_12,133,001,3,recog,69,SARDINES,LF,target,left,aqua,pleasantness,conservative,no,z,1,0.870842137988,1,604
2019_Nov_12,133,001,3,recog,70,EUPHEMISM,LF,target,left,aqua,pleasantness,liberal,no,z,1,0.600245479382,3,607
2019_Nov_12,133,001,3,recog,71,ERSTWHILE,LF,lure,-,-,-,liberal,no,m,1,0.706067036108,1,608
2019_Nov_12,133,001,3,recog,72,GENERAL,HF,target,right,yellow,imageability,conservative,no,z,1,0.541460206385,1,609
2019_Nov_12,133,001,3,recog,73,PAPER,HF,target,right,yellow,imageability,liberal,no,z,1,0.541576787095,3,612
2019_Nov_12,133,001,3,recog,74,SOPHISTS,LF,target,left,aqua,pleasantness,liberal,no,z,1,0.635591064199,3,615
2019_Nov_12,133,001,3,recog,75,LULLED,LF,lure,-,-,-,liberal,no,m,1,0.588326384928,1,616
2019_Nov_12,133,001,3,recog,76,TICKLE,LF,lure,-,-,-,conservative,no,m,1,0.659228353015,3,619
2019_Nov_12,133,001,3,recog,77,LADDIE,LF,lure,-,-,-,conservative,no,m,1,0.52964669446,3,622
2019_Nov_12,133,001,3,recog,78,SENSE,HF,target,left,aqua,pleasantness,conservative,no,z,1,0.623777552274,1,623
2019_Nov_12,133,001,3,recog,79,RIVER,HF,target,right,yellow,imageability,liberal,no,z,1,0.64733235474,3,626
2019_Nov_12,133,001,3,recog,80,TRADE,HF,target,right,yellow,imageability,conservative,yes,m,0,0.717898511726,-1,625
2019_Nov_12,133,001,3,recog,81,BULBOUS,LF,lure,-,-,-,liberal,no,m,1,0.835575373462,1,626
2019_Nov_12,133,001,3,recog,82,EVENING,HF,lure,-,-,-,liberal,no,m,1,0.729785344852,1,627
2019_Nov_12,133,001,3,recog,83,TUMBLER,LF,lure,-,-,-,conservative,no,m,1,0.576782695023,3,630
2019_Nov_12,133,001,3,recog,84,UNLESS,HF,lure,-,-,-,conservative,no,m,1,0.835616433334,3,633
2019_Nov_12,133,001,3,recog,85,MASKING,LF,target,left,aqua,pleasantness,liberal,no,z,1,0.623768387125,3,636
2019_Nov_12,133,001,3,recog,86,ATHEIST,LF,target,left,aqua,pleasantness,conservative,no,z,1,0.576869947253,1,637
2019_Nov_12,133,001,3,recog,87,YOUNG,HF,lure,-,-,-,conservative,no,m,1,0.776773969801,3,640
2019_Nov_12,133,001,3,recog,88,SEABED,LF,target,left,aqua,pleasantness,liberal,no,z,1,0.776810997007,3,643
2019_Nov_12,133,001,3,recog,89,THEORY,HF,lure,-,-,-,conservative,no,m,1,0.623855272748,3,646
2019_Nov_12,133,001,3,recog,90,OMELETTE,LF,lure,-,-,-,conservative,no,m,1,0.57664631759,3,649
2019_Nov_12,133,001,3,recog,91,SPOKE,HF,lure,-,-,-,conservative,no,m,1,0.706247039656,3,652
2019_Nov_12,133,001,3,recog,92,FINAL,HF,lure,-,-,-,liberal,no,m,1,0.611892918785,1,653
2019_Nov_12,133,001,3,recog,93,NAIVELY,LF,target,left,aqua,pleasantness,conservative,no,m,0,1.64745590096,-1,652
2019_Nov_12,133,001,3,recog,94,JINGLE,LF,target,right,yellow,imageability,conservative,no,z,1,0.706156121367,1,653
2019_Nov_12,133,001,3,recog,95,DECIDED,HF,target,right,yellow,imageability,liberal,no,z,1,1.04726321285,3,656
2019_Nov_12,133,001,4,source,0,TWENTY,HF,target,right,yellow,imageability,liberal,no,9,1,0.976785774514,-,-
2019_Nov_12,133,001,4,source,1,FREEDOM,HF,target,left,aqua,pleasantness,conservative,no,1,1,0.788485565256,-,-
2019_Nov_12,133,001,4,source,2,QUESTION,HF,target,left,aqua,pleasantness,liberal,no,1,1,1.17677851572,-,-
2019_Nov_12,133,001,4,source,3,VIBRATE,LF,target,right,yellow,imageability,liberal,no,9,1,0.835529181105,-,-
2019_Nov_12,133,001,4,source,4,FRIEND,HF,target,right,yellow,imageability,conservative,no,9,1,0.894160846186,-,-
2019_Nov_12,133,001,4,source,5,WRONG,HF,target,right,yellow,imageability,conservative,no,9,1,1.52976474159,-,-
2019_Nov_12,133,001,4,source,6,WOBBLE,LF,target,right,yellow,imageability,conservative,no,9,1,0.682558792605,-,-
2019_Nov_12,133,001,4,source,7,FUTURE,HF,target,right,yellow,imageability,liberal,no,9,1,0.600314034705,-,-
2019_Nov_12,133,001,4,source,8,PAWNS,LF,target,left,aqua,pleasantness,liberal,no,1,1,0.623857472383,-,-
2019_Nov_12,133,001,4,source,9,NECESSARY,HF,target,left,aqua,pleasantness,conservative,no,1,1,1.15317898732,-,-
2019_Nov_12,133,001,4,source,10,LARGE,HF,target,right,yellow,imageability,liberal,no,9,1,0.706102963496,-,-
2019_Nov_12,133,001,4,source,11,LEECH,LF,target,right,yellow,imageability,liberal,no,9,1,0.823729233603,-,-
2019_Nov_12,133,001,4,source,12,LEVEL,HF,target,left,aqua,pleasantness,conservative,no,1,1,1.23536838771,-,-
2019_Nov_12,133,001,4,source,13,WANTED,HF,target,right,yellow,imageability,conservative,yes,2,0,0.682398952386,-,-
2019_Nov_12,133,001,4,source,14,REOPEN,LF,target,left,aqua,pleasantness,conservative,no,1,1,0.835427264636,-,-
2019_Nov_12,133,001,4,source,15,HOWEVER,HF,target,left,aqua,pleasantness,liberal,no,1,1,0.776881751966,-,-
2019_Nov_12,133,001,4,source,16,VORACIOUS,LF,target,left,aqua,pleasantness,liberal,no,3,1,2.82398035872,-,-
2019_Nov_12,133,001,4,source,17,NORTH,HF,target,left,aqua,pleasantness,conservative,no,1,1,2.1532757713,-,-
2019_Nov_12,133,001,4,source,18,PIQUE,LF,target,left,aqua,pleasantness,conservative,no,9,0,0.847398050536,-,-
2019_Nov_12,133,001,4,source,19,JUDICIOUS,LF,target,right,yellow,imageability,conservative,yes,8,1,0.576777195934,-,-
2019_Nov_12,133,001,4,source,20,FOCUSES,LF,target,left,aqua,pleasantness,liberal,yes,8,0,0.588559546347,-,-
2019_Nov_12,133,001,4,source,21,PAVILIONS,LF,target,right,yellow,imageability,conservative,no,9,1,4.52982743122,-,-
2019_Nov_12,133,001,4,source,22,PAINTWORK,LF,target,right,yellow,imageability,liberal,no,9,1,0.776871486998,-,-
2019_Nov_12,133,001,4,source,23,SIMILAR,HF,target,left,aqua,pleasantness,liberal,no,1,1,1.61226685691,-,-
2019_Nov_12,133,001,4,source,24,KNOWLEDGE,HF,target,left,aqua,pleasantness,conservative,no,1,1,2.74135653021,-,-
2019_Nov_12,133,001,4,source,25,TRIED,HF,target,right,yellow,imageability,liberal,no,9,1,0.976770743668,-,-
2019_Nov_12,133,001,4,source,26,PLIABLE,LF,target,right,yellow,imageability,conservative,no,9,1,0.81201287227,-,-
2019_Nov_12,133,001,4,source,27,ABETTED,LF,target,left,aqua,pleasantness,conservative,no,2,1,2.18863382072,-,-
2019_Nov_12,133,001,4,source,28,POACHED,LF,target,left,aqua,pleasantness,liberal,no,1,1,0.964980327922,-,-
2019_Nov_12,133,001,4,source,29,GIRLS,HF,target,right,yellow,imageability,liberal,no,9,1,0.941439456485,-,-
2019_Nov_12,133,001,4,source,30,HYENA,LF,target,right,yellow,imageability,conservative,no,9,1,0.753272691813,-,-
2019_Nov_12,133,001,4,source,31,RUSSET,LF,target,right,yellow,imageability,liberal,no,9,1,1.23532622802,-,-
2019_Nov_12,133,001,4,source,32,NINETIES,LF,target,right,yellow,imageability,liberal,no,9,1,0.706196448028,-,-
2019_Nov_12,133,001,4,source,33,CRONE,LF,target,left,aqua,pleasantness,conservative,no,1,1,1.08277083752,-,-
2019_Nov_12,133,001,4,source,34,NATIONAL,HF,target,right,yellow,imageability,liberal,no,9,1,2.00051324841,-,-
2019_Nov_12,133,001,4,source,35,JOWLS,LF,target,left,aqua,pleasantness,liberal,no,1,1,0.717761034474,-,-
2019_Nov_12,133,001,4,source,36,ADMIRALS,LF,target,right,yellow,imageability,conservative,no,9,1,0.776784601375,-,-
2019_Nov_12,133,001,4,source,37,GREATER,HF,target,right,yellow,imageability,conservative,no,1,0,1.58867502724,-,-
2019_Nov_12,133,001,4,source,38,MONEY,HF,target,left,aqua,pleasantness,liberal,no,1,1,0.682381355298,-,-
2019_Nov_12,133,001,4,source,39,LIFEBOAT,LF,target,right,yellow,imageability,liberal,yes,2,0,1.05908808956,-,-
2019_Nov_12,133,001,4,source,40,SKATES,LF,target,left,aqua,pleasantness,conservative,no,1,1,1.40029269823,-,-
2019_Nov_12,133,001,4,source,41,CLOSE,HF,target,left,aqua,pleasantness,liberal,no,1,1,1.58831098748,-,-
2019_Nov_12,133,001,4,source,42,DIFFERENT,HF,target,right,yellow,imageability,conservative,no,9,1,1.08237746927,-,-
2019_Nov_12,133,001,4,source,43,PRYING,LF,target,left,aqua,pleasantness,liberal,no,1,1,2.94155933665,-,-
2019_Nov_12,133,001,4,source,44,DOCTOR,HF,target,left,aqua,pleasantness,liberal,no,1,1,0.635600962561,-,-
2019_Nov_12,133,001,4,source,45,DONATE,LF,target,left,aqua,pleasantness,conservative,no,1,1,1.34143740349,-,-
2019_Nov_12,133,001,4,source,46,STUDENT,HF,target,right,yellow,imageability,conservative,no,9,1,1.54153682704,-,-
2019_Nov_12,133,001,4,source,47,WHOLE,HF,target,left,aqua,pleasantness,conservative,no,1,1,0.647206242274,-,-
2019_Nov_12,133,001,4,recog,0,SEPULCHRE,LF,lure,-,-,-,liberal,no,m,1,0.635566868202,1,657
2019_Nov_12,133,001,4,recog,1,AREAS,HF,lure,-,-,-,liberal,no,m,1,0.647147585312,1,658
2019_Nov_12,133,001,4,recog,2,LIFEBOAT,LF,target,right,yellow,imageability,liberal,no,m,0,1.25882933904,-3,655
2019_Nov_12,133,001,4,recog,3,KNOWLEDGE,HF,target,left,aqua,pleasantness,conservative,no,z,1,0.576711206852,1,656
2019_Nov_12,133,001,4,recog,4,MONEY,HF,target,left,aqua,pleasantness,liberal,no,z,1,0.635511510695,3,659
2019_Nov_12,133,001,4,recog,5,LIGHT,HF,lure,-,-,-,liberal,no,m,1,0.706146223005,1,660
2019_Nov_12,133,001,4,recog,6,WICKEDLY,LF,lure,-,-,-,liberal,no,m,1,0.576724404668,1,661
2019_Nov_12,133,001,4,recog,7,FUTURE,HF,target,right,yellow,imageability,liberal,no,z,1,0.541273970533,3,664
2019_Nov_12,133,001,4,recog,8,BEGAN,HF,lure,-,-,-,liberal,no,m,1,0.541499799832,1,665
2019_Nov_12,133,001,4,recog,9,ALONE,HF,lure,-,-,-,conservative,no,m,1,0.553277750974,3,668
2019_Nov_12,133,001,4,recog,10,CAUGHT,HF,lure,-,-,-,conservative,no,m,1,0.623749323611,3,671
2019_Nov_12,133,001,4,recog,11,POACHED,LF,target,left,aqua,pleasantness,liberal,no,z,1,0.553211028682,3,674
2019_Nov_12,133,001,4,recog,12,HASSLE,LF,lure,-,-,-,conservative,no,m,1,0.541191117576,3,677
2019_Nov_12,133,001,4,recog,13,ABETTED,LF,target,left,aqua,pleasantness,conservative,no,z,1,0.823780191838,1,678
2019_Nov_12,133,001,4,recog,14,FRIEND,HF,target,right,yellow,imageability,conservative,no,z,1,0.470912013092,1,679
2019_Nov_12,133,001,4,recog,15,QUESTION,HF,target,left,aqua,pleasantness,liberal,no,z,1,0.635609394499,3,682
2019_Nov_12,133,001,4,recog,16,TRIED,HF,target,right,yellow,imageability,liberal,no,z,1,0.776460521666,3,685
2019_Nov_12,133,001,4,recog,17,UPSTART,LF,lure,-,-,-,liberal,no,m,1,0.5529679689,1,686
2019_Nov_12,133,001,4,recog,18,NEMESIS,LF,lure,-,-,-,liberal,no,m,1,0.51797505906,1,687
2019_Nov_12,133,001,4,recog,19,PRYING,LF,target,left,aqua,pleasantness,liberal,no,z,1,0.588603905674,3,690
2019_Nov_12,133,001,4,recog,20,SIMILAR,HF,target,left,aqua,pleasantness,liberal,no,z,1,0.69437963665,3,693
2019_Nov_12,133,001,4,recog,21,DOCTOR,HF,target,left,aqua,pleasantness,liberal,no,z,1,0.505999507282,3,696
2019_Nov_12,133,001,4,recog,22,BECAME,HF,lure,-,-,-,liberal,no,m,1,0.63558629832,1,697
2019_Nov_12,133,001,4,recog,23,NEPHEWS,LF,lure,-,-,-,liberal,no,m,1,0.576698009037,1,698
2019_Nov_12,133,001,4,recog,24,PIQUE,LF,target,left,aqua,pleasantness,conservative,no,z,1,0.517951962882,1,699
2019_Nov_12,133,001,4,recog,25,EAVES,LF,lure,-,-,-,conservative,no,m,1,0.494397893628,3,702
2019_Nov_12,133,001,4,recog,26,PLIABLE,LF,target,right,yellow,imageability,conservative,yes,m,0,0.635645321888,-1,701
2019_Nov_12,133,001,4,recog,27,VIGILANT,LF,lure,-,-,-,conservative,no,m,1,1.25895728453,3,704
2019_Nov_12,133,001,4,recog,28,HEALTH,HF,lure,-,-,-,conservative,no,m,1,1.03561577344,3,707
2019_Nov_12,133,001,4,recog,29,TWENTY,HF,target,right,yellow,imageability,liberal,no,z,1,0.564983114127,3,710
2019_Nov_12,133,001,4,recog,30,BUDDIES,LF,lure,-,-,-,conservative,no,m,1,0.517958561791,3,713
2019_Nov_12,133,001,4,recog,31,MOUTH,HF,lure,-,-,-,conservative,no,m,1,0.659248882951,3,716
2019_Nov_12,133,001,4,recog,32,HOWEVER,HF,target,left,aqua,pleasantness,liberal,no,z,1,0.670904387687,3,719
2019_Nov_12,133,001,4,recog,33,DIFFERENT,HF,target,right,yellow,imageability,conservative,no,z,1,0.529685921303,1,720
2019_Nov_12,133,001,4,recog,34,PAWNS,LF,target,left,aqua,pleasantness,liberal,no,z,1,0.4944693818,3,723
2019_Nov_12,133,001,4,recog,35,NINETIES,LF,target,right,yellow,imageability,liberal,no,z,1,0.517865443864,3,726
2019_Nov_12,133,001,4,recog,36,WOBBLE,LF,target,right,yellow,imageability,conservative,no,z,1,0.647416674121,1,727
2019_Nov_12,133,001,4,recog,37,PHYSICAL,HF,lure,-,-,-,conservative,no,m,1,0.576683344796,3,730
2019_Nov_12,133,001,4,recog,38,BIOLOGIST,LF,lure,-,-,-,conservative,no,m,1,0.482711227382,3,733
2019_Nov_12,133,001,4,recog,39,WRONG,HF,target,right,yellow,imageability,conservative,no,z,1,1.03568909464,1,734
2019_Nov_12,133,001,4,recog,40,ADMIRALS,LF,target,right,yellow,imageability,conservative,no,z,1,0.670792572856,1,735
2019_Nov_12,133,001,4,recog,41,PACIFISM,LF,lure,-,-,-,liberal,no,m,1,0.51806964341,1,736
2019_Nov_12,133,001,4,recog,42,PAINTWORK,LF,target,right,yellow,imageability,liberal,no,z,1,0.682711667309,3,739
2019_Nov_12,133,001,4,recog,43,OOZED,LF,lure,-,-,-,conservative,no,m,1,0.541567255339,3,742
2019_Nov_12,133,001,4,recog,44,AFOOT,LF,lure,-,-,-,conservative,no,m,1,0.635605728439,3,745
2019_Nov_12,133,001,4,recog,45,LEECH,LF,target,right,yellow,imageability,liberal,no,z,1,0.694423995976,3,748
2019_Nov_12,133,001,4,recog,46,HYENA,LF,target,right,yellow,imageability,conservative,no,z,1,0.659065946555,1,749
2019_Nov_12,133,001,4,recog,47,CRONE,LF,target,left,aqua,pleasantness,conservative,no,z,1,0.670893389507,1,750
2019_Nov_12,133,001,4,recog,48,COWARDS,LF,lure,-,-,-,conservative,no,m,1,0.682749427729,3,753
2019_Nov_12,133,001,4,recog,49,PARENTS,HF,lure,-,-,-,conservative,no,m,1,1.00001723048,3,756
2019_Nov_12,133,001,4,recog,50,GIRLS,HF,target,right,yellow,imageability,liberal,no,z,1,0.659043583588,3,759
2019_Nov_12,133,001,4,recog,51,FIXTURE,LF,lure,-,-,-,liberal,no,m,1,0.553170702021,1,760
2019_Nov_12,133,001,4,recog,52,STUDENT,HF,target,right,yellow,imageability,conservative,no,z,1,0.470842724557,1,761
2019_Nov_12,133,001,4,recog,53,PASSED,HF,lure,-,-,-,liberal,no,m,1,0.600154561092,1,762
2019_Nov_12,133,001,4,recog,54,RUNNING,HF,lure,-,-,-,conservative,no,m,1,0.576828154169,3,765
2019_Nov_12,133,001,4,recog,55,DONATE,LF,target,left,aqua,pleasantness,conservative,no,z,1,0.506122320294,1,766
2019_Nov_12,133,001,4,recog,56,REOPEN,LF,target,left,aqua,pleasantness,conservative,no,z,1,0.64736901534,1,767
2019_Nov_12,133,001,4,recog,57,NECESSARY,HF,target,left,aqua,pleasantness,conservative,no,z,1,0.612090152817,1,768
2019_Nov_12,133,001,4,recog,58,BEAUTIFUL,HF,lure,-,-,-,liberal,no,m,1,0.494242452683,1,769
2019_Nov_12,133,001,4,recog,59,RUSSET,LF,target,right,yellow,imageability,liberal,no,z,1,0.600353628153,3,772
2019_Nov_12,133,001,4,recog,60,JUDICIOUS,LF,target,right,yellow,imageability,conservative,no,m,0,0.588275060086,-1,771
2019_Nov_12,133,001,4,recog,61,NATIONAL,HF,target,right,yellow,imageability,liberal,no,z,1,0.529795536499,3,774
2019_Nov_12,133,001,4,recog,62,VERBALLY,LF,lure,-,-,-,liberal,no,m,1,0.694455890699,1,775
2019_Nov_12,133,001,4,recog,63,MYRIADS,LF,lure,-,-,-,conservative,no,m,1,0.576833286652,3,778
2019_Nov_12,133,001,4,recog,64,NUMBER,HF,lure,-,-,-,conservative,no,z,0,0.505994374797,-3,775
2019_Nov_12,133,001,4,recog,65,VIBRATE,LF,target,right,yellow,imageability,liberal,no,z,1,0.565016108668,3,778
2019_Nov_12,133,001,4,recog,66,WHOLE,HF,target,left,aqua,pleasantness,conservative,no,z,1,0.588646431971,1,779
2019_Nov_12,133,001,4,recog,67,TREES,HF,lure,-,-,-,conservative,no,m,1,0.529886454788,3,782
2019_Nov_12,133,001,4,recog,68,GREATER,HF,target,right,yellow,imageability,conservative,no,z,1,0.541469371535,1,783
2019_Nov_12,133,001,4,recog,69,WANTED,HF,target,right,yellow,imageability,conservative,no,z,1,0.976751680156,1,784
2019_Nov_12,133,001,4,recog,70,MOODILY,LF,lure,-,-,-,conservative,no,m,1,0.541458739961,3,787
2019_Nov_12,133,001,4,recog,71,NORTH,HF,target,left,aqua,pleasantness,conservative,no,z,1,0.506180977254,1,788
2019_Nov_12,133,001,4,recog,72,RAKING,LF,lure,-,-,-,liberal,no,z,0,0.764934428849,-1,787
2019_Nov_12,133,001,4,recog,73,CLOSE,HF,target,left,aqua,pleasantness,liberal,no,z,1,0.517975059061,3,790
2019_Nov_12,133,001,4,recog,74,PROBABLY,HF,lure,-,-,-,liberal,no,m,1,1.36476124417,1,791
2019_Nov_12,133,001,4,recog,75,MILES,HF,lure,-,-,-,liberal,no,m,1,0.776723378171,1,792
2019_Nov_12,133,001,4,recog,76,CRUCIALLY,LF,lure,-,-,-,liberal,no,m,1,0.812098658075,1,793
2019_Nov_12,133,001,4,recog,77,LARGE,HF,target,right,yellow,imageability,liberal,no,z,1,0.729767381157,3,796
2019_Nov_12,133,001,4,recog,78,IRATE,LF,lure,-,-,-,conservative,yes,m,1,0.659157964663,3,799
2019_Nov_12,133,001,4,recog,79,TURNED,HF,lure,-,-,-,conservative,no,m,1,0.941411227822,3,802
2019_Nov_12,133,001,4,recog,80,ACTION,HF,lure,-,-,-,conservative,no,m,1,0.647286162383,3,805
2019_Nov_12,133,001,4,recog,81,PAVILIONS,LF,target,right,yellow,imageability,conservative,no,z,1,0.706119827372,1,806
2019_Nov_12,133,001,4,recog,82,EITHER,HF,lure,-,-,-,liberal,no,m,1,0.682717899611,1,807
2019_Nov_12,133,001,4,recog,83,FOCUSES,LF,target,left,aqua,pleasantness,liberal,no,z,1,0.635532040632,3,810
2019_Nov_12,133,001,4,recog,84,KRAALS,LF,lure,-,-,-,conservative,no,m,1,0.72967536305,3,813
2019_Nov_12,133,001,4,recog,85,VORACIOUS,LF,target,left,aqua,pleasantness,liberal,no,z,1,0.823921701756,3,816
2019_Nov_12,133,001,4,recog,86,IDIOCY,LF,lure,-,-,-,liberal,no,m,1,0.506219104279,1,817
2019_Nov_12,133,001,4,recog,87,TERMS,HF,lure,-,-,-,liberal,no,m,1,0.6120952853,1,818
2019_Nov_12,133,001,4,recog,88,SKATES,LF,target,left,aqua,pleasantness,conservative,no,z,1,0.588597306766,1,819
2019_Nov_12,133,001,4,recog,89,JOWLS,LF,target,left,aqua,pleasantness,liberal,no,z,1,0.588237666274,3,822
2019_Nov_12,133,001,4,recog,90,LEVEL,HF,target,left,aqua,pleasantness,conservative,yes,m,0,0.588548548167,-1,821
2019_Nov_12,133,001,4,recog,91,DRINK,HF,lure,-,-,-,conservative,no,m,1,0.576724404668,3,824
2019_Nov_12,133,001,4,recog,92,FREEDOM,HF,target,left,aqua,pleasantness,conservative,no,z,1,0.54140191603,1,825
2019_Nov_12,133,001,4,recog,93,SLOWLY,HF,lure,-,-,-,liberal,no,m,1,0.600270041984,1,826
2019_Nov_12,133,001,4,recog,94,DEGREE,HF,lure,-,-,-,liberal,no,m,1,0.682730364216,1,827
2019_Nov_12,133,001,4,recog,95,JEOPARDY,LF,lure,-,-,-,liberal,yes,m,1,0.600218350537,1,828
