date,subj,session,cycle,task,trial,item,wf,type,source,colour,encoding,bias,null,response,corr,rt,points,total
2019_Oct_16,14,001,0,source,0,BAIZE,LF,target,right,aqua,imageability,liberal,no,8,1,3.4002113117,-,-
2019_Oct_16,14,001,0,source,1,MINISTER,HF,target,left,yellow,pleasantness,conservative,no,1,1,2.25015947361,-,-
2019_Oct_16,14,001,0,source,2,BOOKS,HF,target,left,yellow,pleasantness,liberal,no,1,1,2.03356277981,-,-
2019_Oct_16,14,001,0,source,3,BELIEVE,HF,target,right,aqua,imageability,liberal,no,9,1,1.58356380631,-,-
2019_Oct_16,14,001,0,source,4,ZEALOTS,LF,target,right,aqua,imageability,conservative,no,9,1,0.816944089651,-,-
2019_Oct_16,14,001,0,source,5,WANTED,HF,target,left,yellow,pleasantness,conservative,no,1,1,1.11687839385,-,-
2019_Oct_16,14,001,0,source,6,SWIFTNESS,LF,target,right,aqua,imageability,conservative,no,9,1,0.800227955614,-,-
2019_Oct_16,14,001,0,source,7,BUTCHERED,LF,target,left,yellow,pleasantness,liberal,no,1,1,2.63351497439,-,-
2019_Oct_16,14,001,0,source,8,DIVAN,LF,target,left,yellow,pleasantness,conservative,no,1,1,1.7169079423,-,-
2019_Oct_16,14,001,0,source,9,MAPPED,LF,target,right,aqua,imageability,conservative,no,9,1,1.03362730247,-,-
2019_Oct_16,14,001,0,source,10,DECIDED,HF,target,right,aqua,imageability,conservative,no,8,1,1.43338658897,-,-
2019_Oct_16,14,001,0,source,11,TOADS,LF,target,left,yellow,pleasantness,liberal,no,2,1,0.916962273309,-,-
2019_Oct_16,14,001,0,source,12,VELVETY,LF,target,right,aqua,imageability,conservative,no,9,1,1.15023807394,-,-
2019_Oct_16,14,001,0,source,13,OFTEN,HF,target,left,yellow,pleasantness,liberal,yes,9,0,2.26683564759,-,-
2019_Oct_16,14,001,0,source,14,COOING,LF,target,left,yellow,pleasantness,conservative,no,2,1,1.80018066344,-,-
2019_Oct_16,14,001,0,source,15,AROUND,HF,target,left,yellow,pleasantness,conservative,yes,2,1,1.8835215733,-,-
2019_Oct_16,14,001,0,source,16,NECESSARY,HF,target,left,yellow,pleasantness,liberal,no,7,0,2.90017795055,-,-
2019_Oct_16,14,001,0,source,17,TELEPHONE,HF,target,left,yellow,pleasantness,liberal,no,1,1,1.76698778909,-,-
2019_Oct_16,14,001,0,source,18,ALONE,HF,target,right,aqua,imageability,conservative,no,2,0,1.06668893187,-,-
2019_Oct_16,14,001,0,source,19,SEWED,LF,target,left,yellow,pleasantness,liberal,no,3,1,1.71690537606,-,-
2019_Oct_16,14,001,0,source,20,MILES,HF,target,right,aqua,imageability,conservative,no,9,1,1.5999903216,-,-
2019_Oct_16,14,001,0,source,21,HELICAL,LF,target,right,aqua,imageability,liberal,no,9,1,0.783617404107,-,-
2019_Oct_16,14,001,0,source,22,ATROCITY,LF,target,left,yellow,pleasantness,liberal,no,2,1,1.45026036359,-,-
2019_Oct_16,14,001,0,source,23,PUBLIC,HF,target,right,aqua,imageability,liberal,yes,1,0,2.00023352803,-,-
2019_Oct_16,14,001,0,source,24,BOTANIST,LF,target,right,aqua,imageability,liberal,no,9,1,1.11693521779,-,-
2019_Oct_16,14,001,0,source,25,INVOLVED,HF,target,left,yellow,pleasantness,conservative,no,8,0,1.18334626231,-,-
2019_Oct_16,14,001,0,source,26,BOILERS,LF,target,right,aqua,imageability,liberal,no,9,1,1.35018132333,-,-
2019_Oct_16,14,001,0,source,27,ENSCONCED,LF,target,left,yellow,pleasantness,liberal,no,9,0,1.05027048191,-,-
2019_Oct_16,14,001,0,source,28,TURNED,HF,target,right,aqua,imageability,conservative,no,2,0,1.10027517447,-,-
2019_Oct_16,14,001,0,source,29,FEELING,HF,target,right,aqua,imageability,conservative,no,9,1,1.11693851724,-,-
2019_Oct_16,14,001,0,source,30,HUNDRED,HF,target,right,aqua,imageability,liberal,no,8,1,0.983628842214,-,-
2019_Oct_16,14,001,0,source,31,RUFFLES,LF,target,right,aqua,imageability,conservative,no,9,1,1.050275981,-,-
2019_Oct_16,14,001,0,source,32,ADOPTIVE,LF,target,left,yellow,pleasantness,conservative,no,2,1,1.03360860556,-,-
2019_Oct_16,14,001,0,source,33,TORMENTS,LF,target,right,aqua,imageability,conservative,no,9,1,1.1335402702,-,-
2019_Oct_16,14,001,0,source,34,BAFFLING,LF,target,right,aqua,imageability,liberal,no,3,0,2.2168958443,-,-
2019_Oct_16,14,001,0,source,35,OUTSIDE,HF,target,left,yellow,pleasantness,conservative,no,1,1,1.0835080822,-,-
2019_Oct_16,14,001,0,source,36,TODAY,HF,target,right,aqua,imageability,liberal,no,9,1,1.55033023869,-,-
2019_Oct_16,14,001,0,source,37,HOBBLE,LF,target,left,yellow,pleasantness,liberal,no,2,1,1.30025618428,-,-
2019_Oct_16,14,001,0,source,38,MAKES,HF,target,left,yellow,pleasantness,conservative,no,8,0,1.88355310141,-,-
2019_Oct_16,14,001,0,source,39,COMES,HF,target,left,yellow,pleasantness,liberal,no,2,1,1.28329295779,-,-
2019_Oct_16,14,001,0,source,40,BEHIND,HF,target,right,aqua,imageability,liberal,no,1,0,1.9669141746,-,-
2019_Oct_16,14,001,0,source,41,LIGHT,HF,target,right,aqua,imageability,conservative,no,9,1,1.1336073591,-,-
2019_Oct_16,14,001,0,source,42,OLDER,HF,target,left,yellow,pleasantness,liberal,no,1,1,1.36667052825,-,-
2019_Oct_16,14,001,0,source,43,WOBBLE,LF,target,left,yellow,pleasantness,conservative,no,8,0,1.11691578767,-,-
2019_Oct_16,14,001,0,source,44,GOUGED,LF,target,left,yellow,pleasantness,conservative,no,9,0,2.03355544769,-,-
2019_Oct_16,14,001,0,source,45,BLEACH,LF,target,left,yellow,pleasantness,conservative,no,9,0,1.050275981,-,-
2019_Oct_16,14,001,0,source,46,SIGNPOST,LF,target,right,aqua,imageability,liberal,no,9,1,0.90022707576,-,-
2019_Oct_16,14,001,0,source,47,YOUNG,HF,target,right,aqua,imageability,liberal,yes,9,1,0.783667262524,-,-
2019_Oct_16,14,001,0,recog,0,MAKES,HF,target,left,yellow,pleasantness,conservative,no,z,1,2.88349847712,1,1
2019_Oct_16,14,001,0,recog,1,INVOLVED,HF,target,left,yellow,pleasantness,conservative,no,z,1,1.30027524779,1,2
2019_Oct_16,14,001,0,recog,2,TOADS,LF,target,left,yellow,pleasantness,liberal,no,z,1,0.850185355996,3,5
2019_Oct_16,14,001,0,recog,3,TELEPHONE,HF,target,left,yellow,pleasantness,liberal,yes,z,1,1.75026908881,3,8
2019_Oct_16,14,001,0,recog,4,BRING,HF,lure,-,-,-,liberal,no,None,-1,-1,-1,7
2019_Oct_16,14,001,0,recog,5,COACHED,LF,lure,-,-,-,conservative,no,m,1,7.58327858684,3,10
2019_Oct_16,14,001,0,recog,6,ATTACK,HF,lure,-,-,-,liberal,no,m,1,3.51683418117,1,11
2019_Oct_16,14,001,0,recog,7,WITHIN,HF,lure,-,-,-,liberal,no,m,1,1.13355163499,1,12
2019_Oct_16,14,001,0,recog,8,GUILDHALL,LF,lure,-,-,-,liberal,no,m,1,0.800294677907,1,13
2019_Oct_16,14,001,0,recog,9,HOARD,LF,lure,-,-,-,conservative,no,z,0,0.966637387067,-3,10
2019_Oct_16,14,001,0,recog,10,JOTTED,LF,lure,-,-,-,liberal,no,m,1,1.15028353308,1,11
2019_Oct_16,14,001,0,recog,11,DECIDED,HF,target,right,aqua,imageability,conservative,no,z,1,1.21692993866,1,12
2019_Oct_16,14,001,0,recog,12,ATROCITY,LF,target,left,yellow,pleasantness,liberal,no,z,1,1.31689753069,3,15
2019_Oct_16,14,001,0,recog,13,VILLAGE,HF,lure,-,-,-,liberal,no,m,1,0.900287565751,1,16
2019_Oct_16,14,001,0,recog,14,BEHIND,HF,target,right,aqua,imageability,liberal,no,z,1,0.750040326661,3,19
2019_Oct_16,14,001,0,recog,15,MAPPED,LF,target,right,aqua,imageability,conservative,no,z,1,0.850287272466,1,20
2019_Oct_16,14,001,0,recog,16,WICKEDLY,LF,lure,-,-,-,liberal,no,m,1,0.850195987571,1,21
2019_Oct_16,14,001,0,recog,17,ANIMAL,HF,lure,-,-,-,liberal,no,m,1,1.50004215969,1,22
2019_Oct_16,14,001,0,recog,18,GETTING,HF,lure,-,-,-,liberal,no,m,1,1.08335227464,1,23
2019_Oct_16,14,001,0,recog,19,WANTED,HF,target,left,yellow,pleasantness,conservative,no,z,1,0.800266449245,1,24
2019_Oct_16,14,001,0,recog,20,BELIEVE,HF,target,right,aqua,imageability,liberal,no,z,1,0.666892984774,3,27
2019_Oct_16,14,001,0,recog,21,ZEALOTS,LF,target,right,aqua,imageability,conservative,no,z,1,0.666974004701,1,28
2019_Oct_16,14,001,0,recog,22,LANGUAGE,HF,lure,-,-,-,conservative,no,m,1,0.783619237137,3,31
2019_Oct_16,14,001,0,recog,23,OLDER,HF,target,left,yellow,pleasantness,liberal,no,z,1,0.850259043804,3,34
2019_Oct_16,14,001,0,recog,24,CLEAR,HF,lure,-,-,-,liberal,no,m,1,0.800242253248,1,35
2019_Oct_16,14,001,0,recog,25,RAREFIED,LF,lure,-,-,-,conservative,no,m,1,1.18359812063,3,38
2019_Oct_16,14,001,0,recog,26,ALONE,HF,target,right,aqua,imageability,conservative,no,z,1,0.733562486527,1,39
2019_Oct_16,14,001,0,recog,27,BOILERS,LF,target,right,aqua,imageability,liberal,yes,z,1,1.46686065012,3,42
2019_Oct_16,14,001,0,recog,28,RUFFLES,LF,target,right,aqua,imageability,conservative,no,z,1,1.28355104842,1,43
2019_Oct_16,14,001,0,recog,29,SECOND,HF,lure,-,-,-,conservative,no,m,1,1.46691454121,3,46
2019_Oct_16,14,001,0,recog,30,OUSTED,LF,lure,-,-,-,liberal,no,m,1,0.93328980498,1,47
2019_Oct_16,14,001,0,recog,31,WOBBLE,LF,target,left,yellow,pleasantness,conservative,no,z,1,0.733627009184,1,48
2019_Oct_16,14,001,0,recog,32,YOUNG,HF,target,right,aqua,imageability,liberal,no,z,1,0.916891151744,3,51
2019_Oct_16,14,001,0,recog,33,BAIZE,LF,target,right,aqua,imageability,liberal,no,z,1,0.816957287468,3,54
2019_Oct_16,14,001,0,recog,34,NECESSARY,HF,target,left,yellow,pleasantness,liberal,no,z,1,0.816947755711,3,57
2019_Oct_16,14,001,0,recog,35,BUTCHERED,LF,target,left,yellow,pleasantness,liberal,no,z,1,0.80023565434,3,60
2019_Oct_16,14,001,0,recog,36,PAVILIONS,LF,lure,-,-,-,conservative,no,m,1,0.733574584526,3,63
2019_Oct_16,14,001,0,recog,37,DIVAN,LF,target,left,yellow,pleasantness,conservative,no,z,1,0.700235434377,1,64
2019_Oct_16,14,001,0,recog,38,RAPACIOUS,LF,lure,-,-,-,liberal,no,m,1,0.900277300783,1,65
2019_Oct_16,14,001,0,recog,39,HUNDRED,HF,target,right,aqua,imageability,liberal,no,z,1,1.01684591256,3,68
2019_Oct_16,14,001,0,recog,40,OCTAGONAL,LF,lure,-,-,-,liberal,no,m,1,0.733625176154,1,69
2019_Oct_16,14,001,0,recog,41,NEMESIS,LF,lure,-,-,-,liberal,no,m,1,1.18362158342,1,70
2019_Oct_16,14,001,0,recog,42,WRITE,HF,lure,-,-,-,conservative,no,m,1,1.03338754214,3,73
2019_Oct_16,14,001,0,recog,43,ENSCONCED,LF,target,left,yellow,pleasantness,liberal,no,z,1,0.966978697258,3,76
2019_Oct_16,14,001,0,recog,44,VOICE,HF,lure,-,-,-,liberal,no,m,1,0.900283533085,1,77
2019_Oct_16,14,001,0,recog,45,FIANCE,LF,lure,-,-,-,conservative,no,m,1,1.03361300483,3,80
2019_Oct_16,14,001,0,recog,46,ELECTING,LF,lure,-,-,-,conservative,no,m,1,0.683621950021,3,83
2019_Oct_16,14,001,0,recog,47,TORMENTS,LF,target,right,aqua,imageability,conservative,no,z,1,0.833614764544,1,84
2019_Oct_16,14,001,0,recog,48,CUDDLE,LF,lure,-,-,-,liberal,no,m,1,0.783623636409,1,85
2019_Oct_16,14,001,0,recog,49,ULCER,LF,lure,-,-,-,conservative,no,m,1,0.700033801074,3,88
2019_Oct_16,14,001,0,recog,50,LIGHT,HF,target,right,aqua,imageability,conservative,no,z,1,0.716922973145,1,89
2019_Oct_16,14,001,0,recog,51,EDUCATION,HF,lure,-,-,-,conservative,no,m,1,2.05021952368,3,92
2019_Oct_16,14,001,0,recog,52,PUFFS,LF,lure,-,-,-,conservative,no,m,1,0.850301936706,3,95
2019_Oct_16,14,001,0,recog,53,TODAY,HF,target,right,aqua,imageability,liberal,no,z,1,0.883637054189,3,98
2019_Oct_16,14,001,0,recog,54,NOXIOUS,LF,lure,-,-,-,liberal,no,m,1,1.78357817726,1,99
2019_Oct_16,14,001,0,recog,55,HELICAL,LF,target,right,aqua,imageability,liberal,no,z,1,0.800335371174,3,102
2019_Oct_16,14,001,0,recog,56,FEELING,HF,target,right,aqua,imageability,conservative,no,z,1,0.86692568603,1,103
2019_Oct_16,14,001,0,recog,57,KNOWLEDGE,HF,lure,-,-,-,conservative,no,z,0,0.950231768317,-3,100
2019_Oct_16,14,001,0,recog,58,INITIATES,LF,lure,-,-,-,liberal,no,m,1,1.01694746243,1,101
2019_Oct_16,14,001,0,recog,59,HOTEL,HF,lure,-,-,-,conservative,no,m,1,0.900283166479,3,104
2019_Oct_16,14,001,0,recog,60,ADOPTIVE,LF,target,left,yellow,pleasantness,conservative,no,z,1,0.900169152011,1,105
2019_Oct_16,14,001,0,recog,61,MACARONI,LF,lure,-,-,-,liberal,no,m,1,1.11663826692,1,106
2019_Oct_16,14,001,0,recog,62,OUTSIDE,HF,target,left,yellow,pleasantness,conservative,no,z,1,0.716963299806,1,107
2019_Oct_16,14,001,0,recog,63,BUSINESS,HF,lure,-,-,-,liberal,no,m,1,0.933556694152,1,108
2019_Oct_16,14,001,0,recog,64,ENERGY,HF,lure,-,-,-,conservative,no,m,1,0.900329725441,3,111
2019_Oct_16,14,001,0,recog,65,AROUND,HF,target,left,yellow,pleasantness,conservative,no,z,1,0.650292331629,1,112
2019_Oct_16,14,001,0,recog,66,BOOKS,HF,target,left,yellow,pleasantness,liberal,no,z,1,0.783566445872,3,115
2019_Oct_16,14,001,0,recog,67,SIGNPOST,LF,target,right,aqua,imageability,liberal,no,z,1,0.78332888518,3,118
2019_Oct_16,14,001,0,recog,68,BAFFLING,LF,target,right,aqua,imageability,liberal,no,z,1,1.93353799725,3,121
2019_Oct_16,14,001,0,recog,69,VELVETY,LF,target,right,aqua,imageability,conservative,yes,m,0,1.05024665252,-1,120
2019_Oct_16,14,001,0,recog,70,MODERN,HF,lure,-,-,-,conservative,no,m,1,2.05025031858,3,123
2019_Oct_16,14,001,0,recog,71,SWIFTNESS,LF,target,right,aqua,imageability,conservative,no,z,1,1.88360149341,1,124
2019_Oct_16,14,001,0,recog,72,BOTANIST,LF,target,right,aqua,imageability,liberal,no,z,1,1.80023565434,3,127
2019_Oct_16,14,001,0,recog,73,BLEACH,LF,target,left,yellow,pleasantness,conservative,no,z,1,1.21685148497,1,128
2019_Oct_16,14,001,0,recog,74,ADDED,HF,lure,-,-,-,liberal,no,m,1,0.700190708444,1,129
2019_Oct_16,14,001,0,recog,75,TURNED,HF,target,right,aqua,imageability,conservative,no,m,0,1.86684869877,-1,128
2019_Oct_16,14,001,0,recog,76,LARGE,HF,lure,-,-,-,conservative,no,m,1,0.800261683367,3,131
2019_Oct_16,14,001,0,recog,77,SWEARS,LF,lure,-,-,-,conservative,no,m,1,0.683577957301,3,134
2019_Oct_16,14,001,0,recog,78,SUCCESS,HF,lure,-,-,-,liberal,no,m,1,1.11693815063,1,135
2019_Oct_16,14,001,0,recog,79,REPORT,HF,lure,-,-,-,conservative,no,m,1,0.750286685897,3,138
2019_Oct_16,14,001,0,recog,80,COOING,LF,target,left,yellow,pleasantness,conservative,no,z,1,0.716911974965,1,139
2019_Oct_16,14,001,0,recog,81,MILES,HF,target,right,aqua,imageability,conservative,no,z,1,0.666873921262,1,140
2019_Oct_16,14,001,0,recog,82,ALREADY,HF,lure,-,-,-,conservative,no,m,1,1.05027084852,3,143
2019_Oct_16,14,001,0,recog,83,EITHER,HF,lure,-,-,-,liberal,yes,m,1,1.33359790067,1,144
2019_Oct_16,14,001,0,recog,84,GOUGED,LF,target,left,yellow,pleasantness,conservative,no,z,1,0.983520326837,1,145
2019_Oct_16,14,001,0,recog,85,HOBBLE,LF,target,left,yellow,pleasantness,liberal,no,z,1,1.23366330318,3,148
2019_Oct_16,14,001,0,recog,86,OFTEN,HF,target,left,yellow,pleasantness,liberal,no,z,1,0.783616670895,3,151
2019_Oct_16,14,001,0,recog,87,BASIC,HF,lure,-,-,-,conservative,no,m,1,0.650289398781,3,154
2019_Oct_16,14,001,0,recog,88,COMES,HF,target,left,yellow,pleasantness,liberal,no,z,1,0.950297390792,3,157
2019_Oct_16,14,001,0,recog,89,MINISTER,HF,target,left,yellow,pleasantness,conservative,no,z,1,1.366923853,1,158
2019_Oct_16,14,001,0,recog,90,PUBLIC,HF,target,right,aqua,imageability,liberal,no,z,1,1.51691960037,3,161
2019_Oct_16,14,001,0,recog,91,ANCHORAGE,LF,lure,-,-,-,conservative,no,z,0,0.833621363452,-3,158
2019_Oct_16,14,001,0,recog,92,PEGGED,LF,lure,-,-,-,conservative,no,m,1,0.733568352223,3,161
2019_Oct_16,14,001,0,recog,93,SICKENED,LF,lure,-,-,-,liberal,no,m,1,0.716701543118,1,162
2019_Oct_16,14,001,0,recog,94,SEWED,LF,target,left,yellow,pleasantness,liberal,no,z,1,0.700262929827,3,165
2019_Oct_16,14,001,0,recog,95,CHLORIDE,LF,lure,-,-,-,conservative,no,m,1,0.716892544847,3,168
2019_Oct_16,14,001,1,source,0,FOCUSES,LF,target,left,yellow,pleasantness,conservative,no,9,0,3.88342918858,-,-
2019_Oct_16,14,001,1,source,1,BATCHES,LF,target,right,aqua,imageability,conservative,no,7,1,2.75025075851,-,-
2019_Oct_16,14,001,1,source,2,SPOKE,HF,target,right,aqua,imageability,conservative,no,9,1,2.43349950362,-,-
2019_Oct_16,14,001,1,source,3,ABOVE,HF,target,right,aqua,imageability,conservative,no,2,0,1.20024203328,-,-
2019_Oct_16,14,001,1,source,4,HOWEVER,HF,target,left,yellow,pleasantness,conservative,no,1,1,1.45000043993,-,-
2019_Oct_16,14,001,1,source,5,INCLUDING,HF,target,left,yellow,pleasantness,liberal,no,2,1,0.866950615238,-,-
2019_Oct_16,14,001,1,source,6,NUANCE,LF,target,left,yellow,pleasantness,liberal,no,2,1,1.16688638587,-,-
2019_Oct_16,14,001,1,source,7,FLICKS,LF,target,left,yellow,pleasantness,conservative,no,1,1,1.16668328614,-,-
2019_Oct_16,14,001,1,source,8,HIVES,LF,target,left,yellow,pleasantness,liberal,yes,2,1,0.900313228171,-,-
2019_Oct_16,14,001,1,source,9,TICKLE,LF,target,right,aqua,imageability,liberal,no,1,0,2.31682677573,-,-
2019_Oct_16,14,001,1,source,10,HILLSIDES,LF,target,right,aqua,imageability,conservative,no,9,1,1.18335359443,-,-
2019_Oct_16,14,001,1,source,11,HICKORY,LF,target,right,aqua,imageability,liberal,no,9,1,0.883617257464,-,-
2019_Oct_16,14,001,1,source,12,COVER,HF,target,left,yellow,pleasantness,liberal,no,9,0,0.800007258799,-,-
2019_Oct_16,14,001,1,source,13,FOUND,HF,target,right,aqua,imageability,conservative,no,3,0,1.3169286922,-,-
2019_Oct_16,14,001,1,source,14,PASSED,HF,target,right,aqua,imageability,conservative,no,7,1,0.766913734674,-,-
2019_Oct_16,14,001,1,source,15,MUSIC,HF,target,left,yellow,pleasantness,conservative,no,1,1,2.79992843851,-,-
2019_Oct_16,14,001,1,source,16,FUTURE,HF,target,right,aqua,imageability,liberal,no,9,1,1.44999677387,-,-
2019_Oct_16,14,001,1,source,17,UNDER,HF,target,left,yellow,pleasantness,liberal,no,1,1,1.26692656588,-,-
2019_Oct_16,14,001,1,source,18,GLASS,HF,target,right,aqua,imageability,liberal,no,9,1,0.933546062578,-,-
2019_Oct_16,14,001,1,source,19,ARCADES,LF,target,right,aqua,imageability,liberal,no,9,1,0.816983316494,-,-
2019_Oct_16,14,001,1,source,20,TRADE,HF,target,left,yellow,pleasantness,conservative,no,2,1,1.050275981,-,-
2019_Oct_16,14,001,1,source,21,UPROOTED,LF,target,right,aqua,imageability,conservative,no,2,0,1.05027708082,-,-
2019_Oct_16,14,001,1,source,22,COGENT,LF,target,left,yellow,pleasantness,conservative,no,2,1,1.36692275318,-,-
2019_Oct_16,14,001,1,source,23,APTLY,LF,target,right,aqua,imageability,liberal,no,3,0,2.16661839688,-,-
2019_Oct_16,14,001,1,source,24,PESTERED,LF,target,left,yellow,pleasantness,conservative,no,2,1,1.33354107674,-,-
2019_Oct_16,14,001,1,source,25,AILMENT,LF,target,left,yellow,pleasantness,conservative,yes,3,1,1.00027788735,-,-
2019_Oct_16,14,001,1,source,26,CELLO,LF,target,right,aqua,imageability,liberal,no,9,1,0.933584189603,-,-
2019_Oct_16,14,001,1,source,27,HYDRAULIC,LF,target,right,aqua,imageability,liberal,no,9,1,1.15028096684,-,-
2019_Oct_16,14,001,1,source,28,MEETING,HF,target,left,yellow,pleasantness,liberal,yes,9,0,0.616920920152,-,-
2019_Oct_16,14,001,1,source,29,MOUTH,HF,target,left,yellow,pleasantness,liberal,no,2,1,1.83353741068,-,-
2019_Oct_16,14,001,1,source,30,QUALITY,HF,target,left,yellow,pleasantness,conservative,no,1,1,2.11679334126,-,-
2019_Oct_16,14,001,1,source,31,CANNOT,HF,target,left,yellow,pleasantness,liberal,no,3,1,1.20001840362,-,-
2019_Oct_16,14,001,1,source,32,HISTORY,HF,target,left,yellow,pleasantness,conservative,no,9,0,1.68358492281,-,-
2019_Oct_16,14,001,1,source,33,HUMAN,HF,target,left,yellow,pleasantness,conservative,no,9,0,0.833365839066,-,-
2019_Oct_16,14,001,1,source,34,ACTION,HF,target,right,aqua,imageability,liberal,yes,9,1,0.650038640273,-,-
2019_Oct_16,14,001,1,source,35,UMBILICAL,LF,target,left,yellow,pleasantness,conservative,no,1,1,2.24997507079,-,-
2019_Oct_16,14,001,1,source,36,INSIDE,HF,target,right,aqua,imageability,conservative,no,1,0,1.23359621428,-,-
2019_Oct_16,14,001,1,source,37,BESOTTED,LF,target,right,aqua,imageability,conservative,no,1,0,2.61684649913,-,-
2019_Oct_16,14,001,1,source,38,APART,HF,target,right,aqua,imageability,conservative,no,2,0,0.833615864361,-,-
2019_Oct_16,14,001,1,source,39,SLOWLY,HF,target,right,aqua,imageability,liberal,no,9,1,1.16688455284,-,-
2019_Oct_16,14,001,1,source,40,FIGURE,HF,target,right,aqua,imageability,liberal,no,9,1,1.2669335314,-,-
2019_Oct_16,14,001,1,source,41,LICENSING,LF,target,left,yellow,pleasantness,liberal,no,2,1,1.65019554764,-,-
2019_Oct_16,14,001,1,source,42,MAYBE,HF,target,right,aqua,imageability,liberal,no,9,1,1.78357561102,-,-
2019_Oct_16,14,001,1,source,43,UNOPENED,LF,target,left,yellow,pleasantness,liberal,no,2,1,2.38349554427,-,-
2019_Oct_16,14,001,1,source,44,MUNCH,LF,target,left,yellow,pleasantness,liberal,no,1,1,1.31695215498,-,-
2019_Oct_16,14,001,1,source,45,PELTED,LF,target,left,yellow,pleasantness,liberal,no,1,1,1.40032679259,-,-
2019_Oct_16,14,001,1,source,46,CEASELESS,LF,target,right,aqua,imageability,conservative,no,9,1,1.43363808069,-,-
2019_Oct_16,14,001,1,source,47,HOVELS,LF,target,right,aqua,imageability,conservative,no,9,1,1.08356197328,-,-
2019_Oct_16,14,001,1,recog,0,AILMENT,LF,target,left,yellow,pleasantness,conservative,no,z,1,1.95023946704,1,169
2019_Oct_16,14,001,1,recog,1,ATONEMENT,LF,lure,-,-,-,liberal,no,m,1,0.966680646576,1,170
2019_Oct_16,14,001,1,recog,2,ACTION,HF,target,right,aqua,imageability,liberal,no,z,1,0.783618503925,3,173
2019_Oct_16,14,001,1,recog,3,FOUND,HF,target,right,aqua,imageability,conservative,yes,m,0,1.10020075345,-1,172
2019_Oct_16,14,001,1,recog,4,ANYONE,HF,lure,-,-,-,liberal,no,m,1,1.01695699418,1,173
2019_Oct_16,14,001,1,recog,5,MONEY,HF,lure,-,-,-,liberal,no,m,1,0.800302743239,1,174
2019_Oct_16,14,001,1,recog,6,PELTED,LF,target,left,yellow,pleasantness,liberal,no,z,1,0.783566079266,3,177
2019_Oct_16,14,001,1,recog,7,INSIDE,HF,target,right,aqua,imageability,conservative,no,z,1,1.3502590438,1,178
2019_Oct_16,14,001,1,recog,8,EARLIER,HF,lure,-,-,-,conservative,no,m,1,0.816698097021,3,181
2019_Oct_16,14,001,1,recog,9,URBANE,LF,lure,-,-,-,conservative,no,m,1,0.766966159333,3,184
2019_Oct_16,14,001,1,recog,10,LICENSING,LF,target,left,yellow,pleasantness,liberal,no,z,1,0.750222529845,3,187
2019_Oct_16,14,001,1,recog,11,PICTURE,HF,lure,-,-,-,conservative,no,m,1,0.733660736937,3,190
2019_Oct_16,14,001,1,recog,12,BATCHES,LF,target,right,aqua,imageability,conservative,no,z,1,0.916946142645,1,191
2019_Oct_16,14,001,1,recog,13,MOUTH,HF,target,left,yellow,pleasantness,liberal,no,z,1,0.583342376281,3,194
2019_Oct_16,14,001,1,recog,14,PROBABLY,HF,lure,-,-,-,liberal,no,m,1,1.00023976033,1,195
2019_Oct_16,14,001,1,recog,15,UNOPENED,LF,target,left,yellow,pleasantness,liberal,no,z,1,0.633625322796,3,198
2019_Oct_16,14,001,1,recog,16,TERMS,HF,lure,-,-,-,conservative,no,m,1,0.716907575693,3,201
2019_Oct_16,14,001,1,recog,17,BAWLED,LF,lure,-,-,-,liberal,no,m,1,0.900299663749,1,202
2019_Oct_16,14,001,1,recog,18,HOWEVER,HF,target,left,yellow,pleasantness,conservative,no,z,1,0.666962273309,1,203
2019_Oct_16,14,001,1,recog,19,ARCADES,LF,target,right,aqua,imageability,liberal,no,z,1,0.633627889039,3,206
2019_Oct_16,14,001,1,recog,20,INEDIBLE,LF,lure,-,-,-,liberal,no,m,1,1.0004336949,1,207
2019_Oct_16,14,001,1,recog,21,QUALITY,HF,target,left,yellow,pleasantness,conservative,no,m,0,1.8335330114,-1,206
2019_Oct_16,14,001,1,recog,22,GAUCHE,LF,lure,-,-,-,liberal,no,m,1,0.833617330786,1,207
2019_Oct_16,14,001,1,recog,23,CRYPT,LF,lure,-,-,-,conservative,no,m,1,0.550300543603,3,210
2019_Oct_16,14,001,1,recog,24,GIMMICKS,LF,lure,-,-,-,conservative,no,m,1,0.683607652387,3,213
2019_Oct_16,14,001,1,recog,25,SPOKE,HF,target,right,aqua,imageability,conservative,no,z,1,0.583665722779,1,214
2019_Oct_16,14,001,1,recog,26,OPENED,HF,lure,-,-,-,liberal,no,m,1,1.33359936709,1,215
2019_Oct_16,14,001,1,recog,27,FRONT,HF,lure,-,-,-,conservative,no,m,1,1.38359746074,3,218
2019_Oct_16,14,001,1,recog,28,PASSED,HF,target,right,aqua,imageability,conservative,no,z,1,1.2833666456,1,219
2019_Oct_16,14,001,1,recog,29,POSITION,HF,lure,-,-,-,conservative,no,m,1,0.750307949045,3,222
2019_Oct_16,14,001,1,recog,30,HICKORY,LF,target,right,aqua,imageability,liberal,no,z,1,0.93356146003,3,225
2019_Oct_16,14,001,1,recog,31,INNATELY,LF,lure,-,-,-,conservative,no,m,1,0.866948048996,3,228
2019_Oct_16,14,001,1,recog,32,TICKLE,LF,target,right,aqua,imageability,liberal,no,z,1,0.933563293061,3,231
2019_Oct_16,14,001,1,recog,33,HYDRAULIC,LF,target,right,aqua,imageability,liberal,no,z,1,0.64999024828,3,234
2019_Oct_16,14,001,1,recog,34,CANNOT,HF,target,left,yellow,pleasantness,liberal,no,z,1,0.633537703961,3,237
2019_Oct_16,14,001,1,recog,35,ACCORDING,HF,lure,-,-,-,liberal,no,m,1,0.700057263858,1,238
2019_Oct_16,14,001,1,recog,36,TRADE,HF,target,left,yellow,pleasantness,conservative,no,m,0,0.800284412939,-1,237
2019_Oct_16,14,001,1,recog,37,COBALT,LF,lure,-,-,-,liberal,no,m,1,0.883569232078,1,238
2019_Oct_16,14,001,1,recog,38,FIGURE,HF,target,right,aqua,imageability,liberal,no,z,1,0.633622023343,3,241
2019_Oct_16,14,001,1,recog,39,PREPARED,HF,lure,-,-,-,conservative,no,z,0,1.85023374799,-3,238
2019_Oct_16,14,001,1,recog,40,BESOTTED,LF,target,right,aqua,imageability,conservative,no,z,1,1.03355214824,1,239
2019_Oct_16,14,001,1,recog,41,COGENT,LF,target,left,yellow,pleasantness,conservative,no,z,1,0.800029255159,1,240
2019_Oct_16,14,001,1,recog,42,UNDER,HF,target,left,yellow,pleasantness,liberal,no,z,1,0.733559920285,3,243
2019_Oct_16,14,001,1,recog,43,MUNCH,LF,target,left,yellow,pleasantness,liberal,no,z,1,0.61669069158,3,246
2019_Oct_16,14,001,1,recog,44,ANSWER,HF,lure,-,-,-,conservative,no,m,1,0.700190708444,3,249
2019_Oct_16,14,001,1,recog,45,CEASELESS,LF,target,right,aqua,imageability,conservative,no,z,1,1.03335564742,1,250
2019_Oct_16,14,001,1,recog,46,TIDILY,LF,lure,-,-,-,liberal,no,m,1,0.866999007231,1,251
2019_Oct_16,14,001,1,recog,47,CENTRAL,HF,lure,-,-,-,conservative,no,m,1,0.816856470816,3,254
2019_Oct_16,14,001,1,recog,48,MATERIAL,HF,lure,-,-,-,liberal,no,m,1,1.03355471448,1,255
2019_Oct_16,14,001,1,recog,49,FLUFF,LF,lure,-,-,-,conservative,yes,m,1,0.800407959163,3,258
2019_Oct_16,14,001,1,recog,50,MUSIC,HF,target,left,yellow,pleasantness,conservative,yes,m,0,1.15026886884,-1,257
2019_Oct_16,14,001,1,recog,51,DIDACTIC,LF,lure,-,-,-,liberal,no,m,1,1.18359738742,1,258
2019_Oct_16,14,001,1,recog,52,SENSE,HF,lure,-,-,-,liberal,no,m,1,1.21667844694,1,259
2019_Oct_16,14,001,1,recog,53,DEJECTED,LF,lure,-,-,-,liberal,no,m,1,0.716917840661,1,260
2019_Oct_16,14,001,1,recog,54,AUSPICES,LF,lure,-,-,-,conservative,no,m,1,0.716953401444,3,263
2019_Oct_16,14,001,1,recog,55,BECAME,HF,lure,-,-,-,liberal,no,m,1,0.750288885532,1,264
2019_Oct_16,14,001,1,recog,56,ABOVE,HF,target,right,aqua,imageability,conservative,no,z,1,0.633607359102,1,265
2019_Oct_16,14,001,1,recog,57,HUMAN,HF,target,left,yellow,pleasantness,conservative,no,z,1,0.583601566727,1,266
2019_Oct_16,14,001,1,recog,58,RAMBLE,LF,lure,-,-,-,liberal,no,m,1,0.783579643688,1,267
2019_Oct_16,14,001,1,recog,59,GROUND,HF,lure,-,-,-,conservative,no,m,1,1.26687744068,3,270
2019_Oct_16,14,001,1,recog,60,GODMOTHER,LF,lure,-,-,-,conservative,no,m,1,0.766928032308,3,273
2019_Oct_16,14,001,1,recog,61,INCLUDING,HF,target,left,yellow,pleasantness,liberal,no,z,1,1.20024386632,3,276
2019_Oct_16,14,001,1,recog,62,VOUCH,LF,lure,-,-,-,liberal,no,m,1,0.750285952684,1,277
2019_Oct_16,14,001,1,recog,63,MAYBE,HF,target,right,aqua,imageability,liberal,no,z,1,0.750254424568,3,280
2019_Oct_16,14,001,1,recog,64,MEETING,HF,target,left,yellow,pleasantness,liberal,yes,z,1,1.03355911375,3,283
2019_Oct_16,14,001,1,recog,65,FOCUSES,LF,target,left,yellow,pleasantness,conservative,no,z,1,2.23355112174,1,284
2019_Oct_16,14,001,1,recog,66,COUNCIL,HF,lure,-,-,-,conservative,no,m,1,0.800211458344,3,287
2019_Oct_16,14,001,1,recog,67,INTEREST,HF,lure,-,-,-,conservative,no,m,1,0.783619237137,3,290
2019_Oct_16,14,001,1,recog,68,FUTURE,HF,target,right,aqua,imageability,liberal,no,z,1,0.733549288711,3,293
2019_Oct_16,14,001,1,recog,69,HECTOR,LF,lure,-,-,-,conservative,no,m,1,0.766954427941,3,296
2019_Oct_16,14,001,1,recog,70,LIKELY,HF,lure,-,-,-,liberal,no,m,1,0.783371044871,1,297
2019_Oct_16,14,001,1,recog,71,FLICKS,LF,target,left,yellow,pleasantness,conservative,no,z,1,1.51688917207,1,298
2019_Oct_16,14,001,1,recog,72,HOVELS,LF,target,right,aqua,imageability,conservative,no,z,1,1.20026879552,1,299
2019_Oct_16,14,001,1,recog,73,COVER,HF,target,left,yellow,pleasantness,liberal,no,z,1,0.666960806885,3,302
2019_Oct_16,14,001,1,recog,74,AFFABLE,LF,lure,-,-,-,liberal,no,m,1,0.683628182323,1,303
2019_Oct_16,14,001,1,recog,75,BAOBAB,LF,lure,-,-,-,conservative,no,m,1,0.683628915535,3,306
2019_Oct_16,14,001,1,recog,76,HILLSIDES,LF,target,right,aqua,imageability,conservative,no,z,1,0.716952301626,1,307
2019_Oct_16,14,001,1,recog,77,EXUDED,LF,lure,-,-,-,conservative,no,m,1,0.666957140825,3,310
2019_Oct_16,14,001,1,recog,78,HIVES,LF,target,left,yellow,pleasantness,liberal,no,z,1,1.050275981,3,313
2019_Oct_16,14,001,1,recog,79,UMBILICAL,LF,target,left,yellow,pleasantness,conservative,no,z,1,0.700288958854,1,314
2019_Oct_16,14,001,1,recog,80,EXPECT,HF,lure,-,-,-,liberal,no,m,1,0.666952741553,1,315
2019_Oct_16,14,001,1,recog,81,HISTORY,HF,target,left,yellow,pleasantness,conservative,no,z,1,0.750240860146,1,316
2019_Oct_16,14,001,1,recog,82,JUROR,LF,lure,-,-,-,liberal,no,m,1,0.683572458211,1,317
2019_Oct_16,14,001,1,recog,83,ENTIRELY,HF,lure,-,-,-,liberal,no,m,1,0.900286832539,1,318
2019_Oct_16,14,001,1,recog,84,NUANCE,LF,target,left,yellow,pleasantness,liberal,no,m,0,0.583630895208,-3,315
2019_Oct_16,14,001,1,recog,85,APTLY,LF,target,right,aqua,imageability,liberal,no,z,1,0.883567032442,3,318
2019_Oct_16,14,001,1,recog,86,SLOWLY,HF,target,right,aqua,imageability,liberal,no,z,1,0.616975177841,3,321
2019_Oct_16,14,001,1,recog,87,ARTIFACTS,LF,lure,-,-,-,conservative,no,z,0,1.00027972038,-3,318
2019_Oct_16,14,001,1,recog,88,CORNER,HF,lure,-,-,-,conservative,no,z,0,1.41693771071,-3,315
2019_Oct_16,14,001,1,recog,89,GLASS,HF,target,right,aqua,imageability,liberal,no,z,1,0.933579790331,3,318
2019_Oct_16,14,001,1,recog,90,UPROOTED,LF,target,right,aqua,imageability,conservative,no,z,1,1.95019327469,1,319
2019_Oct_16,14,001,1,recog,91,PESTERED,LF,target,left,yellow,pleasantness,conservative,no,z,1,1.13360552607,1,320
2019_Oct_16,14,001,1,recog,92,APART,HF,target,right,aqua,imageability,conservative,no,z,1,0.666956407613,1,321
2019_Oct_16,14,001,1,recog,93,CELLO,LF,target,right,aqua,imageability,liberal,no,z,1,0.733635807728,3,324
2019_Oct_16,14,001,1,recog,94,SACRAMENT,LF,lure,-,-,-,conservative,no,m,1,0.800255817671,3,327
2019_Oct_16,14,001,1,recog,95,VARIOUS,HF,lure,-,-,-,liberal,no,m,1,1.13357913044,1,328
2019_Oct_16,14,001,2,source,0,SHEARING,LF,target,right,aqua,imageability,conservative,no,1,0,2.15018015019,-,-
2019_Oct_16,14,001,2,source,1,CLOSE,HF,target,left,yellow,pleasantness,liberal,no,3,1,1.94997257787,-,-
2019_Oct_16,14,001,2,source,2,FAMILY,HF,target,right,aqua,imageability,liberal,no,3,0,2.90018454946,-,-
2019_Oct_16,14,001,2,source,3,FALCON,LF,target,left,yellow,pleasantness,liberal,no,3,1,1.0336350012,-,-
2019_Oct_16,14,001,2,source,4,POWER,HF,target,left,yellow,pleasantness,conservative,no,3,1,0.866710121698,-,-
2019_Oct_16,14,001,2,source,5,BUZZARD,LF,target,right,aqua,imageability,liberal,no,7,1,1.11690808894,-,-
2019_Oct_16,14,001,2,source,6,TOXICITY,LF,target,right,aqua,imageability,conservative,yes,7,1,0.550252518217,-,-
2019_Oct_16,14,001,2,source,7,STRAIGHT,HF,target,right,aqua,imageability,liberal,no,7,1,1.33354217655,-,-
2019_Oct_16,14,001,2,source,8,EASILY,HF,target,left,yellow,pleasantness,conservative,no,3,1,1.40025933709,-,-
2019_Oct_16,14,001,2,source,9,SCOFFED,LF,target,left,yellow,pleasantness,liberal,no,7,0,0.983518127201,-,-
2019_Oct_16,14,001,2,source,10,GABLE,LF,target,left,yellow,pleasantness,liberal,no,7,0,2.23330989499,-,-
2019_Oct_16,14,001,2,source,11,BEAUTIFUL,HF,target,right,aqua,imageability,liberal,no,7,1,0.816948488923,-,-
2019_Oct_16,14,001,2,source,12,SORRY,HF,target,right,aqua,imageability,conservative,no,8,1,1.86680287302,-,-
2019_Oct_16,14,001,2,source,13,RETURN,HF,target,left,yellow,pleasantness,liberal,no,1,1,1.71661282446,-,-
2019_Oct_16,14,001,2,source,14,LONGER,HF,target,left,yellow,pleasantness,liberal,no,1,1,1.35021835054,-,-
2019_Oct_16,14,001,2,source,15,PIPELINES,LF,target,left,yellow,pleasantness,liberal,no,9,0,1.216913808,-,-
2019_Oct_16,14,001,2,source,16,WASHBASIN,LF,target,right,aqua,imageability,liberal,no,9,1,0.833633828056,-,-
2019_Oct_16,14,001,2,source,17,CRACKLE,LF,target,left,yellow,pleasantness,conservative,no,1,1,1.11686996192,-,-
2019_Oct_16,14,001,2,source,18,ALLOWED,HF,target,right,aqua,imageability,liberal,yes,2,0,1.28374681603,-,-
2019_Oct_16,14,001,2,source,19,BROUGHT,HF,target,right,aqua,imageability,conservative,no,3,0,1.48359951373,-,-
2019_Oct_16,14,001,2,source,20,AVAILABLE,HF,target,right,aqua,imageability,conservative,no,3,0,1.56691366135,-,-
2019_Oct_16,14,001,2,source,21,ALKALINE,LF,target,right,aqua,imageability,conservative,no,9,1,1.35025317811,-,-
2019_Oct_16,14,001,2,source,22,RUDIMENTS,LF,target,left,yellow,pleasantness,conservative,no,9,0,0.850300470282,-,-
2019_Oct_16,14,001,2,source,23,TWENTY,HF,target,right,aqua,imageability,conservative,no,9,1,0.716915641025,-,-
2019_Oct_16,14,001,2,source,24,NUMBER,HF,target,left,yellow,pleasantness,liberal,no,3,1,1.08356124007,-,-
2019_Oct_16,14,001,2,source,25,WATCH,HF,target,left,yellow,pleasantness,liberal,no,1,1,1.16668291953,-,-
2019_Oct_16,14,001,2,source,26,AGONIZED,LF,target,right,aqua,imageability,conservative,no,8,1,1.38353477111,-,-
2019_Oct_16,14,001,2,source,27,DUGOUTS,LF,target,right,aqua,imageability,liberal,no,9,1,0.98361271155,-,-
2019_Oct_16,14,001,2,source,28,QUOTAS,LF,target,left,yellow,pleasantness,conservative,no,1,1,1.95018227651,-,-
2019_Oct_16,14,001,2,source,29,JAMMING,LF,target,left,yellow,pleasantness,conservative,no,1,1,1.96662565567,-,-
2019_Oct_16,14,001,2,source,30,NATIONAL,HF,target,right,aqua,imageability,liberal,no,9,1,1.20026586268,-,-
2019_Oct_16,14,001,2,source,31,ASKED,HF,target,left,yellow,pleasantness,conservative,no,9,0,2.03351548764,-,-
2019_Oct_16,14,001,2,source,32,HUSBAND,HF,target,left,yellow,pleasantness,conservative,no,1,1,0.983620776882,-,-
2019_Oct_16,14,001,2,source,33,WAITING,HF,target,right,aqua,imageability,conservative,no,1,0,1.03361263823,-,-
2019_Oct_16,14,001,2,source,34,NAPPY,LF,target,right,aqua,imageability,liberal,no,9,1,0.900052204695,-,-
2019_Oct_16,14,001,2,source,35,SAVOURED,LF,target,left,yellow,pleasantness,liberal,no,1,1,0.883625322796,-,-
2019_Oct_16,14,001,2,source,36,TILTS,LF,target,right,aqua,imageability,conservative,no,9,1,0.783366645599,-,-
2019_Oct_16,14,001,2,source,37,RINSING,LF,target,left,yellow,pleasantness,conservative,yes,9,0,0.500339110555,-,-
2019_Oct_16,14,001,2,source,38,BOXCAR,LF,target,right,aqua,imageability,liberal,no,9,1,0.716960366958,-,-
2019_Oct_16,14,001,2,source,39,ALTHOUGH,HF,target,left,yellow,pleasantness,conservative,no,1,1,1.78357194496,-,-
2019_Oct_16,14,001,2,source,40,BIJOU,LF,target,right,aqua,imageability,conservative,no,9,1,0.733620410276,-,-
2019_Oct_16,14,001,2,source,41,WHETHER,HF,target,left,yellow,pleasantness,conservative,no,1,1,0.866674560916,-,-
2019_Oct_16,14,001,2,source,42,SUPPORT,HF,target,left,yellow,pleasantness,liberal,no,8,0,1.18360618596,-,-
2019_Oct_16,14,001,2,source,43,OUGHT,HF,target,right,aqua,imageability,liberal,no,9,1,0.966929572054,-,-
2019_Oct_16,14,001,2,source,44,EXACTLY,HF,target,right,aqua,imageability,conservative,no,9,1,1.10029790404,-,-
2019_Oct_16,14,001,2,source,45,TONAL,LF,target,left,yellow,pleasantness,conservative,yes,9,0,0.533586242596,-,-
2019_Oct_16,14,001,2,source,46,HYACINTHS,LF,target,right,aqua,imageability,liberal,no,7,1,1.35024584599,-,-
2019_Oct_16,14,001,2,source,47,GRIEVE,LF,target,left,yellow,pleasantness,liberal,no,1,1,1.78357744405,-,-
2019_Oct_16,14,001,2,recog,0,GARDEN,HF,lure,-,-,-,conservative,no,m,1,2.28344913195,3,331
2019_Oct_16,14,001,2,recog,1,BETTER,HF,lure,-,-,-,conservative,no,m,1,0.900317627444,3,334
2019_Oct_16,14,001,2,recog,2,DUGOUTS,LF,target,right,aqua,imageability,liberal,no,z,1,0.650291598417,3,337
2019_Oct_16,14,001,2,recog,3,RINSING,LF,target,left,yellow,pleasantness,conservative,no,z,1,0.933586389239,1,338
2019_Oct_16,14,001,2,recog,4,EPIDEMICS,LF,lure,-,-,-,conservative,no,m,1,1.13360332644,3,341
2019_Oct_16,14,001,2,recog,5,WHETHER,HF,target,left,yellow,pleasantness,conservative,no,z,1,1.06695362141,1,342
2019_Oct_16,14,001,2,recog,6,GIVEN,HF,lure,-,-,-,liberal,no,m,1,0.71695743411,1,343
2019_Oct_16,14,001,2,recog,7,HOURS,HF,lure,-,-,-,liberal,no,m,1,0.600298637252,1,344
2019_Oct_16,14,001,2,recog,8,MOTHER,HF,lure,-,-,-,conservative,no,m,1,0.700294457944,3,347
2019_Oct_16,14,001,2,recog,9,NAIVELY,LF,lure,-,-,-,liberal,no,m,1,0.650298197325,1,348
2019_Oct_16,14,001,2,recog,10,YARDSTICK,LF,lure,-,-,-,conservative,no,m,1,0.616931551726,3,351
2019_Oct_16,14,001,2,recog,11,BEAUTIFUL,HF,target,right,aqua,imageability,liberal,no,z,1,0.566914027959,3,354
2019_Oct_16,14,001,2,recog,12,BROUGHT,HF,target,right,aqua,imageability,conservative,no,z,1,0.550296877543,1,355
2019_Oct_16,14,001,2,recog,13,NORTH,HF,lure,-,-,-,liberal,no,m,1,0.716969898714,1,356
2019_Oct_16,14,001,2,recog,14,PIPELINES,LF,target,left,yellow,pleasantness,liberal,no,z,1,0.633640720249,3,359
2019_Oct_16,14,001,2,recog,15,JINGLE,LF,lure,-,-,-,liberal,no,m,1,0.683633681414,1,360
2019_Oct_16,14,001,2,recog,16,HYACINTHS,LF,target,right,aqua,imageability,liberal,no,z,1,0.666961173491,3,363
2019_Oct_16,14,001,2,recog,17,BOXCAR,LF,target,right,aqua,imageability,liberal,no,z,1,0.566962053346,3,366
2019_Oct_16,14,001,2,recog,18,DOCTOR,HF,lure,-,-,-,conservative,no,m,1,0.683627449112,3,369
2019_Oct_16,14,001,2,recog,19,NIGHT,HF,lure,-,-,-,liberal,no,m,1,0.933593721359,1,370
2019_Oct_16,14,001,2,recog,20,AVAILABLE,HF,target,right,aqua,imageability,conservative,no,z,1,0.783625836045,1,371
2019_Oct_16,14,001,2,recog,21,MYSELF,HF,lure,-,-,-,liberal,no,m,1,0.650288665569,1,372
2019_Oct_16,14,001,2,recog,22,TOXICITY,LF,target,right,aqua,imageability,conservative,no,z,1,1.03361557108,1,373
2019_Oct_16,14,001,2,recog,23,GRIEVE,LF,target,left,yellow,pleasantness,liberal,no,z,1,0.61693851724,3,376
2019_Oct_16,14,001,2,recog,24,ALLOWED,HF,target,right,aqua,imageability,liberal,no,z,1,0.716954867868,3,379
2019_Oct_16,14,001,2,recog,25,STRAIGHT,HF,target,right,aqua,imageability,liberal,no,z,1,0.633626056008,3,382
2019_Oct_16,14,001,2,recog,26,EASILY,HF,target,left,yellow,pleasantness,conservative,no,z,1,0.61670718885,1,383
2019_Oct_16,14,001,2,recog,27,AMONG,HF,lure,-,-,-,liberal,no,m,1,0.700268062311,1,384
2019_Oct_16,14,001,2,recog,28,CLOSE,HF,target,left,yellow,pleasantness,liberal,no,z,1,0.666936244283,3,387
2019_Oct_16,14,001,2,recog,29,PNEUMATIC,LF,lure,-,-,-,conservative,yes,m,1,1.16694174337,3,390
2019_Oct_16,14,001,2,recog,30,CATALYST,LF,lure,-,-,-,conservative,no,m,1,0.916691718077,3,393
2019_Oct_16,14,001,2,recog,31,CUTLER,LF,lure,-,-,-,conservative,no,m,1,0.733593281432,3,396
2019_Oct_16,14,001,2,recog,32,BUZZARD,LF,target,right,aqua,imageability,liberal,no,z,1,0.950223336379,3,399
2019_Oct_16,14,001,2,recog,33,NUMBER,HF,target,left,yellow,pleasantness,liberal,no,z,1,0.766860576803,3,402
2019_Oct_16,14,001,2,recog,34,WELCOMES,LF,lure,-,-,-,conservative,no,m,1,0.650217544004,3,405
2019_Oct_16,14,001,2,recog,35,DRINK,HF,lure,-,-,-,liberal,no,m,1,1.61684613253,1,406
2019_Oct_16,14,001,2,recog,36,SCHOOL,HF,lure,-,-,-,conservative,no,m,1,0.566977450798,3,409
2019_Oct_16,14,001,2,recog,37,SOVIET,HF,lure,-,-,-,liberal,no,m,1,0.683680973588,1,410
2019_Oct_16,14,001,2,recog,38,BOUGH,LF,lure,-,-,-,liberal,no,m,1,0.683620850203,1,411
2019_Oct_16,14,001,2,recog,39,WASHBASIN,LF,target,right,aqua,imageability,liberal,no,z,1,0.683623049839,3,414
2019_Oct_16,14,001,2,recog,40,SUPPORT,HF,target,left,yellow,pleasantness,liberal,no,z,1,0.583590935154,3,417
2019_Oct_16,14,001,2,recog,41,FIELD,HF,lure,-,-,-,conservative,no,m,1,0.650079333539,3,420
2019_Oct_16,14,001,2,recog,42,INMATE,LF,lure,-,-,-,liberal,no,m,1,1.91687282144,1,421
2019_Oct_16,14,001,2,recog,43,ARRIVED,HF,lure,-,-,-,conservative,no,m,1,1.81664457254,3,424
2019_Oct_16,14,001,2,recog,44,DULLED,LF,lure,-,-,-,liberal,no,m,1,0.616926419242,1,425
2019_Oct_16,14,001,2,recog,45,WAITING,HF,target,right,aqua,imageability,conservative,no,z,1,0.600299370464,1,426
2019_Oct_16,14,001,2,recog,46,SCOFFED,LF,target,left,yellow,pleasantness,liberal,no,z,1,0.833590935154,3,429
2019_Oct_16,14,001,2,recog,47,SORRY,HF,target,right,aqua,imageability,conservative,no,z,1,0.566912561535,1,430
2019_Oct_16,14,001,2,recog,48,GABLE,LF,target,left,yellow,pleasantness,liberal,yes,z,1,1.18362158342,3,433
2019_Oct_16,14,001,2,recog,49,TONAL,LF,target,left,yellow,pleasantness,conservative,no,z,1,1.16701103191,1,434
2019_Oct_16,14,001,2,recog,50,SIZZLING,LF,lure,-,-,-,conservative,no,m,1,1.03360640593,3,437
2019_Oct_16,14,001,2,recog,51,NAPPY,LF,target,right,aqua,imageability,liberal,no,z,1,0.950185209354,3,440
2019_Oct_16,14,001,2,recog,52,EXACTLY,HF,target,right,aqua,imageability,conservative,no,z,1,0.633373097864,1,441
2019_Oct_16,14,001,2,recog,53,SYSTEM,HF,lure,-,-,-,conservative,no,m,1,0.650245772666,3,444
2019_Oct_16,14,001,2,recog,54,ALKALINE,LF,target,right,aqua,imageability,conservative,yes,m,0,0.683576857483,-1,443
2019_Oct_16,14,001,2,recog,55,AEONS,LF,lure,-,-,-,liberal,no,m,1,1.30024738573,1,444
2019_Oct_16,14,001,2,recog,56,WARDROBES,LF,lure,-,-,-,liberal,no,m,1,1.13360369304,1,445
2019_Oct_16,14,001,2,recog,57,RETURN,HF,target,left,yellow,pleasantness,liberal,no,z,1,0.566964619588,3,448
2019_Oct_16,14,001,2,recog,58,TWENTY,HF,target,right,aqua,imageability,conservative,no,z,1,0.583637860722,1,449
2019_Oct_16,14,001,2,recog,59,THING,HF,lure,-,-,-,liberal,no,m,1,0.71695560108,1,450
2019_Oct_16,14,001,2,recog,60,IDEAS,HF,lure,-,-,-,liberal,no,m,1,0.60033456464,1,451
2019_Oct_16,14,001,2,recog,61,NIMBLE,LF,lure,-,-,-,liberal,no,m,1,0.583386002396,1,452
2019_Oct_16,14,001,2,recog,62,SULKED,LF,lure,-,-,-,conservative,no,m,1,0.583621730058,3,455
2019_Oct_16,14,001,2,recog,63,SHEARING,LF,target,right,aqua,imageability,conservative,no,z,1,0.666961173491,1,456
2019_Oct_16,14,001,2,recog,64,SAVOURED,LF,target,left,yellow,pleasantness,liberal,no,z,1,0.533618870531,3,459
2019_Oct_16,14,001,2,recog,65,TILTS,LF,target,right,aqua,imageability,conservative,no,z,1,0.53360420629,1,460
2019_Oct_16,14,001,2,recog,66,WATCH,HF,target,left,yellow,pleasantness,liberal,no,z,1,0.566875167722,3,463
2019_Oct_16,14,001,2,recog,67,REJOICED,LF,lure,-,-,-,liberal,no,m,1,0.666908382226,1,464
2019_Oct_16,14,001,2,recog,68,GREATER,HF,lure,-,-,-,liberal,no,m,1,0.683523333006,1,465
2019_Oct_16,14,001,2,recog,69,RUDIMENTS,LF,target,left,yellow,pleasantness,conservative,no,z,1,0.733671001905,1,466
2019_Oct_16,14,001,2,recog,70,RAVAGES,LF,lure,-,-,-,conservative,no,m,1,0.616910288578,3,469
2019_Oct_16,14,001,2,recog,71,BUDDIES,LF,lure,-,-,-,liberal,no,m,1,0.700038200346,1,470
2019_Oct_16,14,001,2,recog,72,AGONIZED,LF,target,right,aqua,imageability,conservative,no,m,0,0.583632361632,-1,469
2019_Oct_16,14,001,2,recog,73,QUOTAS,LF,target,left,yellow,pleasantness,conservative,no,z,1,0.983645339485,1,470
2019_Oct_16,14,001,2,recog,74,WESTERN,HF,lure,-,-,-,conservative,yes,m,1,0.683644312988,3,473
2019_Oct_16,14,001,2,recog,75,GALACTIC,LF,lure,-,-,-,conservative,no,m,1,1.18355156167,3,476
2019_Oct_16,14,001,2,recog,76,DEMEANOUR,LF,lure,-,-,-,liberal,no,m,1,1.16687172163,1,477
2019_Oct_16,14,001,2,recog,77,MEMBERS,HF,lure,-,-,-,conservative,no,m,1,0.766954427941,3,480
2019_Oct_16,14,001,2,recog,78,SOMEONE,HF,lure,-,-,-,liberal,no,m,1,0.566975617768,1,481
2019_Oct_16,14,001,2,recog,79,FAMILY,HF,target,right,aqua,imageability,liberal,no,z,1,0.550255451065,3,484
2019_Oct_16,14,001,2,recog,80,HERSELF,HF,lure,-,-,-,conservative,no,m,1,0.866949148814,3,487
2019_Oct_16,14,001,2,recog,81,ALTHOUGH,HF,target,left,yellow,pleasantness,conservative,no,z,1,0.61695684754,1,488
2019_Oct_16,14,001,2,recog,82,LONGER,HF,target,left,yellow,pleasantness,liberal,no,z,1,0.850243279745,3,491
2019_Oct_16,14,001,2,recog,83,BIJOU,LF,target,right,aqua,imageability,conservative,no,z,1,0.60029973707,1,492
2019_Oct_16,14,001,2,recog,84,ASKED,HF,target,left,yellow,pleasantness,conservative,no,z,1,2.08325329102,1,493
2019_Oct_16,14,001,2,recog,85,NATIONAL,HF,target,right,aqua,imageability,liberal,no,z,1,0.666705649105,3,496
2019_Oct_16,14,001,2,recog,86,KIMONO,LF,lure,-,-,-,liberal,no,m,1,0.56697451795,1,497
2019_Oct_16,14,001,2,recog,87,ENOUGH,HF,lure,-,-,-,conservative,no,m,1,0.983619310458,3,500
2019_Oct_16,14,001,2,recog,88,FALCON,LF,target,left,yellow,pleasantness,liberal,no,z,1,1.25000843194,3,503
2019_Oct_16,14,001,2,recog,89,CRACKLE,LF,target,left,yellow,pleasantness,conservative,no,z,1,0.666728012071,1,504
2019_Oct_16,14,001,2,recog,90,HUSBAND,HF,target,left,yellow,pleasantness,conservative,no,z,1,0.63357729741,1,505
2019_Oct_16,14,001,2,recog,91,TYRANTS,LF,lure,-,-,-,conservative,no,z,0,1.81694298983,-3,502
2019_Oct_16,14,001,2,recog,92,OUGHT,HF,target,right,aqua,imageability,liberal,no,z,1,1.56664457255,3,505
2019_Oct_16,14,001,2,recog,93,JAMMING,LF,target,left,yellow,pleasantness,conservative,no,z,1,1.31687810057,1,506
2019_Oct_16,14,001,2,recog,94,SAWDUST,LF,lure,-,-,-,conservative,no,m,1,0.916926345921,3,509
2019_Oct_16,14,001,2,recog,95,POWER,HF,target,left,yellow,pleasantness,conservative,no,z,1,0.633613224798,1,510
2019_Oct_16,14,001,3,source,0,SMALL,HF,target,right,aqua,imageability,liberal,no,8,1,1.28360567271,-,-
2019_Oct_16,14,001,3,source,1,PAPER,HF,target,left,yellow,pleasantness,liberal,no,2,1,1.41692817895,-,-
2019_Oct_16,14,001,3,source,2,ROCKER,LF,target,right,aqua,imageability,liberal,no,8,1,1.43352516604,-,-
2019_Oct_16,14,001,3,source,3,LIVED,HF,target,right,aqua,imageability,conservative,no,8,1,1.21692150672,-,-
2019_Oct_16,14,001,3,source,4,SUDDENLY,HF,target,right,aqua,imageability,conservative,no,8,1,0.883608092314,-,-
2019_Oct_16,14,001,3,source,5,KIPPERS,LF,target,right,aqua,imageability,conservative,no,2,0,1.40022670915,-,-
2019_Oct_16,14,001,3,source,6,DAWDLING,LF,target,left,yellow,pleasantness,liberal,no,2,1,0.666932944829,-,-
2019_Oct_16,14,001,3,source,7,KITCHEN,HF,target,right,aqua,imageability,conservative,no,8,1,0.700290791884,-,-
2019_Oct_16,14,001,3,source,8,ESPECIAL,LF,target,left,yellow,pleasantness,conservative,no,1,1,1.05028148009,-,-
2019_Oct_16,14,001,3,source,9,HUDDLE,LF,target,left,yellow,pleasantness,liberal,no,2,1,1.71685698406,-,-
2019_Oct_16,14,001,3,source,10,HAMLETS,LF,target,left,yellow,pleasantness,conservative,no,1,1,1.3669363176,-,-
2019_Oct_16,14,001,3,source,11,LOCAL,HF,target,right,aqua,imageability,liberal,no,9,1,0.750240493539,-,-
2019_Oct_16,14,001,3,source,12,ACROSS,HF,target,left,yellow,pleasantness,liberal,no,2,1,0.883609925344,-,-
2019_Oct_16,14,001,3,source,13,DIGESTING,LF,target,left,yellow,pleasantness,liberal,no,1,1,1.28353235151,-,-
2019_Oct_16,14,001,3,source,14,FORCE,HF,target,left,yellow,pleasantness,conservative,yes,3,1,0.883576930804,-,-
2019_Oct_16,14,001,3,source,15,GOVERNS,LF,target,right,aqua,imageability,liberal,no,1,0,1.75024599263,-,-
2019_Oct_16,14,001,3,source,16,RANGE,HF,target,left,yellow,pleasantness,conservative,yes,1,1,0.583375737428,-,-
2019_Oct_16,14,001,3,source,17,FATHER,HF,target,left,yellow,pleasantness,conservative,no,1,1,1.85015712733,-,-
2019_Oct_16,14,001,3,source,18,PRUDENTLY,LF,target,left,yellow,pleasantness,conservative,no,9,0,1.28359614096,-,-
2019_Oct_16,14,001,3,source,19,WEEKS,HF,target,left,yellow,pleasantness,conservative,no,1,1,1.03361190502,-,-
2019_Oct_16,14,001,3,source,20,STUDENT,HF,target,right,aqua,imageability,conservative,no,8,1,0.966692377968,-,-
2019_Oct_16,14,001,3,source,21,NIBBLE,LF,target,right,aqua,imageability,conservative,no,8,1,1.00023096178,-,-
2019_Oct_16,14,001,3,source,22,SALAMI,LF,target,right,aqua,imageability,conservative,no,8,1,0.583585069458,-,-
2019_Oct_16,14,001,3,source,23,DIFFERENT,HF,target,left,yellow,pleasantness,liberal,no,2,1,1.28356717908,-,-
2019_Oct_16,14,001,3,source,24,NUTSHELL,LF,target,right,aqua,imageability,conservative,no,9,1,1.00002346278,-,-
2019_Oct_16,14,001,3,source,25,UNLESS,HF,target,left,yellow,pleasantness,liberal,no,3,1,1.43333123146,-,-
2019_Oct_16,14,001,3,source,26,CALLED,HF,target,right,aqua,imageability,liberal,no,9,1,1.05001752377,-,-
2019_Oct_16,14,001,3,source,27,FINAL,HF,target,right,aqua,imageability,liberal,no,9,1,0.733405212551,-,-
2019_Oct_16,14,001,3,source,28,BOASTS,LF,target,left,yellow,pleasantness,conservative,no,2,1,1.10024254653,-,-
2019_Oct_16,14,001,3,source,29,LULLED,LF,target,right,aqua,imageability,liberal,no,3,0,0.783624369621,-,-
2019_Oct_16,14,001,3,source,30,POUNDS,HF,target,left,yellow,pleasantness,liberal,no,1,1,1.18355852718,-,-
2019_Oct_16,14,001,3,source,31,CERTAIN,HF,target,right,aqua,imageability,liberal,no,8,1,1.1168934247,-,-
2019_Oct_16,14,001,3,source,32,DEVELOPED,HF,target,right,aqua,imageability,conservative,no,8,1,1.36687252816,-,-
2019_Oct_16,14,001,3,source,33,SOUND,HF,target,left,yellow,pleasantness,conservative,no,1,1,1.55019752732,-,-
2019_Oct_16,14,001,3,source,34,CICADAS,LF,target,left,yellow,pleasantness,liberal,no,8,0,0.600296437616,-,-
2019_Oct_16,14,001,3,source,35,HANDS,HF,target,left,yellow,pleasantness,conservative,no,1,1,1.64998841525,-,-
2019_Oct_16,14,001,3,source,36,LAUNCHER,LF,target,right,aqua,imageability,liberal,no,3,0,0.933607285781,-,-
2019_Oct_16,14,001,3,source,37,THUDDING,LF,target,right,aqua,imageability,conservative,yes,7,1,0.46697026532,-,-
2019_Oct_16,14,001,3,source,38,TWINE,LF,target,left,yellow,pleasantness,conservative,no,1,1,1.05025948373,-,-
2019_Oct_16,14,001,3,source,39,CONCERNED,HF,target,right,aqua,imageability,liberal,no,8,1,1.03362363641,-,-
2019_Oct_16,14,001,3,source,40,MIDDLE,HF,target,right,aqua,imageability,conservative,no,9,1,0.666929645375,-,-
2019_Oct_16,14,001,3,source,41,ARPEGGIO,LF,target,left,yellow,pleasantness,liberal,no,3,1,1.6168692287,-,-
2019_Oct_16,14,001,3,source,42,CINDER,LF,target,right,aqua,imageability,liberal,no,3,0,0.833566739157,-,-
2019_Oct_16,14,001,3,source,43,ALIAS,LF,target,right,aqua,imageability,conservative,no,7,1,1.26693023194,-,-
2019_Oct_16,14,001,3,source,44,BICEPS,LF,target,left,yellow,pleasantness,conservative,no,1,1,0.983583749675,-,-
2019_Oct_16,14,001,3,source,45,KIDNAP,LF,target,left,yellow,pleasantness,liberal,no,1,1,1.03355948036,-,-
2019_Oct_16,14,001,3,source,46,HEALTH,HF,target,left,yellow,pleasantness,liberal,yes,1,1,0.66678043673,-,-
2019_Oct_16,14,001,3,source,47,JOWLS,LF,target,right,aqua,imageability,liberal,no,8,1,0.916946875857,-,-
2019_Oct_16,14,001,3,recog,0,EVIDENCE,HF,lure,-,-,-,conservative,no,m,1,1.93334699552,3,513
2019_Oct_16,14,001,3,recog,1,KIPPERS,LF,target,right,aqua,imageability,conservative,no,z,1,1.96690061018,1,514
2019_Oct_16,14,001,3,recog,2,EFFECT,HF,lure,-,-,-,liberal,no,z,0,0.666960806886,-1,513
2019_Oct_16,14,001,3,recog,3,DOUBT,HF,lure,-,-,-,liberal,no,m,1,0.850283606406,1,514
2019_Oct_16,14,001,3,recog,4,LEVEL,HF,lure,-,-,-,conservative,no,m,1,0.666967039188,3,517
2019_Oct_16,14,001,3,recog,5,ERODE,LF,lure,-,-,-,conservative,no,m,1,0.5335620466,3,520
2019_Oct_16,14,001,3,recog,6,DEVELOPED,HF,target,right,aqua,imageability,conservative,no,z,1,0.550186895742,1,521
2019_Oct_16,14,001,3,recog,7,LULLED,LF,target,right,aqua,imageability,liberal,yes,m,0,0.81684877209,-3,518
2019_Oct_16,14,001,3,recog,8,EIGHT,HF,lure,-,-,-,liberal,no,m,1,0.733616011004,1,519
2019_Oct_16,14,001,3,recog,9,SUDDENLY,HF,target,right,aqua,imageability,conservative,no,z,1,1.13361872389,1,520
2019_Oct_16,14,001,3,recog,10,HEALTH,HF,target,left,yellow,pleasantness,liberal,no,z,1,0.633633021523,3,523
2019_Oct_16,14,001,3,recog,11,CINDER,LF,target,right,aqua,imageability,liberal,no,z,1,0.533628035681,3,526
2019_Oct_16,14,001,3,recog,12,STAFF,HF,lure,-,-,-,conservative,no,m,1,0.533607872351,3,529
2019_Oct_16,14,001,3,recog,13,PRUDENTLY,LF,target,left,yellow,pleasantness,conservative,no,z,1,1.16693184501,1,530
2019_Oct_16,14,001,3,recog,14,ALIAS,LF,target,right,aqua,imageability,conservative,no,z,1,0.650287932357,1,531
2019_Oct_16,14,001,3,recog,15,AREAS,HF,lure,-,-,-,conservative,no,m,1,0.70029665758,3,534
2019_Oct_16,14,001,3,recog,16,NUTSHELL,LF,target,right,aqua,imageability,conservative,no,z,1,0.600255744349,1,535
2019_Oct_16,14,001,3,recog,17,UNTIL,HF,lure,-,-,-,liberal,no,m,1,0.966896577513,1,536
2019_Oct_16,14,001,3,recog,18,FATHER,HF,target,left,yellow,pleasantness,conservative,no,z,1,0.683571358392,1,537
2019_Oct_16,14,001,3,recog,19,STOOD,HF,lure,-,-,-,liberal,no,m,1,1.00023279481,1,538
2019_Oct_16,14,001,3,recog,20,CERTAIN,HF,target,right,aqua,imageability,liberal,no,z,1,0.71686284976,3,541
2019_Oct_16,14,001,3,recog,21,RANGE,HF,target,left,yellow,pleasantness,conservative,no,m,0,0.866923119788,-1,540
2019_Oct_16,14,001,3,recog,22,TOUSLED,LF,lure,-,-,-,liberal,no,m,1,0.600295704404,1,541
2019_Oct_16,14,001,3,recog,23,POINT,HF,lure,-,-,-,liberal,no,m,1,0.533579643688,1,542
2019_Oct_16,14,001,3,recog,24,DRUDGERY,LF,lure,-,-,-,liberal,no,m,1,0.566963153164,1,543
2019_Oct_16,14,001,3,recog,25,SMALL,HF,target,right,aqua,imageability,liberal,no,z,1,0.633619090494,3,546
2019_Oct_16,14,001,3,recog,26,HANDS,HF,target,left,yellow,pleasantness,conservative,no,z,1,0.550247019126,1,547
2019_Oct_16,14,001,3,recog,27,HEDGED,LF,lure,-,-,-,conservative,no,m,1,1.11693558439,3,550
2019_Oct_16,14,001,3,recog,28,REGAINING,LF,lure,-,-,-,liberal,no,m,1,0.733638740576,1,551
2019_Oct_16,14,001,3,recog,29,POUNDS,HF,target,left,yellow,pleasantness,liberal,no,z,1,0.633633021523,3,554
2019_Oct_16,14,001,3,recog,30,SOUND,HF,target,left,yellow,pleasantness,conservative,no,z,1,0.883362466291,1,555
2019_Oct_16,14,001,3,recog,31,SOCIAL,HF,lure,-,-,-,liberal,no,m,1,0.700197673958,1,556
2019_Oct_16,14,001,3,recog,32,KITCHEN,HF,target,right,aqua,imageability,conservative,yes,m,0,0.733529858593,-1,555
2019_Oct_16,14,001,3,recog,33,FESTERING,LF,lure,-,-,-,liberal,no,m,1,0.73362554276,1,556
2019_Oct_16,14,001,3,recog,34,WOMAN,HF,lure,-,-,-,conservative,no,m,1,0.683618283962,3,559
2019_Oct_16,14,001,3,recog,35,CONCERNED,HF,target,right,aqua,imageability,liberal,no,z,1,0.933610218629,3,562
2019_Oct_16,14,001,3,recog,36,SCABS,LF,lure,-,-,-,conservative,no,m,1,0.833615497756,3,565
2019_Oct_16,14,001,3,recog,37,TOWARDS,HF,lure,-,-,-,liberal,no,m,1,0.650159620255,1,566
2019_Oct_16,14,001,3,recog,38,GOVERNS,LF,target,right,aqua,imageability,liberal,no,z,1,0.716954501262,3,569
2019_Oct_16,14,001,3,recog,39,HUDDLE,LF,target,left,yellow,pleasantness,liberal,no,z,1,0.566922826503,3,572
2019_Oct_16,14,001,3,recog,40,NEPHEWS,LF,lure,-,-,-,liberal,no,m,1,0.6169605136,1,573
2019_Oct_16,14,001,3,recog,41,ALMOST,HF,lure,-,-,-,liberal,no,m,1,1.0169093354,1,574
2019_Oct_16,14,001,3,recog,42,KIDNAP,LF,target,left,yellow,pleasantness,liberal,no,z,1,0.533630235317,3,577
2019_Oct_16,14,001,3,recog,43,ARPEGGIO,LF,target,left,yellow,pleasantness,liberal,no,z,1,0.633636687583,3,580
2019_Oct_16,14,001,3,recog,44,SARDINES,LF,lure,-,-,-,conservative,no,m,1,0.666976937549,3,583
2019_Oct_16,14,001,3,recog,45,PIECE,HF,lure,-,-,-,conservative,yes,m,1,0.550300543603,3,586
2019_Oct_16,14,001,3,recog,46,ABETTED,LF,lure,-,-,-,conservative,no,m,1,1.28354628254,3,589
2019_Oct_16,14,001,3,recog,47,SALAMI,LF,target,right,aqua,imageability,conservative,no,z,1,0.583647025872,1,590
2019_Oct_16,14,001,3,recog,48,EVENING,HF,lure,-,-,-,liberal,no,m,1,0.750239760328,1,591
2019_Oct_16,14,001,3,recog,49,LOCAL,HF,target,right,aqua,imageability,liberal,no,z,1,0.633625689402,3,594
2019_Oct_16,14,001,3,recog,50,DAWDLING,LF,target,left,yellow,pleasantness,liberal,no,z,1,0.833615864362,3,597
2019_Oct_16,14,001,3,recog,51,FAUCET,LF,lure,-,-,-,liberal,no,m,1,0.600044945896,1,598
2019_Oct_16,14,001,3,recog,52,MARKET,HF,lure,-,-,-,liberal,no,m,1,0.800284412939,1,599
2019_Oct_16,14,001,3,recog,53,CHURCH,HF,lure,-,-,-,conservative,no,m,1,0.550264249609,3,602
2019_Oct_16,14,001,3,recog,54,ESPECIAL,LF,target,left,yellow,pleasantness,conservative,no,m,0,0.583577737337,-1,601
2019_Oct_16,14,001,3,recog,55,HAMLETS,LF,target,left,yellow,pleasantness,conservative,no,z,1,0.766880740133,1,602
2019_Oct_16,14,001,3,recog,56,PRACTICE,HF,lure,-,-,-,conservative,no,m,1,1.5835755377,3,605
2019_Oct_16,14,001,3,recog,57,ROCKER,LF,target,right,aqua,imageability,liberal,no,z,1,0.650297097507,3,608
2019_Oct_16,14,001,3,recog,58,SEABED,LF,lure,-,-,-,conservative,no,m,1,0.650286465933,3,611
2019_Oct_16,14,001,3,recog,59,DIFFERENT,HF,target,left,yellow,pleasantness,liberal,no,z,1,0.666981336821,3,614
2019_Oct_16,14,001,3,recog,60,LAUNCHER,LF,target,right,aqua,imageability,liberal,no,z,1,0.566922826503,3,617
2019_Oct_16,14,001,3,recog,61,LETTER,HF,lure,-,-,-,liberal,no,m,1,0.666930378587,1,618
2019_Oct_16,14,001,3,recog,62,DAYBREAK,LF,lure,-,-,-,conservative,no,m,1,0.733638740577,3,621
2019_Oct_16,14,001,3,recog,63,ROPED,LF,lure,-,-,-,liberal,no,m,1,1.51691593431,1,622
2019_Oct_16,14,001,3,recog,64,TIGHTNESS,LF,lure,-,-,-,conservative,no,m,1,0.833662423324,3,625
2019_Oct_16,14,001,3,recog,65,SINCE,HF,lure,-,-,-,conservative,no,m,1,0.716904642845,3,628
2019_Oct_16,14,001,3,recog,66,FORCE,HF,target,left,yellow,pleasantness,conservative,no,z,1,0.566952521589,1,629
2019_Oct_16,14,001,3,recog,67,GEYSER,LF,lure,-,-,-,conservative,no,m,1,0.616959413782,3,632
2019_Oct_16,14,001,3,recog,68,THUDDING,LF,target,right,aqua,imageability,conservative,no,z,1,1.15022011025,1,633
2019_Oct_16,14,001,3,recog,69,TWINE,LF,target,left,yellow,pleasantness,conservative,no,z,1,0.616915054456,1,634
2019_Oct_16,14,001,3,recog,70,ACROSS,HF,target,left,yellow,pleasantness,liberal,no,z,1,0.633621290131,3,637
2019_Oct_16,14,001,3,recog,71,CALLED,HF,target,right,aqua,imageability,liberal,no,z,1,0.716876047577,3,640
2019_Oct_16,14,001,3,recog,72,TEACUP,LF,lure,-,-,-,conservative,no,m,1,0.583629428784,3,643
2019_Oct_16,14,001,3,recog,73,NIBBLE,LF,target,right,aqua,imageability,conservative,no,m,0,0.5668799336,-1,642
2019_Oct_16,14,001,3,recog,74,DWARFED,LF,lure,-,-,-,liberal,no,m,1,0.816954721225,1,643
2019_Oct_16,14,001,3,recog,75,STUDENT,HF,target,right,aqua,imageability,conservative,no,z,1,0.61696601269,1,644
2019_Oct_16,14,001,3,recog,76,WALKED,HF,lure,-,-,-,conservative,no,m,1,0.916691718077,3,647
2019_Oct_16,14,001,3,recog,77,MERELY,HF,lure,-,-,-,conservative,no,m,1,0.766972758241,3,650
2019_Oct_16,14,001,3,recog,78,GNARLED,LF,lure,-,-,-,liberal,no,m,1,0.583540343524,1,651
2019_Oct_16,14,001,3,recog,79,LINEAGE,LF,lure,-,-,-,liberal,no,m,1,0.750234627844,1,652
2019_Oct_16,14,001,3,recog,80,WEEKS,HF,target,left,yellow,pleasantness,conservative,no,z,1,0.733570185253,1,653
2019_Oct_16,14,001,3,recog,81,HAPPEN,HF,lure,-,-,-,conservative,no,m,1,0.71685735067,3,656
2019_Oct_16,14,001,3,recog,82,LIVED,HF,target,right,aqua,imageability,conservative,no,z,1,0.700292258308,1,657
2019_Oct_16,14,001,3,recog,83,PAPER,HF,target,left,yellow,pleasantness,liberal,no,z,1,0.683630748566,3,660
2019_Oct_16,14,001,3,recog,84,JOWLS,LF,target,right,aqua,imageability,liberal,no,z,1,0.600311468462,3,663
2019_Oct_16,14,001,3,recog,85,LOANED,LF,lure,-,-,-,liberal,no,m,1,0.716913441389,1,664
2019_Oct_16,14,001,3,recog,86,BICEPS,LF,target,left,yellow,pleasantness,conservative,yes,m,0,0.750292918199,-1,663
2019_Oct_16,14,001,3,recog,87,ABBOT,LF,lure,-,-,-,liberal,no,m,1,0.933609852023,1,664
2019_Oct_16,14,001,3,recog,88,FINAL,HF,target,right,aqua,imageability,liberal,no,z,1,0.550277447425,3,667
2019_Oct_16,14,001,3,recog,89,MIDDLE,HF,target,right,aqua,imageability,conservative,no,z,1,0.616921286758,1,668
2019_Oct_16,14,001,3,recog,90,LAYERED,LF,lure,-,-,-,conservative,no,m,1,0.66689335138,3,671
2019_Oct_16,14,001,3,recog,91,DIGESTING,LF,target,left,yellow,pleasantness,liberal,no,z,1,0.683512701431,3,674
2019_Oct_16,14,001,3,recog,92,CICADAS,LF,target,left,yellow,pleasantness,liberal,no,z,1,0.700265862675,3,677
2019_Oct_16,14,001,3,recog,93,UNLESS,HF,target,left,yellow,pleasantness,liberal,no,z,1,0.583579203761,3,680
2019_Oct_16,14,001,3,recog,94,ARMAMENT,LF,lure,-,-,-,conservative,no,m,1,0.850212118235,3,683
2019_Oct_16,14,001,3,recog,95,BOASTS,LF,target,left,yellow,pleasantness,conservative,no,z,1,0.816972318314,1,684
2019_Oct_16,14,001,4,source,0,ACIDITY,LF,target,right,aqua,imageability,liberal,no,8,1,2.59994046318,-,-
2019_Oct_16,14,001,4,source,1,CAVERN,LF,target,left,yellow,pleasantness,liberal,no,2,1,0.966850385156,-,-
2019_Oct_16,14,001,4,source,2,STYLED,LF,target,left,yellow,pleasantness,liberal,no,1,1,1.3336001003,-,-
2019_Oct_16,14,001,4,source,3,CLUBBED,LF,target,right,aqua,imageability,conservative,no,9,1,1.13362165674,-,-
2019_Oct_16,14,001,4,source,4,POLICE,HF,target,right,aqua,imageability,liberal,no,9,1,0.58363346145,-,-
2019_Oct_16,14,001,4,source,5,PRYING,LF,target,right,aqua,imageability,conservative,no,9,1,0.766953694729,-,-
2019_Oct_16,14,001,4,source,6,UGLIEST,LF,target,left,yellow,pleasantness,conservative,no,1,1,1.18334552909,-,-
2019_Oct_16,14,001,4,source,7,EMOTIVE,LF,target,left,yellow,pleasantness,liberal,yes,2,1,0.933623783051,-,-
2019_Oct_16,14,001,4,source,8,TYCOONS,LF,target,left,yellow,pleasantness,conservative,no,9,0,0.850261243439,-,-
2019_Oct_16,14,001,4,source,9,HAIRDO,LF,target,right,aqua,imageability,conservative,no,9,1,0.733635441122,-,-
2019_Oct_16,14,001,4,source,10,FICKLE,LF,target,right,aqua,imageability,conservative,no,9,1,0.583678920595,-,-
2019_Oct_16,14,001,4,source,11,SPUDS,LF,target,right,aqua,imageability,conservative,yes,8,1,0.600204786115,-,-
2019_Oct_16,14,001,4,source,12,SLIGHTLY,HF,target,left,yellow,pleasantness,liberal,no,2,1,0.783592841505,-,-
2019_Oct_16,14,001,4,source,13,SPACE,HF,target,left,yellow,pleasantness,conservative,yes,2,1,0.516915201098,-,-
2019_Oct_16,14,001,4,source,14,TOLERABLY,LF,target,left,yellow,pleasantness,conservative,no,8,0,1.18335249461,-,-
2019_Oct_16,14,001,4,source,15,OBVIOUSLY,HF,target,left,yellow,pleasantness,liberal,no,3,1,0.766963593091,-,-
2019_Oct_16,14,001,4,source,16,DURING,HF,target,right,aqua,imageability,liberal,no,7,1,0.86690002361,-,-
2019_Oct_16,14,001,4,source,17,TOKENS,LF,target,left,yellow,pleasantness,liberal,no,9,0,0.883616524252,-,-
2019_Oct_16,14,001,4,source,18,AEGIS,LF,target,left,yellow,pleasantness,conservative,no,8,0,0.700293358126,-,-
2019_Oct_16,14,001,4,source,19,IMPORTANT,HF,target,left,yellow,pleasantness,conservative,no,1,1,0.866698756912,-,-
2019_Oct_16,14,001,4,source,20,LEARN,HF,target,right,aqua,imageability,conservative,no,9,1,1.0335561809,-,-
2019_Oct_16,14,001,4,source,21,UNNAMED,LF,target,right,aqua,imageability,liberal,no,9,1,1.8336367609,-,-
2019_Oct_16,14,001,4,source,22,DAGGERS,LF,target,right,aqua,imageability,liberal,no,9,1,1.46687311473,-,-
2019_Oct_16,14,001,4,source,23,SHALL,HF,target,right,aqua,imageability,liberal,no,9,1,0.816921360079,-,-
2019_Oct_16,14,001,4,source,24,LIZARD,LF,target,left,yellow,pleasantness,conservative,no,2,1,0.816892031598,-,-
2019_Oct_16,14,001,4,source,25,AFTERNOON,HF,target,right,aqua,imageability,liberal,no,8,1,1.31690339638,-,-
2019_Oct_16,14,001,4,source,26,BEYOND,HF,target,left,yellow,pleasantness,conservative,no,8,0,0.750300250319,-,-
2019_Oct_16,14,001,4,source,27,UNKEMPT,LF,target,right,aqua,imageability,liberal,no,8,1,0.750248192266,-,-
2019_Oct_16,14,001,4,source,28,NOTHING,HF,target,right,aqua,imageability,conservative,no,9,1,1.53358404296,-,-
2019_Oct_16,14,001,4,source,29,DAUGHTER,HF,target,right,aqua,imageability,conservative,no,9,1,0.933609485417,-,-
2019_Oct_16,14,001,4,source,30,LOOKED,HF,target,left,yellow,pleasantness,liberal,no,2,1,0.850229348717,-,-
2019_Oct_16,14,001,4,source,31,PIQUE,LF,target,right,aqua,imageability,liberal,no,1,0,0.666883086412,-,-
2019_Oct_16,14,001,4,source,32,SEVEN,HF,target,right,aqua,imageability,conservative,no,9,1,1.0668861659,-,-
2019_Oct_16,14,001,4,source,33,LEFTISTS,LF,target,left,yellow,pleasantness,liberal,no,9,0,0.933610951841,-,-
2019_Oct_16,14,001,4,source,34,FLOOR,HF,target,right,aqua,imageability,liberal,no,9,1,1.13362862225,-,-
2019_Oct_16,14,001,4,source,35,COLDEST,LF,target,right,aqua,imageability,conservative,no,9,1,0.666899950288,-,-
2019_Oct_16,14,001,4,source,36,USUAL,HF,target,left,yellow,pleasantness,liberal,no,2,1,0.650205812612,-,-
2019_Oct_16,14,001,4,source,37,INDEED,HF,target,left,yellow,pleasantness,conservative,no,2,1,0.61694584936,-,-
2019_Oct_16,14,001,4,source,38,PACIFISM,LF,target,left,yellow,pleasantness,conservative,no,1,1,0.833618430604,-,-
2019_Oct_16,14,001,4,source,39,TOILED,LF,target,right,aqua,imageability,liberal,no,2,0,0.533630968529,-,-
2019_Oct_16,14,001,4,source,40,LATER,HF,target,right,aqua,imageability,conservative,no,8,1,0.683628548929,-,-
2019_Oct_16,14,001,4,source,41,NEEDED,HF,target,left,yellow,pleasantness,conservative,no,8,0,1.48359438125,-,-
2019_Oct_16,14,001,4,source,42,ICONS,LF,target,left,yellow,pleasantness,liberal,no,2,1,1.25000549909,-,-
2019_Oct_16,14,001,4,source,43,HAVING,HF,target,right,aqua,imageability,liberal,no,8,1,1.08358323643,-,-
2019_Oct_16,14,001,4,source,44,MEANS,HF,target,left,yellow,pleasantness,liberal,no,1,1,1.55026534943,-,-
2019_Oct_16,14,001,4,source,45,TROUBLE,HF,target,right,aqua,imageability,conservative,no,1,0,1.45025119844,-,-
2019_Oct_16,14,001,4,source,46,HIGHER,HF,target,left,yellow,pleasantness,conservative,no,9,0,2.00022692912,-,-
2019_Oct_16,14,001,4,source,47,RESEARCH,HF,target,left,yellow,pleasantness,liberal,yes,9,0,0.533639767073,-,-
2019_Oct_16,14,001,4,recog,0,INDEED,HF,target,left,yellow,pleasantness,conservative,no,z,1,1.15001041161,1,685
2019_Oct_16,14,001,4,recog,1,TULIPS,LF,lure,-,-,-,liberal,no,m,1,0.833619897028,1,686
2019_Oct_16,14,001,4,recog,2,DAFFODILS,LF,lure,-,-,-,conservative,no,m,1,0.633623123161,3,689
2019_Oct_16,14,001,4,recog,3,RESEARCH,HF,target,left,yellow,pleasantness,liberal,no,z,1,0.716960000352,3,692
2019_Oct_16,14,001,4,recog,4,PORCHES,LF,lure,-,-,-,liberal,no,m,1,0.666931111798,1,693
2019_Oct_16,14,001,4,recog,5,SKATES,LF,lure,-,-,-,conservative,no,m,1,0.833565639339,3,696
2019_Oct_16,14,001,4,recog,6,UNKEMPT,LF,target,right,aqua,imageability,liberal,no,z,1,0.683371924725,3,699
2019_Oct_16,14,001,4,recog,7,HIGHER,HF,target,left,yellow,pleasantness,conservative,no,z,1,0.60030523616,1,700
2019_Oct_16,14,001,4,recog,8,SPACE,HF,target,left,yellow,pleasantness,conservative,no,z,1,0.650293064841,1,701
2019_Oct_16,14,001,4,recog,9,LATER,HF,target,right,aqua,imageability,conservative,no,z,1,0.517017484174,1,702
2019_Oct_16,14,001,4,recog,10,PRYING,LF,target,right,aqua,imageability,conservative,no,z,1,0.533705389548,1,703
2019_Oct_16,14,001,4,recog,11,SELECTS,LF,lure,-,-,-,conservative,no,m,1,0.516966525939,3,706
2019_Oct_16,14,001,4,recog,12,ADMIRALS,LF,lure,-,-,-,conservative,no,m,1,0.650290498599,3,709
2019_Oct_16,14,001,4,recog,13,CARRIED,HF,lure,-,-,-,liberal,no,m,1,1.00020676579,1,710
2019_Oct_16,14,001,4,recog,14,LIZARD,LF,target,left,yellow,pleasantness,conservative,no,z,1,0.583710815317,1,711
2019_Oct_16,14,001,4,recog,15,PIQUE,LF,target,right,aqua,imageability,liberal,no,z,1,0.533613004835,3,714
2019_Oct_16,14,001,4,recog,16,OBVIOUSLY,HF,target,left,yellow,pleasantness,liberal,no,z,1,0.800288445605,3,717
2019_Oct_16,14,001,4,recog,17,FLOOR,HF,target,right,aqua,imageability,liberal,no,z,1,0.700192174868,3,720
2019_Oct_16,14,001,4,recog,18,NEEDED,HF,target,left,yellow,pleasantness,conservative,no,z,1,0.80031190839,1,721
2019_Oct_16,14,001,4,recog,19,DURING,HF,target,right,aqua,imageability,liberal,no,z,1,0.816700663264,3,724
2019_Oct_16,14,001,4,recog,20,UNNAMED,LF,target,right,aqua,imageability,liberal,no,z,1,0.666702349652,3,727
2019_Oct_16,14,001,4,recog,21,TREES,HF,lure,-,-,-,conservative,no,m,1,0.566910361899,3,730
2019_Oct_16,14,001,4,recog,22,FICKLE,LF,target,right,aqua,imageability,conservative,no,z,1,0.6169605136,1,731
2019_Oct_16,14,001,4,recog,23,CAVERN,LF,target,left,yellow,pleasantness,liberal,no,z,1,0.650288665569,3,734
2019_Oct_16,14,001,4,recog,24,LEFTISTS,LF,target,left,yellow,pleasantness,liberal,no,z,1,0.766912634856,3,737
2019_Oct_16,14,001,4,recog,25,SEVEN,HF,target,right,aqua,imageability,conservative,no,z,1,0.566934557895,1,738
2019_Oct_16,14,001,4,recog,26,BALDING,LF,lure,-,-,-,conservative,no,z,0,0.683639180504,-3,735
2019_Oct_16,14,001,4,recog,27,BUILDING,HF,lure,-,-,-,conservative,no,m,1,0.766902736494,3,738
2019_Oct_16,14,001,4,recog,28,SLIGHTLY,HF,target,left,yellow,pleasantness,liberal,no,z,1,0.766919233764,3,741
2019_Oct_16,14,001,4,recog,29,USUAL,HF,target,left,yellow,pleasantness,liberal,no,z,1,1.68357355803,3,744
2019_Oct_16,14,001,4,recog,30,RIVER,HF,lure,-,-,-,conservative,no,m,1,0.566959853709,3,747
2019_Oct_16,14,001,4,recog,31,RUNNING,HF,lure,-,-,-,conservative,no,m,1,0.850208452175,3,750
2019_Oct_16,14,001,4,recog,32,SPUDS,LF,target,right,aqua,imageability,conservative,no,z,1,0.733372584617,1,751
2019_Oct_16,14,001,4,recog,33,IMPORTANT,HF,target,left,yellow,pleasantness,conservative,no,z,1,0.983559920285,1,752
2019_Oct_16,14,001,4,recog,34,OXIDE,LF,lure,-,-,-,liberal,no,m,1,0.616893424701,1,753
2019_Oct_16,14,001,4,recog,35,SERIOUS,HF,lure,-,-,-,liberal,no,m,1,0.683624149657,1,754
2019_Oct_16,14,001,4,recog,36,ACIDITY,LF,target,right,aqua,imageability,liberal,no,z,1,0.616979943719,3,757
2019_Oct_16,14,001,4,recog,37,BACHELORS,LF,lure,-,-,-,liberal,no,m,1,0.733623343124,1,758
2019_Oct_16,14,001,4,recog,38,TUBERS,LF,lure,-,-,-,conservative,no,m,1,0.633633388129,3,761
2019_Oct_16,14,001,4,recog,39,UGLIEST,LF,target,left,yellow,pleasantness,conservative,no,z,1,0.667051725175,1,762
2019_Oct_16,14,001,4,recog,40,LEARN,HF,target,right,aqua,imageability,conservative,no,z,1,0.833364006036,1,763
2019_Oct_16,14,001,4,recog,41,TROUBLE,HF,target,right,aqua,imageability,conservative,no,z,1,0.583564539521,1,764
2019_Oct_16,14,001,4,recog,42,UNION,HF,lure,-,-,-,conservative,no,m,1,0.683573924634,3,767
2019_Oct_16,14,001,4,recog,43,DAGGERS,LF,target,right,aqua,imageability,liberal,no,z,1,0.950195474322,3,770
2019_Oct_16,14,001,4,recog,44,TYCOONS,LF,target,left,yellow,pleasantness,conservative,no,z,1,0.650291598417,1,771
2019_Oct_16,14,001,4,recog,45,ACQUIRES,LF,lure,-,-,-,conservative,no,m,1,0.816902663173,3,774
2019_Oct_16,14,001,4,recog,46,PHYSICAL,HF,lure,-,-,-,conservative,no,m,1,0.550243719672,3,777
2019_Oct_16,14,001,4,recog,47,AEGIS,LF,target,left,yellow,pleasantness,conservative,no,z,1,0.650295631083,1,778
2019_Oct_16,14,001,4,recog,48,CLASS,HF,lure,-,-,-,liberal,no,m,1,0.850360593667,1,779
2019_Oct_16,14,001,4,recog,49,LOOKED,HF,target,left,yellow,pleasantness,liberal,no,z,1,0.816907429051,3,782
2019_Oct_16,14,001,4,recog,50,COLDEST,LF,target,right,aqua,imageability,conservative,no,z,1,0.650239540364,1,783
2019_Oct_16,14,001,4,recog,51,TOLERABLY,LF,target,left,yellow,pleasantness,conservative,no,z,1,0.700262196615,1,784
2019_Oct_16,14,001,4,recog,52,GIBBERISH,LF,lure,-,-,-,liberal,no,m,1,0.933589688693,1,785
2019_Oct_16,14,001,4,recog,53,OSTRACISM,LF,lure,-,-,-,conservative,no,m,1,0.600239980291,3,788
2019_Oct_16,14,001,4,recog,54,HIMSELF,HF,lure,-,-,-,conservative,no,m,1,0.616976644264,3,791
2019_Oct_16,14,001,4,recog,55,TRIED,HF,lure,-,-,-,conservative,no,m,1,0.633571431714,3,794
2019_Oct_16,14,001,4,recog,56,PRIVATE,HF,lure,-,-,-,liberal,no,m,1,0.866949148814,1,795
2019_Oct_16,14,001,4,recog,57,DAUGHTER,HF,target,right,aqua,imageability,conservative,no,z,1,0.750292184986,1,796
2019_Oct_16,14,001,4,recog,58,JACKALS,LF,lure,-,-,-,liberal,no,m,1,0.616979210507,1,797
2019_Oct_16,14,001,4,recog,59,WRONG,HF,lure,-,-,-,liberal,no,m,1,0.850286172648,1,798
2019_Oct_16,14,001,4,recog,60,FURTHER,HF,lure,-,-,-,conservative,no,m,1,0.916945042827,3,801
2019_Oct_16,14,001,4,recog,61,AFTERNOON,HF,target,right,aqua,imageability,liberal,no,z,1,0.666947975675,3,804
2019_Oct_16,14,001,4,recog,62,SEDAN,LF,lure,-,-,-,liberal,yes,z,0,1.41687538769,-1,803
2019_Oct_16,14,001,4,recog,63,ECHELONS,LF,lure,-,-,-,liberal,no,m,1,1.11698434299,1,804
2019_Oct_16,14,001,4,recog,64,STYLED,LF,target,left,yellow,pleasantness,liberal,no,z,1,0.650290865205,3,807
2019_Oct_16,14,001,4,recog,65,MIXER,LF,lure,-,-,-,liberal,no,m,1,0.683618283962,1,808
2019_Oct_16,14,001,4,recog,66,ICONS,LF,target,left,yellow,pleasantness,liberal,yes,m,0,0.466913074783,-3,805
2019_Oct_16,14,001,4,recog,67,CLUBBED,LF,target,right,aqua,imageability,conservative,no,z,1,0.866943649724,1,806
2019_Oct_16,14,001,4,recog,68,VALUE,HF,lure,-,-,-,liberal,no,m,1,0.766955527759,1,807
2019_Oct_16,14,001,4,recog,69,YORKER,LF,lure,-,-,-,conservative,no,m,1,0.983607945672,3,810
2019_Oct_16,14,001,4,recog,70,POLICE,HF,target,right,aqua,imageability,liberal,no,z,1,0.583626862542,3,813
2019_Oct_16,14,001,4,recog,71,AUDACIOUS,LF,lure,-,-,-,conservative,no,m,1,0.600044579291,3,816
2019_Oct_16,14,001,4,recog,72,GAPED,LF,lure,-,-,-,liberal,no,m,1,0.600249512047,1,817
2019_Oct_16,14,001,4,recog,73,EMOTIVE,LF,target,left,yellow,pleasantness,liberal,no,z,1,0.916840193509,3,820
2019_Oct_16,14,001,4,recog,74,AHEAD,HF,lure,-,-,-,conservative,no,z,0,0.733713161595,-3,817
2019_Oct_16,14,001,4,recog,75,TOKENS,LF,target,left,yellow,pleasantness,liberal,no,z,1,0.650292698235,3,820
2019_Oct_16,14,001,4,recog,76,RUPTURE,LF,lure,-,-,-,liberal,no,m,1,0.750298050682,1,821
2019_Oct_16,14,001,4,recog,77,HAVING,HF,target,right,aqua,imageability,liberal,no,z,1,0.800255817671,3,824
2019_Oct_16,14,001,4,recog,78,PACIFISM,LF,target,left,yellow,pleasantness,conservative,no,z,1,0.750329945405,1,825
2019_Oct_16,14,001,4,recog,79,HYENA,LF,lure,-,-,-,liberal,no,m,1,0.966873114729,1,826
2019_Oct_16,14,001,4,recog,80,THOUSAND,HF,lure,-,-,-,liberal,no,m,1,0.633377130531,1,827
2019_Oct_16,14,001,4,recog,81,GIRLS,HF,lure,-,-,-,conservative,no,m,1,0.666726912254,3,830
2019_Oct_16,14,001,4,recog,82,TIMES,HF,lure,-,-,-,liberal,no,m,1,0.600303036524,1,831
2019_Oct_16,14,001,4,recog,83,MEANS,HF,target,left,yellow,pleasantness,liberal,no,z,1,0.600204786114,3,834
2019_Oct_16,14,001,4,recog,84,BEYOND,HF,target,left,yellow,pleasantness,conservative,no,z,1,0.650293798053,1,835
2019_Oct_16,14,001,4,recog,85,TOILED,LF,target,right,aqua,imageability,liberal,no,z,1,0.883595994316,3,838
2019_Oct_16,14,001,4,recog,86,PARENTS,HF,lure,-,-,-,liberal,no,m,1,0.733626275972,1,839
2019_Oct_16,14,001,4,recog,87,REVERE,LF,lure,-,-,-,conservative,no,m,1,0.700225902621,3,842
2019_Oct_16,14,001,4,recog,88,BABBLED,LF,lure,-,-,-,conservative,yes,m,1,0.483585582706,3,845
2019_Oct_16,14,001,4,recog,89,NOTHING,HF,target,right,aqua,imageability,conservative,no,z,1,1.00029181838,1,846
2019_Oct_16,14,001,4,recog,90,FOLLOWED,HF,lure,-,-,-,liberal,no,m,1,0.800032554614,1,847
2019_Oct_16,14,001,4,recog,91,HAIRDO,LF,target,right,aqua,imageability,conservative,no,z,1,0.700283826369,1,848
2019_Oct_16,14,001,4,recog,92,SLEEP,HF,lure,-,-,-,liberal,no,m,1,0.73362554276,1,849
2019_Oct_16,14,001,4,recog,93,SHALL,HF,target,right,aqua,imageability,liberal,yes,m,0,0.500244892812,-3,846
2019_Oct_16,14,001,4,recog,94,FREEDOM,HF,lure,-,-,-,liberal,no,m,1,0.816957287468,1,847
2019_Oct_16,14,001,4,recog,95,APPEARED,HF,lure,-,-,-,conservative,no,m,1,1.33354107674,3,850
