date,subj,session,cycle,task,trial,item,wf,type,source,colour,encoding,bias,null,response,corr,rt,points,total
2019_Oct_16,15,001,0,source,0,WOBBLE,LF,target,right,yellow,pleasantness,conservative,no,9,1,4.18346540926,-,-
2019_Oct_16,15,001,0,source,1,LIFEBOAT,LF,target,left,aqua,imageability,liberal,yes,8,0,2.16680463273,-,-
2019_Oct_16,15,001,0,source,2,ERODE,LF,target,left,aqua,imageability,conservative,no,1,1,2.65010499596,-,-
2019_Oct_16,15,001,0,source,3,DROLL,LF,target,left,aqua,imageability,liberal,yes,3,1,1.83332697883,-,-
2019_Oct_16,15,001,0,source,4,JEWELLED,LF,target,right,yellow,pleasantness,conservative,no,1,0,2.63331884018,-,-
2019_Oct_16,15,001,0,source,5,NAUGHT,LF,target,right,yellow,pleasantness,conservative,no,7,1,3.049873081,-,-
2019_Oct_16,15,001,0,source,6,UNGAINLY,LF,target,left,aqua,imageability,liberal,no,2,1,2.08350258311,-,-
2019_Oct_16,15,001,0,source,7,EARLIER,HF,target,left,aqua,imageability,conservative,no,1,1,2.23359401464,-,-
2019_Oct_16,15,001,0,source,8,HOWEVER,HF,target,left,aqua,imageability,conservative,no,8,0,2.91659383427,-,-
2019_Oct_16,15,001,0,source,9,SMIRK,LF,target,left,aqua,imageability,liberal,no,7,0,4.29985401749,-,-
2019_Oct_16,15,001,0,source,10,NOVAS,LF,target,left,aqua,imageability,conservative,no,7,0,3.78337177808,-,-
2019_Oct_16,15,001,0,source,11,PAMPERED,LF,target,left,aqua,imageability,conservative,no,1,1,2.13351387457,-,-
2019_Oct_16,15,001,0,source,12,DEFEATING,LF,target,left,aqua,imageability,conservative,no,1,1,1.91689665083,-,-
2019_Oct_16,15,001,0,source,13,BUILDING,HF,target,left,aqua,imageability,liberal,no,1,1,1.43349070507,-,-
2019_Oct_16,15,001,0,source,14,LATER,HF,target,right,yellow,pleasantness,liberal,no,2,0,3.16676393946,-,-
2019_Oct_16,15,001,0,source,15,TOWARDS,HF,target,left,aqua,imageability,liberal,no,2,1,2.15020214655,-,-
2019_Oct_16,15,001,0,source,16,CLASS,HF,target,left,aqua,imageability,conservative,no,7,0,1.60024144671,-,-
2019_Oct_16,15,001,0,source,17,COMES,HF,target,right,yellow,pleasantness,conservative,no,7,1,1.58355757401,-,-
2019_Oct_16,15,001,0,source,18,ENTIRELY,HF,target,right,yellow,pleasantness,liberal,yes,3,0,1.44999567405,-,-
2019_Oct_16,15,001,0,source,19,WOMAN,HF,target,right,yellow,pleasantness,liberal,no,1,0,2.88352010687,-,-
2019_Oct_16,15,001,0,source,20,ROMANCES,LF,target,right,yellow,pleasantness,conservative,no,8,1,2.21688118006,-,-
2019_Oct_16,15,001,0,source,21,FICKLE,LF,target,left,aqua,imageability,liberal,no,7,0,3.3667955409,-,-
2019_Oct_16,15,001,0,source,22,APART,HF,target,left,aqua,imageability,liberal,no,3,1,3.43345697732,-,-
2019_Oct_16,15,001,0,source,23,CUISINE,LF,target,left,aqua,imageability,conservative,yes,8,0,1.16683542763,-,-
2019_Oct_16,15,001,0,source,24,SUMMER,HF,target,right,yellow,pleasantness,conservative,no,9,1,3.38340425938,-,-
2019_Oct_16,15,001,0,source,25,NUMBER,HF,target,right,yellow,pleasantness,conservative,no,9,1,3.11694658257,-,-
2019_Oct_16,15,001,0,source,26,DIGESTING,LF,target,right,yellow,pleasantness,liberal,no,2,0,3.65019518104,-,-
2019_Oct_16,15,001,0,source,27,PHANTOMS,LF,target,left,aqua,imageability,conservative,no,1,1,2.43328980498,-,-
2019_Oct_16,15,001,0,source,28,FOCUSES,LF,target,right,yellow,pleasantness,liberal,no,8,1,1.78352135333,-,-
2019_Oct_16,15,001,0,source,29,BEGAN,HF,target,left,aqua,imageability,conservative,no,1,1,1.54999369438,-,-
2019_Oct_16,15,001,0,source,30,CLOSE,HF,target,right,yellow,pleasantness,conservative,no,8,1,3.08341129821,-,-
2019_Oct_16,15,001,0,source,31,APPEARED,HF,target,right,yellow,pleasantness,liberal,no,7,1,2.26652953158,-,-
2019_Oct_16,15,001,0,source,32,HAVING,HF,target,right,yellow,pleasantness,liberal,no,3,0,2.18347274138,-,-
2019_Oct_16,15,001,0,source,33,ERADICATE,LF,target,right,yellow,pleasantness,liberal,no,9,1,3.5834596902,-,-
2019_Oct_16,15,001,0,source,34,ENOUGH,HF,target,left,aqua,imageability,conservative,no,2,1,2.78344986516,-,-
2019_Oct_16,15,001,0,source,35,TRYING,HF,target,left,aqua,imageability,conservative,no,1,1,2.20010345621,-,-
2019_Oct_16,15,001,0,source,36,DOSSIERS,LF,target,right,yellow,pleasantness,liberal,no,9,1,2.20013865039,-,-
2019_Oct_16,15,001,0,source,37,HOURS,HF,target,left,aqua,imageability,liberal,no,8,0,4.36672185309,-,-
2019_Oct_16,15,001,0,source,38,GETTING,HF,target,right,yellow,pleasantness,liberal,no,8,1,2.80024481949,-,-
2019_Oct_16,15,001,0,source,39,FLOOR,HF,target,right,yellow,pleasantness,conservative,no,3,0,2.43331840025,-,-
2019_Oct_16,15,001,0,source,40,GIRLS,HF,target,left,aqua,imageability,liberal,no,9,0,2.51685764396,-,-
2019_Oct_16,15,001,0,source,41,NOTHING,HF,target,left,aqua,imageability,liberal,no,8,0,2.03335198136,-,-
2019_Oct_16,15,001,0,source,42,SKYLIGHT,LF,target,right,yellow,pleasantness,liberal,no,8,1,3.18343278132,-,-
2019_Oct_16,15,001,0,source,43,MOPED,LF,target,right,yellow,pleasantness,conservative,no,9,1,2.51656289273,-,-
2019_Oct_16,15,001,0,source,44,JAUNDICE,LF,target,right,yellow,pleasantness,liberal,no,9,1,1.25022766233,-,-
2019_Oct_16,15,001,0,source,45,ALABASTER,LF,target,right,yellow,pleasantness,conservative,no,2,0,2.21686138334,-,-
2019_Oct_16,15,001,0,source,46,KIDNAP,LF,target,left,aqua,imageability,liberal,no,1,1,3.21678439608,-,-
2019_Oct_16,15,001,0,source,47,FRIEND,HF,target,right,yellow,pleasantness,conservative,no,9,1,3.93337155812,-,-
2019_Oct_16,15,001,0,recog,0,CAUGHT,HF,lure,-,-,-,conservative,no,z,0,3.08347362123,-3,-3
2019_Oct_16,15,001,0,recog,1,TAKEN,HF,lure,-,-,-,liberal,no,m,1,2.28353308473,1,-2
2019_Oct_16,15,001,0,recog,2,FURTHER,HF,lure,-,-,-,conservative,no,z,0,1.48353755732,-3,-5
2019_Oct_16,15,001,0,recog,3,EARLIER,HF,target,left,aqua,imageability,conservative,no,m,0,1.60019818721,-1,-6
2019_Oct_16,15,001,0,recog,4,NOTHING,HF,target,left,aqua,imageability,liberal,no,z,1,2.40018894874,3,-3
2019_Oct_16,15,001,0,recog,5,JAUNDICE,LF,target,right,yellow,pleasantness,liberal,no,z,1,1.28351732067,3,0
2019_Oct_16,15,001,0,recog,6,ATTACK,HF,lure,-,-,-,conservative,no,m,1,2.55025911713,3,3
2019_Oct_16,15,001,0,recog,7,ALABASTER,LF,target,right,yellow,pleasantness,conservative,no,z,1,1.65018564928,1,4
2019_Oct_16,15,001,0,recog,8,ELICIT,LF,lure,-,-,-,conservative,no,m,1,2.31657381758,3,7
2019_Oct_16,15,001,0,recog,9,DOSSIERS,LF,target,right,yellow,pleasantness,liberal,no,z,1,0.833564906126,3,10
2019_Oct_16,15,001,0,recog,10,PHANTOMS,LF,target,left,aqua,imageability,conservative,no,z,1,0.783619970349,1,11
2019_Oct_16,15,001,0,recog,11,CLASS,HF,target,left,aqua,imageability,conservative,no,z,1,0.900224876124,1,12
2019_Oct_16,15,001,0,recog,12,YOUNG,HF,lure,-,-,-,liberal,no,m,1,1.31687443451,1,13
2019_Oct_16,15,001,0,recog,13,WEAKENS,LF,lure,-,-,-,liberal,no,m,1,1.15021974364,1,14
2019_Oct_16,15,001,0,recog,14,ACROSS,HF,lure,-,-,-,liberal,no,m,1,4.083398467,1,15
2019_Oct_16,15,001,0,recog,15,NOVAS,LF,target,left,aqua,imageability,conservative,no,z,1,0.66696960543,1,16
2019_Oct_16,15,001,0,recog,16,SKYLIGHT,LF,target,right,yellow,pleasantness,liberal,no,z,1,1.40025347139,3,19
2019_Oct_16,15,001,0,recog,17,NOMAD,LF,lure,-,-,-,conservative,no,m,1,1.63350727566,3,22
2019_Oct_16,15,001,0,recog,18,LEPROSY,LF,lure,-,-,-,liberal,yes,m,1,0.750245259417,1,23
2019_Oct_16,15,001,0,recog,19,USING,HF,lure,-,-,-,conservative,no,m,1,2.35020075345,3,26
2019_Oct_16,15,001,0,recog,20,CENTRAL,HF,lure,-,-,-,conservative,no,m,1,2.45015258142,3,29
2019_Oct_16,15,001,0,recog,21,BUILDING,HF,target,left,aqua,imageability,liberal,no,z,1,1.05032253996,3,32
2019_Oct_16,15,001,0,recog,22,FUNNILY,LF,lure,-,-,-,conservative,no,m,1,1.75018586924,3,35
2019_Oct_16,15,001,0,recog,23,JEWELLED,LF,target,right,yellow,pleasantness,conservative,no,z,1,0.683628182323,1,36
2019_Oct_16,15,001,0,recog,24,CONCERNED,HF,lure,-,-,-,conservative,no,m,1,1.03350485606,3,39
2019_Oct_16,15,001,0,recog,25,TRYING,HF,target,left,aqua,imageability,conservative,no,z,1,1.53348469273,1,40
2019_Oct_16,15,001,0,recog,26,APPEARED,HF,target,right,yellow,pleasantness,liberal,no,m,0,0.616957580752,-3,37
2019_Oct_16,15,001,0,recog,27,SUMMER,HF,target,right,yellow,pleasantness,conservative,no,z,1,1.63347978021,1,38
2019_Oct_16,15,001,0,recog,28,DEITIES,LF,lure,-,-,-,liberal,no,m,1,0.800183596287,1,39
2019_Oct_16,15,001,0,recog,29,ROMANCES,LF,target,right,yellow,pleasantness,conservative,no,z,1,0.600227882293,1,40
2019_Oct_16,15,001,0,recog,30,AGILITY,LF,lure,-,-,-,conservative,no,m,1,1.53350302303,3,43
2019_Oct_16,15,001,0,recog,31,QUOTAS,LF,lure,-,-,-,liberal,no,m,1,0.816951788377,1,44
2019_Oct_16,15,001,0,recog,32,OLDER,HF,lure,-,-,-,liberal,no,m,1,0.899980716525,1,45
2019_Oct_16,15,001,0,recog,33,AVAILABLE,HF,lure,-,-,-,liberal,no,m,1,1.10021395126,1,46
2019_Oct_16,15,001,0,recog,34,SENSE,HF,lure,-,-,-,liberal,no,m,1,0.95030948879,1,47
2019_Oct_16,15,001,0,recog,35,HIMSELF,HF,lure,-,-,-,liberal,no,m,1,1.50019833385,1,48
2019_Oct_16,15,001,0,recog,36,GETTING,HF,target,right,yellow,pleasantness,liberal,no,z,1,0.616977010871,3,51
2019_Oct_16,15,001,0,recog,37,SHIELDING,LF,lure,-,-,-,conservative,no,m,1,1.20018924202,3,54
2019_Oct_16,15,001,0,recog,38,NUMBER,HF,target,right,yellow,pleasantness,conservative,no,m,0,4.08347838711,-1,53
2019_Oct_16,15,001,0,recog,39,ERODE,LF,target,left,aqua,imageability,conservative,no,z,1,1.36693228494,1,54
2019_Oct_16,15,001,0,recog,40,ASSERTIVE,LF,lure,-,-,-,conservative,no,m,1,0.750274587898,3,57
2019_Oct_16,15,001,0,recog,41,KIDNAP,LF,target,left,aqua,imageability,liberal,no,z,1,1.40023917376,3,60
2019_Oct_16,15,001,0,recog,42,PAMPERED,LF,target,left,aqua,imageability,conservative,no,z,1,0.633628988857,1,61
2019_Oct_16,15,001,0,recog,43,WOBBLE,LF,target,right,yellow,pleasantness,conservative,no,z,1,0.700290058671,1,62
2019_Oct_16,15,001,0,recog,44,TOWARDS,HF,target,left,aqua,imageability,liberal,no,z,1,2.26688293977,3,65
2019_Oct_16,15,001,0,recog,45,DEVELOPED,HF,lure,-,-,-,liberal,no,m,1,0.683642846564,1,66
2019_Oct_16,15,001,0,recog,46,MOPED,LF,target,right,yellow,pleasantness,conservative,no,z,1,2.93344048005,1,67
2019_Oct_16,15,001,0,recog,47,MISFITS,LF,lure,-,-,-,liberal,no,m,1,1.30019129501,1,68
2019_Oct_16,15,001,0,recog,48,ENTIRELY,HF,target,right,yellow,pleasantness,liberal,no,z,1,1.06692172668,3,71
2019_Oct_16,15,001,0,recog,49,DELEGATED,LF,lure,-,-,-,conservative,no,m,1,1.40015338795,3,74
2019_Oct_16,15,001,0,recog,50,GADGET,LF,lure,-,-,-,liberal,no,m,1,2.50014590919,1,75
2019_Oct_16,15,001,0,recog,51,HOURS,HF,target,left,aqua,imageability,liberal,no,z,1,1.13359892716,3,78
2019_Oct_16,15,001,0,recog,52,DRYER,LF,lure,-,-,-,liberal,no,m,1,0.700302523276,1,79
2019_Oct_16,15,001,0,recog,53,CUISINE,LF,target,left,aqua,imageability,conservative,no,z,1,0.66689335138,1,80
2019_Oct_16,15,001,0,recog,54,ERSTWHILE,LF,lure,-,-,-,conservative,no,m,1,0.683619017173,3,83
2019_Oct_16,15,001,0,recog,55,COMES,HF,target,right,yellow,pleasantness,conservative,no,z,1,1.6668027997,1,84
2019_Oct_16,15,001,0,recog,56,ERADICATE,LF,target,right,yellow,pleasantness,liberal,no,z,1,1.13334376938,3,87
2019_Oct_16,15,001,0,recog,57,ABATED,LF,lure,-,-,-,liberal,no,z,0,0.700224069591,-1,86
2019_Oct_16,15,001,0,recog,58,HAVING,HF,target,right,yellow,pleasantness,liberal,no,m,0,1.01684041347,-3,83
2019_Oct_16,15,001,0,recog,59,NIBBLE,LF,lure,-,-,-,conservative,no,m,1,0.750234261238,3,86
2019_Oct_16,15,001,0,recog,60,LATER,HF,target,right,yellow,pleasantness,liberal,no,z,1,3.58340213306,3,89
2019_Oct_16,15,001,0,recog,61,REDDENED,LF,lure,-,-,-,liberal,no,m,1,0.666856324174,1,90
2019_Oct_16,15,001,0,recog,62,OBVIOUSLY,HF,lure,-,-,-,conservative,no,m,1,1.21686028352,3,93
2019_Oct_16,15,001,0,recog,63,ABOVE,HF,lure,-,-,-,liberal,no,m,1,1.08355244152,1,94
2019_Oct_16,15,001,0,recog,64,LIFEBOAT,LF,target,left,aqua,imageability,liberal,no,m,0,0.733365985709,-3,91
2019_Oct_16,15,001,0,recog,65,OBESE,LF,lure,-,-,-,liberal,no,m,1,0.700303256488,1,92
2019_Oct_16,15,001,0,recog,66,SULKED,LF,lure,-,-,-,conservative,no,m,1,0.716883746303,3,95
2019_Oct_16,15,001,0,recog,67,FOCUSES,LF,target,right,yellow,pleasantness,liberal,no,m,0,1.13379689441,-3,92
2019_Oct_16,15,001,0,recog,68,CLOSE,HF,target,right,yellow,pleasantness,conservative,no,m,0,2.23352032684,-1,91
2019_Oct_16,15,001,0,recog,69,SMIRK,LF,target,left,aqua,imageability,liberal,no,z,1,0.766955894364,3,94
2019_Oct_16,15,001,0,recog,70,APART,HF,target,left,aqua,imageability,liberal,yes,z,1,0.683522233187,3,97
2019_Oct_16,15,001,0,recog,71,ALREADY,HF,lure,-,-,-,conservative,no,m,1,1.33361109848,3,100
2019_Oct_16,15,001,0,recog,72,AMONG,HF,lure,-,-,-,conservative,no,m,1,0.650247605696,3,103
2019_Oct_16,15,001,0,recog,73,SAGES,LF,lure,-,-,-,conservative,no,m,1,0.933559627,3,106
2019_Oct_16,15,001,0,recog,74,POETICAL,LF,lure,-,-,-,liberal,no,m,1,0.833519813587,1,107
2019_Oct_16,15,001,0,recog,75,BEGAN,HF,target,left,aqua,imageability,conservative,no,z,1,0.61690002361,1,108
2019_Oct_16,15,001,0,recog,76,FICKLE,LF,target,left,aqua,imageability,liberal,yes,z,1,0.683536530822,3,111
2019_Oct_16,15,001,0,recog,77,LIVED,HF,lure,-,-,-,conservative,no,m,1,1.40000527913,3,114
2019_Oct_16,15,001,0,recog,78,UNGAINLY,LF,target,left,aqua,imageability,liberal,no,m,0,0.90031616102,-3,111
2019_Oct_16,15,001,0,recog,79,MYSELF,HF,lure,-,-,-,conservative,no,m,1,1.06688140002,3,114
2019_Oct_16,15,001,0,recog,80,TYPHOID,LF,lure,-,-,-,conservative,no,m,1,1.18350573592,3,117
2019_Oct_16,15,001,0,recog,81,DEFEATING,LF,target,left,aqua,imageability,conservative,no,z,1,1.48348879872,1,118
2019_Oct_16,15,001,0,recog,82,HOTEL,HF,lure,-,-,-,liberal,no,m,1,1.41695970707,1,119
2019_Oct_16,15,001,0,recog,83,FLOOR,HF,target,right,yellow,pleasantness,conservative,no,z,1,1.5001462758,1,120
2019_Oct_16,15,001,0,recog,84,CERTAIN,HF,lure,-,-,-,liberal,no,m,1,1.81685317136,1,121
2019_Oct_16,15,001,0,recog,85,INSIDE,HF,lure,-,-,-,conservative,no,z,0,0.550230155251,-3,118
2019_Oct_16,15,001,0,recog,86,DIGESTING,LF,target,right,yellow,pleasantness,liberal,no,z,1,1.35022494944,3,121
2019_Oct_16,15,001,0,recog,87,KERNEL,LF,lure,-,-,-,liberal,no,z,0,0.866903323064,-1,120
2019_Oct_16,15,001,0,recog,88,HOWEVER,HF,target,left,aqua,imageability,conservative,no,m,0,0.81673769047,-1,119
2019_Oct_16,15,001,0,recog,89,NAUGHT,LF,target,right,yellow,pleasantness,conservative,no,m,0,1.95023470116,-1,118
2019_Oct_16,15,001,0,recog,90,ENOUGH,HF,target,left,aqua,imageability,conservative,no,z,1,0.800233454704,1,119
2019_Oct_16,15,001,0,recog,91,GIRLS,HF,target,left,aqua,imageability,liberal,no,z,1,0.63358096347,3,122
2019_Oct_16,15,001,0,recog,92,FORCE,HF,lure,-,-,-,liberal,no,z,0,2.00019613421,-1,121
2019_Oct_16,15,001,0,recog,93,WOMAN,HF,target,right,yellow,pleasantness,liberal,no,z,1,0.716863582972,3,124
2019_Oct_16,15,001,0,recog,94,DROLL,LF,target,left,aqua,imageability,liberal,no,m,0,0.783531251695,-3,121
2019_Oct_16,15,001,0,recog,95,FRIEND,HF,target,right,yellow,pleasantness,conservative,yes,m,0,0.666890785138,-1,120
2019_Oct_16,15,001,1,source,0,JINGLE,LF,target,right,yellow,pleasantness,conservative,no,8,1,2.43330666886,-,-
2019_Oct_16,15,001,1,source,1,BOASTS,LF,target,left,aqua,imageability,conservative,no,8,0,2.36680983853,-,-
2019_Oct_16,15,001,1,source,2,BLEACH,LF,target,right,yellow,pleasantness,conservative,no,3,0,1.95014671572,-,-
2019_Oct_16,15,001,1,source,3,ANYONE,HF,target,right,yellow,pleasantness,liberal,no,9,1,2.78352098673,-,-
2019_Oct_16,15,001,1,source,4,ZEBRA,LF,target,left,aqua,imageability,liberal,no,3,1,1.31723077555,-,-
2019_Oct_16,15,001,1,source,5,SEEMED,HF,target,right,yellow,pleasantness,conservative,no,8,1,1.43363551444,-,-
2019_Oct_16,15,001,1,source,6,WEBBED,LF,target,left,aqua,imageability,liberal,no,8,0,1.4169006835,-,-
2019_Oct_16,15,001,1,source,7,VIVACIOUS,LF,target,right,yellow,pleasantness,conservative,yes,8,1,0.666927079133,-,-
2019_Oct_16,15,001,1,source,8,PUBLIC,HF,target,left,aqua,imageability,liberal,no,2,1,1.13362129013,-,-
2019_Oct_16,15,001,1,source,9,FUTURE,HF,target,right,yellow,pleasantness,conservative,no,3,0,1.11693925045,-,-
2019_Oct_16,15,001,1,source,10,LIZARD,LF,target,right,yellow,pleasantness,liberal,no,9,1,1.86690075682,-,-
2019_Oct_16,15,001,1,source,11,ANNALS,LF,target,left,aqua,imageability,conservative,no,1,1,3.83346115663,-,-
2019_Oct_16,15,001,1,source,12,CATALYST,LF,target,right,yellow,pleasantness,conservative,no,9,1,1.56691989365,-,-
2019_Oct_16,15,001,1,source,13,WEEKS,HF,target,right,yellow,pleasantness,conservative,no,1,0,1.70022590262,-,-
2019_Oct_16,15,001,1,source,14,IDEAS,HF,target,right,yellow,pleasantness,liberal,no,1,0,1.36662140305,-,-
2019_Oct_16,15,001,1,source,15,MAKES,HF,target,left,aqua,imageability,conservative,no,3,1,1.18357905712,-,-
2019_Oct_16,15,001,1,source,16,NEBULOUS,LF,target,left,aqua,imageability,liberal,no,8,0,1.31683227482,-,-
2019_Oct_16,15,001,1,source,17,AMPLIFY,LF,target,right,yellow,pleasantness,conservative,no,1,0,1.16706052372,-,-
2019_Oct_16,15,001,1,source,18,SMALL,HF,target,right,yellow,pleasantness,liberal,no,1,0,0.783608605563,-,-
2019_Oct_16,15,001,1,source,19,EVADING,LF,target,right,yellow,pleasantness,liberal,no,8,1,1.51691630092,-,-
2019_Oct_16,15,001,1,source,20,BASIC,HF,target,right,yellow,pleasantness,liberal,no,8,1,0.700286026005,-,-
2019_Oct_16,15,001,1,source,21,PRACTICE,HF,target,left,aqua,imageability,conservative,no,7,0,0.966952301625,-,-
2019_Oct_16,15,001,1,source,22,PSEUDONYM,LF,target,right,yellow,pleasantness,liberal,yes,3,0,0.816951421772,-,-
2019_Oct_16,15,001,1,source,23,MEMBERS,HF,target,right,yellow,pleasantness,liberal,no,8,1,0.983505662596,-,-
2019_Oct_16,15,001,1,source,24,VARIOUS,HF,target,right,yellow,pleasantness,liberal,no,1,0,0.850026615596,-,-
2019_Oct_16,15,001,1,source,25,UPROOTED,LF,target,left,aqua,imageability,liberal,no,2,1,0.800216590828,-,-
2019_Oct_16,15,001,1,source,26,AREAS,HF,target,right,yellow,pleasantness,conservative,no,9,1,1.033549582,-,-
2019_Oct_16,15,001,1,source,27,RAREFIED,LF,target,left,aqua,imageability,conservative,no,8,0,1.60029607101,-,-
2019_Oct_16,15,001,1,source,28,WALKED,HF,target,left,aqua,imageability,conservative,no,2,1,1.11693485118,-,-
2019_Oct_16,15,001,1,source,29,ANIMAL,HF,target,left,aqua,imageability,liberal,no,9,0,1.66664955839,-,-
2019_Oct_16,15,001,1,source,30,REPORT,HF,target,left,aqua,imageability,liberal,no,7,0,0.90026190333,-,-
2019_Oct_16,15,001,1,source,31,FIELD,HF,target,left,aqua,imageability,liberal,yes,2,1,0.933624149657,-,-
2019_Oct_16,15,001,1,source,32,ICONS,LF,target,left,aqua,imageability,liberal,no,3,1,2.33349525099,-,-
2019_Oct_16,15,001,1,source,33,HEALTH,HF,target,right,yellow,pleasantness,conservative,no,7,1,2.50013197816,-,-
2019_Oct_16,15,001,1,source,34,MOSAICS,LF,target,right,yellow,pleasantness,conservative,no,1,0,2.00022839554,-,-
2019_Oct_16,15,001,1,source,35,BROUGHT,HF,target,left,aqua,imageability,liberal,no,9,0,2.68356769233,-,-
2019_Oct_16,15,001,1,source,36,ACCORDING,HF,target,left,aqua,imageability,conservative,no,7,0,3.38338886192,-,-
2019_Oct_16,15,001,1,source,37,FAKING,LF,target,left,aqua,imageability,conservative,no,8,0,1.95022626923,-,-
2019_Oct_16,15,001,1,source,38,HAIRDO,LF,target,right,yellow,pleasantness,liberal,no,1,0,1.69992455248,-,-
2019_Oct_16,15,001,1,source,39,PLEASE,HF,target,left,aqua,imageability,conservative,no,1,1,1.31697305153,-,-
2019_Oct_16,15,001,1,source,40,BIKINI,LF,target,left,aqua,imageability,conservative,no,1,1,0.983669902087,-,-
2019_Oct_16,15,001,1,source,41,FREEDOM,HF,target,left,aqua,imageability,liberal,no,7,0,1.15021497776,-,-
2019_Oct_16,15,001,1,source,42,SCOFFED,LF,target,right,yellow,pleasantness,liberal,no,8,1,1.35025647756,-,-
2019_Oct_16,15,001,1,source,43,LAUNCHER,LF,target,right,yellow,pleasantness,liberal,yes,8,1,0.850176924058,-,-
2019_Oct_16,15,001,1,source,44,GEYSER,LF,target,left,aqua,imageability,liberal,no,1,1,2.11683073507,-,-
2019_Oct_16,15,001,1,source,45,BINDINGS,LF,target,left,aqua,imageability,conservative,no,2,1,1.81699981376,-,-
2019_Oct_16,15,001,1,source,46,INTEREST,HF,target,left,aqua,imageability,conservative,no,3,1,0.766970558605,-,-
2019_Oct_16,15,001,1,source,47,REQUIRED,HF,target,right,yellow,pleasantness,conservative,no,8,1,0.816901196749,-,-
2019_Oct_16,15,001,1,recog,0,REPORT,HF,target,left,aqua,imageability,liberal,no,z,1,1.46687421455,3,123
2019_Oct_16,15,001,1,recog,1,INDEED,HF,lure,-,-,-,liberal,no,z,0,0.566915127777,-1,122
2019_Oct_16,15,001,1,recog,2,ANIMAL,HF,target,left,aqua,imageability,liberal,no,z,1,0.5668982639,3,125
2019_Oct_16,15,001,1,recog,3,ICONS,LF,target,left,aqua,imageability,liberal,no,m,0,1.73359071519,-3,122
2019_Oct_16,15,001,1,recog,4,MOSAICS,LF,target,right,yellow,pleasantness,conservative,no,m,0,0.733687865782,-1,121
2019_Oct_16,15,001,1,recog,5,ZEALOTS,LF,lure,-,-,-,liberal,no,m,1,0.816867468996,1,122
2019_Oct_16,15,001,1,recog,6,REQUIRED,HF,target,right,yellow,pleasantness,conservative,no,m,0,2.26666297617,-1,121
2019_Oct_16,15,001,1,recog,7,SPACE,HF,lure,-,-,-,liberal,no,z,0,0.816908162263,-1,120
2019_Oct_16,15,001,1,recog,8,SOUND,HF,lure,-,-,-,conservative,no,m,1,0.616895257732,3,123
2019_Oct_16,15,001,1,recog,9,ALLOWED,HF,lure,-,-,-,conservative,no,m,1,2.05020229319,3,126
2019_Oct_16,15,001,1,recog,10,STOOD,HF,lure,-,-,-,liberal,no,z,0,1.0501601335,-1,125
2019_Oct_16,15,001,1,recog,11,RIPEN,LF,lure,-,-,-,conservative,no,z,0,0.8168616033,-3,122
2019_Oct_16,15,001,1,recog,12,LYNCH,LF,lure,-,-,-,conservative,no,z,0,1.05006958182,-3,119
2019_Oct_16,15,001,1,recog,13,BOASTS,LF,target,left,aqua,imageability,conservative,yes,m,0,0.666704915893,-1,118
2019_Oct_16,15,001,1,recog,14,DOWDY,LF,lure,-,-,-,conservative,no,m,1,0.400209112066,3,121
2019_Oct_16,15,001,1,recog,15,SAYING,HF,lure,-,-,-,conservative,no,z,0,0.900242106606,-3,118
2019_Oct_16,15,001,1,recog,16,RATHER,HF,lure,-,-,-,liberal,no,z,0,0.750210431847,-1,117
2019_Oct_16,15,001,1,recog,17,BIGNESS,LF,lure,-,-,-,conservative,no,m,1,3.3002209901,3,120
2019_Oct_16,15,001,1,recog,18,ICEBOX,LF,lure,-,-,-,liberal,no,m,1,1.36693081851,1,121
2019_Oct_16,15,001,1,recog,19,THYROID,LF,lure,-,-,-,conservative,no,z,0,1.1336073591,-3,118
2019_Oct_16,15,001,1,recog,20,BLEACH,LF,target,right,yellow,pleasantness,conservative,no,z,1,0.483541956591,1,119
2019_Oct_16,15,001,1,recog,21,PSEUDONYM,LF,target,right,yellow,pleasantness,liberal,no,z,1,0.583532644799,3,122
2019_Oct_16,15,001,1,recog,22,LEARN,HF,lure,-,-,-,liberal,no,z,0,1.25034570946,-1,121
2019_Oct_16,15,001,1,recog,23,SUDDENLY,HF,lure,-,-,-,conservative,no,m,1,0.500084319381,3,124
2019_Oct_16,15,001,1,recog,24,PADDLE,LF,lure,-,-,-,liberal,no,z,0,1.10001781705,-1,123
2019_Oct_16,15,001,1,recog,25,FUTURE,HF,target,right,yellow,pleasantness,conservative,no,m,0,0.833596434243,-1,122
2019_Oct_16,15,001,1,recog,26,PUBLIC,HF,target,left,aqua,imageability,liberal,no,z,1,0.48335205468,3,125
2019_Oct_16,15,001,1,recog,27,NEBULOUS,LF,target,left,aqua,imageability,liberal,no,z,1,0.50023682748,3,128
2019_Oct_16,15,001,1,recog,28,INFECT,LF,lure,-,-,-,liberal,no,z,0,0.733661836755,-1,127
2019_Oct_16,15,001,1,recog,29,MAYBE,HF,lure,-,-,-,liberal,no,z,0,0.483579350403,-1,126
2019_Oct_16,15,001,1,recog,30,BIKINI,LF,target,left,aqua,imageability,conservative,no,z,1,0.783623636409,1,127
2019_Oct_16,15,001,1,recog,31,CATALYST,LF,target,right,yellow,pleasantness,conservative,no,z,1,0.883580596864,1,128
2019_Oct_16,15,001,1,recog,32,WALKED,HF,target,left,aqua,imageability,conservative,no,z,1,0.750243426388,1,129
2019_Oct_16,15,001,1,recog,33,LAUNCHER,LF,target,right,yellow,pleasantness,liberal,no,z,1,0.533377277173,3,132
2019_Oct_16,15,001,1,recog,34,OEDIPAL,LF,lure,-,-,-,conservative,no,m,1,0.716927005811,3,135
2019_Oct_16,15,001,1,recog,35,ANNALS,LF,target,left,aqua,imageability,conservative,no,z,1,1.35020038684,1,136
2019_Oct_16,15,001,1,recog,36,HEALTH,HF,target,right,yellow,pleasantness,conservative,yes,z,1,0.716887778969,1,137
2019_Oct_16,15,001,1,recog,37,LIZARD,LF,target,right,yellow,pleasantness,liberal,no,z,1,2.90020947867,3,140
2019_Oct_16,15,001,1,recog,38,INTEREST,HF,target,left,aqua,imageability,conservative,no,z,1,0.783551781632,1,141
2019_Oct_16,15,001,1,recog,39,FECKLESS,LF,lure,-,-,-,liberal,no,m,1,0.733575684343,1,142
2019_Oct_16,15,001,1,recog,40,SIGNPOST,LF,lure,-,-,-,liberal,no,m,1,0.700084026096,1,143
2019_Oct_16,15,001,1,recog,41,BEAUTIFUL,HF,lure,-,-,-,liberal,no,z,0,0.750177070701,-1,142
2019_Oct_16,15,001,1,recog,42,ITSELF,HF,lure,-,-,-,conservative,no,m,1,0.866972244992,3,145
2019_Oct_16,15,001,1,recog,43,BINDINGS,LF,target,left,aqua,imageability,conservative,no,m,0,2.40011416111,-1,144
2019_Oct_16,15,001,1,recog,44,VARIOUS,HF,target,right,yellow,pleasantness,liberal,no,z,1,0.583573338065,3,147
2019_Oct_16,15,001,1,recog,45,PARENTS,HF,lure,-,-,-,conservative,no,m,1,0.883617990677,3,150
2019_Oct_16,15,001,1,recog,46,PLEASE,HF,target,left,aqua,imageability,conservative,no,m,0,0.600196354177,-1,149
2019_Oct_16,15,001,1,recog,47,MAKES,HF,target,left,aqua,imageability,conservative,no,m,0,0.300305309481,-1,148
2019_Oct_16,15,001,1,recog,48,ELUDE,LF,lure,-,-,-,liberal,no,m,1,0.0835953344249,1,149
2019_Oct_16,15,001,1,recog,49,DAUGHTER,HF,lure,-,-,-,conservative,no,m,1,3.36678490932,3,152
2019_Oct_16,15,001,1,recog,50,HAIRDO,LF,target,right,yellow,pleasantness,liberal,no,z,1,3.53350192322,3,155
2019_Oct_16,15,001,1,recog,51,SEEMED,HF,target,right,yellow,pleasantness,conservative,no,m,0,1.85029863725,-1,154
2019_Oct_16,15,001,1,recog,52,BROUGHT,HF,target,left,aqua,imageability,liberal,no,z,1,1.3668322015,3,157
2019_Oct_16,15,001,1,recog,53,FAKING,LF,target,left,aqua,imageability,conservative,no,z,1,2.06694189002,1,158
2019_Oct_16,15,001,1,recog,54,WEBBED,LF,target,left,aqua,imageability,liberal,no,z,1,2.86659060814,3,161
2019_Oct_16,15,001,1,recog,55,IDEAS,HF,target,right,yellow,pleasantness,liberal,no,z,1,2.7001573473,3,164
2019_Oct_16,15,001,1,recog,56,FREEDOM,HF,target,left,aqua,imageability,liberal,no,z,1,1.05001789037,3,167
2019_Oct_16,15,001,1,recog,57,SCOFFED,LF,target,right,yellow,pleasantness,liberal,no,z,1,0.683613884689,3,170
2019_Oct_16,15,001,1,recog,58,ACCORDING,HF,target,left,aqua,imageability,conservative,no,z,1,1.80019422786,1,171
2019_Oct_16,15,001,1,recog,59,VIVACIOUS,LF,target,right,yellow,pleasantness,conservative,no,m,0,1.23364827233,-1,170
2019_Oct_16,15,001,1,recog,60,JOCKEYS,LF,lure,-,-,-,conservative,no,m,1,2.45019547432,3,173
2019_Oct_16,15,001,1,recog,61,WEEKS,HF,target,right,yellow,pleasantness,conservative,no,z,1,1.1835288321,1,174
2019_Oct_16,15,001,1,recog,62,INJECT,LF,lure,-,-,-,liberal,no,m,1,0.833523846254,1,175
2019_Oct_16,15,001,1,recog,63,ARPEGGIO,LF,lure,-,-,-,liberal,no,m,1,0.966935804355,1,176
2019_Oct_16,15,001,1,recog,64,GEYSER,LF,target,left,aqua,imageability,liberal,yes,m,0,0.833614031331,-3,173
2019_Oct_16,15,001,1,recog,65,HERSELF,HF,lure,-,-,-,conservative,no,m,1,1.63350397621,3,176
2019_Oct_16,15,001,1,recog,66,RUGGER,LF,lure,-,-,-,liberal,no,z,0,0.71686101673,-1,175
2019_Oct_16,15,001,1,recog,67,FIELD,HF,target,left,aqua,imageability,liberal,no,z,1,0.566914027959,3,178
2019_Oct_16,15,001,1,recog,68,AROUND,HF,lure,-,-,-,liberal,no,z,0,0.783553981268,-1,177
2019_Oct_16,15,001,1,recog,69,TODAY,HF,lure,-,-,-,conservative,no,z,0,0.70029115849,-3,174
2019_Oct_16,15,001,1,recog,70,PRACTICE,HF,target,left,aqua,imageability,conservative,no,m,0,0.83366828902,-1,173
2019_Oct_16,15,001,1,recog,71,PLACE,HF,lure,-,-,-,liberal,no,z,0,0.400052937907,-1,172
2019_Oct_16,15,001,1,recog,72,MARKET,HF,lure,-,-,-,conservative,no,m,1,1.70023836722,3,175
2019_Oct_16,15,001,1,recog,73,KEENER,LF,lure,-,-,-,conservative,no,m,1,1.13359379468,3,178
2019_Oct_16,15,001,1,recog,74,MEMBERS,HF,target,right,yellow,pleasantness,liberal,no,m,0,1.91684532599,-3,175
2019_Oct_16,15,001,1,recog,75,EXCEPT,HF,lure,-,-,-,liberal,no,z,0,1.71688264648,-1,174
2019_Oct_16,15,001,1,recog,76,POACHED,LF,lure,-,-,-,conservative,no,z,0,1.36686629586,-3,171
2019_Oct_16,15,001,1,recog,77,SMALL,HF,target,right,yellow,pleasantness,liberal,yes,z,1,0.616909921971,3,174
2019_Oct_16,15,001,1,recog,78,EVADING,LF,target,right,yellow,pleasantness,liberal,no,z,1,0.950230301893,3,177
2019_Oct_16,15,001,1,recog,79,JINGLE,LF,target,right,yellow,pleasantness,conservative,no,z,1,1.65026520278,1,178
2019_Oct_16,15,001,1,recog,80,ANYONE,HF,target,right,yellow,pleasantness,liberal,no,m,0,1.25014700901,-3,175
2019_Oct_16,15,001,1,recog,81,AREAS,HF,target,right,yellow,pleasantness,conservative,no,z,1,0.950215637653,1,176
2019_Oct_16,15,001,1,recog,82,CITES,LF,lure,-,-,-,conservative,no,z,0,0.916921213437,-3,173
2019_Oct_16,15,001,1,recog,83,ZEBRA,LF,target,left,aqua,imageability,liberal,no,z,1,0.45030582273,3,176
2019_Oct_16,15,001,1,recog,84,AMPLIFY,LF,target,right,yellow,pleasantness,conservative,no,z,1,1.63352303972,1,177
2019_Oct_16,15,001,1,recog,85,DOING,HF,lure,-,-,-,liberal,no,m,1,0.933558893788,1,178
2019_Oct_16,15,001,1,recog,86,BASIC,HF,target,right,yellow,pleasantness,liberal,no,z,1,0.733678334024,3,181
2019_Oct_16,15,001,1,recog,87,SIBLINGS,LF,lure,-,-,-,conservative,no,m,1,1.90017575092,3,184
2019_Oct_16,15,001,1,recog,88,RAREFIED,LF,target,left,aqua,imageability,conservative,no,z,1,1.10026161005,1,185
2019_Oct_16,15,001,1,recog,89,TERMS,HF,lure,-,-,-,conservative,no,m,1,1.51687194159,3,188
2019_Oct_16,15,001,1,recog,90,UPROOTED,LF,target,left,aqua,imageability,liberal,no,z,1,0.933609852023,3,191
2019_Oct_16,15,001,1,recog,91,VEILING,LF,lure,-,-,-,liberal,no,m,1,0.833571138429,1,192
2019_Oct_16,15,001,1,recog,92,HANDS,HF,lure,-,-,-,liberal,no,z,0,0.616623969288,-1,191
2019_Oct_16,15,001,1,recog,93,UNDER,HF,lure,-,-,-,conservative,no,z,0,1.11684759895,-3,188
2019_Oct_16,15,001,1,recog,94,HUBBUB,LF,lure,-,-,-,conservative,no,m,1,0.733525092715,3,191
2019_Oct_16,15,001,1,recog,95,PSALMS,LF,lure,-,-,-,liberal,no,z,0,1.18354459615,-1,190
2019_Oct_16,15,001,2,source,0,PLODDED,LF,target,right,yellow,pleasantness,liberal,no,7,1,3.08322909503,-,-
2019_Oct_16,15,001,2,source,1,REWRITE,LF,target,left,aqua,imageability,conservative,no,None,-1,-1,-,-
2019_Oct_16,15,001,2,source,2,POLICE,HF,target,right,yellow,pleasantness,conservative,no,9,1,2.31662220958,-,-
2019_Oct_16,15,001,2,source,3,ROUND,HF,target,right,yellow,pleasantness,liberal,no,2,0,7.23328349936,-,-
2019_Oct_16,15,001,2,source,4,BUSINESS,HF,target,right,yellow,pleasantness,liberal,no,7,1,3.25012171319,-,-
2019_Oct_16,15,001,2,source,5,FIDDLED,LF,target,right,yellow,pleasantness,liberal,no,3,0,1.49999303449,-,-
2019_Oct_16,15,001,2,source,6,MATERIAL,HF,target,right,yellow,pleasantness,conservative,no,3,0,1.4168698886,-,-
2019_Oct_16,15,001,2,source,7,TABLE,HF,target,right,yellow,pleasantness,liberal,no,7,1,1.80030494288,-,-
2019_Oct_16,15,001,2,source,8,SPEAK,HF,target,left,aqua,imageability,conservative,no,8,0,1.80022282313,-,-
2019_Oct_16,15,001,2,source,9,SECOND,HF,target,left,aqua,imageability,liberal,no,2,1,2.44990842182,-,-
2019_Oct_16,15,001,2,source,10,GNARLED,LF,target,left,aqua,imageability,conservative,no,1,1,1.36692678585,-,-
2019_Oct_16,15,001,2,source,11,CUPID,LF,target,left,aqua,imageability,liberal,no,1,1,0.833587269093,-,-
2019_Oct_16,15,001,2,source,12,EMIGRATED,LF,target,left,aqua,imageability,conservative,no,1,1,0.883613591404,-,-
2019_Oct_16,15,001,2,source,13,CAMPANILE,LF,target,right,yellow,pleasantness,liberal,no,8,1,1.6835046361,-,-
2019_Oct_16,15,001,2,source,14,WHOLE,HF,target,left,aqua,imageability,liberal,no,1,1,1.21696146678,-,-
2019_Oct_16,15,001,2,source,15,PRIVATE,HF,target,left,aqua,imageability,liberal,no,1,1,1.55021439119,-,-
2019_Oct_16,15,001,2,source,16,CUDDLE,LF,target,left,aqua,imageability,liberal,no,1,1,0.966945336112,-,-
2019_Oct_16,15,001,2,source,17,HEDGED,LF,target,left,aqua,imageability,liberal,no,8,0,1.03360273987,-,-
2019_Oct_16,15,001,2,source,18,BLACK,HF,target,left,aqua,imageability,conservative,yes,3,1,1.50018733567,-,-
2019_Oct_16,15,001,2,source,19,SUCCESS,HF,target,right,yellow,pleasantness,liberal,no,7,1,2.49995307443,-,-
2019_Oct_16,15,001,2,source,20,SOYBEAN,LF,target,right,yellow,pleasantness,conservative,no,9,1,1.58357883716,-,-
2019_Oct_16,15,001,2,source,21,WONDROUS,LF,target,left,aqua,imageability,liberal,no,2,1,1.46691930709,-,-
2019_Oct_16,15,001,2,source,22,BENIGNLY,LF,target,left,aqua,imageability,conservative,yes,3,1,1.13358682917,-,-
2019_Oct_16,15,001,2,source,23,RAGES,LF,target,right,yellow,pleasantness,conservative,no,8,1,1.16688198659,-,-
2019_Oct_16,15,001,2,source,24,BRING,HF,target,right,yellow,pleasantness,conservative,no,2,0,0.800196060892,-,-
2019_Oct_16,15,001,2,source,25,CRYPT,LF,target,left,aqua,imageability,conservative,no,9,0,1.18354056349,-,-
2019_Oct_16,15,001,2,source,26,THEORY,HF,target,right,yellow,pleasantness,liberal,no,1,0,0.8834057258,-,-
2019_Oct_16,15,001,2,source,27,AHEAD,HF,target,right,yellow,pleasantness,conservative,no,1,0,1.58350881541,-,-
2019_Oct_16,15,001,2,source,28,CHIEF,HF,target,left,aqua,imageability,liberal,no,1,1,0.750288518927,-,-
2019_Oct_16,15,001,2,source,29,RALLIED,LF,target,right,yellow,pleasantness,conservative,no,1,0,0.616955381116,-,-
2019_Oct_16,15,001,2,source,30,FRUGAL,LF,target,left,aqua,imageability,liberal,no,2,1,3.20016577924,-,-
2019_Oct_16,15,001,2,source,31,OTHERS,HF,target,left,aqua,imageability,liberal,no,8,0,1.66685485775,-,-
2019_Oct_16,15,001,2,source,32,USUAL,HF,target,right,yellow,pleasantness,liberal,no,7,1,1.88353733735,-,-
2019_Oct_16,15,001,2,source,33,DULLED,LF,target,right,yellow,pleasantness,liberal,no,3,0,1.3502040529,-,-
2019_Oct_16,15,001,2,source,34,WITHIN,HF,target,left,aqua,imageability,conservative,yes,1,1,1.00033397807,-,-
2019_Oct_16,15,001,2,source,35,YORKER,LF,target,right,yellow,pleasantness,conservative,yes,1,0,0.566873701298,-,-
2019_Oct_16,15,001,2,source,36,URBANE,LF,target,right,yellow,pleasantness,conservative,no,8,1,1.03362473623,-,-
2019_Oct_16,15,001,2,source,37,VALUE,HF,target,left,aqua,imageability,conservative,no,2,1,2.25022033021,-,-
2019_Oct_16,15,001,2,source,38,MYTHIC,LF,target,right,yellow,pleasantness,liberal,no,9,1,1.53353711739,-,-
2019_Oct_16,15,001,2,source,39,ADDED,HF,target,left,aqua,imageability,liberal,no,8,0,1.38359086183,-,-
2019_Oct_16,15,001,2,source,40,ANGERS,LF,target,right,yellow,pleasantness,liberal,no,2,0,1.10025317811,-,-
2019_Oct_16,15,001,2,source,41,EUPHEMISM,LF,target,right,yellow,pleasantness,conservative,no,3,0,1.10027150841,-,-
2019_Oct_16,15,001,2,source,42,UNLESS,HF,target,left,aqua,imageability,conservative,no,8,0,2.0002258293,-,-
2019_Oct_16,15,001,2,source,43,NETTLE,LF,target,left,aqua,imageability,liberal,no,2,1,0.91696227331,-,-
2019_Oct_16,15,001,2,source,44,SPOKE,HF,target,right,yellow,pleasantness,conservative,no,3,0,2.06688103342,-,-
2019_Oct_16,15,001,2,source,45,LANGUAGE,HF,target,right,yellow,pleasantness,conservative,no,8,1,1.18357282482,-,-
2019_Oct_16,15,001,2,source,46,GREATER,HF,target,left,aqua,imageability,conservative,no,8,0,1.61690845555,-,-
2019_Oct_16,15,001,2,source,47,MYRIADS,LF,target,left,aqua,imageability,conservative,no,8,0,1.63352853881,-,-
2019_Oct_16,15,001,2,recog,0,FEELING,HF,lure,-,-,-,liberal,yes,m,1,1.0499159739,1,191
2019_Oct_16,15,001,2,recog,1,ECONOMIC,HF,lure,-,-,-,liberal,no,m,1,2.28354224988,1,192
2019_Oct_16,15,001,2,recog,2,AHEAD,HF,target,right,yellow,pleasantness,conservative,yes,z,1,1.00018880209,1,193
2019_Oct_16,15,001,2,recog,3,CAMPANILE,LF,target,right,yellow,pleasantness,liberal,no,z,1,0.883587195773,3,196
2019_Oct_16,15,001,2,recog,4,SPUDS,LF,lure,-,-,-,liberal,no,m,1,0.683639180504,1,197
2019_Oct_16,15,001,2,recog,5,UTTERANCE,LF,lure,-,-,-,conservative,no,m,1,1.15016731898,3,200
2019_Oct_16,15,001,2,recog,6,SLEEP,HF,lure,-,-,-,conservative,no,z,0,0.850178757088,-3,197
2019_Oct_16,15,001,2,recog,7,NETTLE,LF,target,left,aqua,imageability,liberal,no,z,1,0.583578470549,3,200
2019_Oct_16,15,001,2,recog,8,LOCAL,HF,lure,-,-,-,conservative,no,m,1,2.28344876534,3,203
2019_Oct_16,15,001,2,recog,9,DRUDGERY,LF,lure,-,-,-,liberal,no,m,1,0.766888438859,1,204
2019_Oct_16,15,001,2,recog,10,FAMILY,HF,lure,-,-,-,conservative,no,z,0,0.616781243263,-3,201
2019_Oct_16,15,001,2,recog,11,MATERIAL,HF,target,right,yellow,pleasantness,conservative,no,z,1,0.48364937215,1,202
2019_Oct_16,15,001,2,recog,12,PLIABLE,LF,lure,-,-,-,liberal,no,z,0,0.000276787533949,-1,201
2019_Oct_16,15,001,2,recog,13,FIDDLED,LF,target,right,yellow,pleasantness,liberal,no,z,1,1.35020075345,3,204
2019_Oct_16,15,001,2,recog,14,LOANED,LF,lure,-,-,-,conservative,no,m,1,0.750195034395,3,207
2019_Oct_16,15,001,2,recog,15,WEIRDLY,LF,lure,-,-,-,liberal,no,z,0,0.650309562112,-1,206
2019_Oct_16,15,001,2,recog,16,TOTAL,HF,lure,-,-,-,conservative,no,m,1,0.583584702851,3,209
2019_Oct_16,15,001,2,recog,17,SECOND,HF,target,left,aqua,imageability,liberal,no,z,1,0.583364739247,3,212
2019_Oct_16,15,001,2,recog,18,CRYPT,LF,target,left,aqua,imageability,conservative,no,z,1,1.75021703076,1,213
2019_Oct_16,15,001,2,recog,19,TELEPHONE,HF,lure,-,-,-,conservative,no,m,1,1.05027414797,3,216
2019_Oct_16,15,001,2,recog,20,CHIEF,HF,target,left,aqua,imageability,liberal,no,z,1,1.41682113,3,219
2019_Oct_16,15,001,2,recog,21,FASCINATE,LF,lure,-,-,-,conservative,no,m,1,2.30019752732,3,222
2019_Oct_16,15,001,2,recog,22,WHOLE,HF,target,left,aqua,imageability,liberal,no,z,1,1.78356717908,3,225
2019_Oct_16,15,001,2,recog,23,IDYLL,LF,lure,-,-,-,conservative,no,m,1,0.583597167455,3,228
2019_Oct_16,15,001,2,recog,24,FIVER,LF,lure,-,-,-,liberal,no,m,1,0.833517980558,1,229
2019_Oct_16,15,001,2,recog,25,BLACK,HF,target,left,aqua,imageability,conservative,no,z,1,0.800279280455,1,230
2019_Oct_16,15,001,2,recog,26,PRIVATE,HF,target,left,aqua,imageability,liberal,no,m,0,1.6335765642,-3,227
2019_Oct_16,15,001,2,recog,27,ROPED,LF,lure,-,-,-,conservative,no,m,1,1.31681431113,3,230
2019_Oct_16,15,001,2,recog,28,RAGES,LF,target,right,yellow,pleasantness,conservative,no,z,1,0.716871648305,1,231
2019_Oct_16,15,001,2,recog,29,TABLE,HF,target,right,yellow,pleasantness,liberal,no,z,1,1.01683931365,3,234
2019_Oct_16,15,001,2,recog,30,RALLIED,LF,target,right,yellow,pleasantness,conservative,no,m,0,0.983659637119,-1,233
2019_Oct_16,15,001,2,recog,31,YORKER,LF,target,right,yellow,pleasantness,conservative,no,m,0,0.750250758508,-1,232
2019_Oct_16,15,001,2,recog,32,AEROSOL,LF,lure,-,-,-,conservative,no,m,1,1.3835586005,3,235
2019_Oct_16,15,001,2,recog,33,POLICE,HF,target,right,yellow,pleasantness,conservative,no,z,1,1.19995828024,1,236
2019_Oct_16,15,001,2,recog,34,SOYBEAN,LF,target,right,yellow,pleasantness,conservative,no,z,1,0.600245845987,1,237
2019_Oct_16,15,001,2,recog,35,BUSINESS,HF,target,right,yellow,pleasantness,liberal,no,z,1,0.583583236427,3,240
2019_Oct_16,15,001,2,recog,36,WIZENED,LF,lure,-,-,-,conservative,no,m,1,0.600320633613,3,243
2019_Oct_16,15,001,2,recog,37,FRUGAL,LF,target,left,aqua,imageability,liberal,no,z,1,2.21694386969,3,246
2019_Oct_16,15,001,2,recog,38,OTHERS,HF,target,left,aqua,imageability,liberal,no,z,1,0.600216884113,3,249
2019_Oct_16,15,001,2,recog,39,GNARLED,LF,target,left,aqua,imageability,conservative,no,z,1,0.650262636543,1,250
2019_Oct_16,15,001,2,recog,40,GLOBULAR,LF,lure,-,-,-,liberal,no,m,1,0.65026190333,1,251
2019_Oct_16,15,001,2,recog,41,RECENT,HF,lure,-,-,-,conservative,no,z,0,0.333541076736,-3,248
2019_Oct_16,15,001,2,recog,42,BRING,HF,target,right,yellow,pleasantness,conservative,no,m,0,0.916850458478,-1,247
2019_Oct_16,15,001,2,recog,43,GREATER,HF,target,left,aqua,imageability,conservative,no,m,0,0.483534257864,-1,246
2019_Oct_16,15,001,2,recog,44,SUCCESS,HF,target,right,yellow,pleasantness,liberal,no,z,1,0.566936390926,3,249
2019_Oct_16,15,001,2,recog,45,BENIGNLY,LF,target,left,aqua,imageability,conservative,no,z,1,0.683613151476,1,250
2019_Oct_16,15,001,2,recog,46,VILLAGE,HF,lure,-,-,-,conservative,no,z,0,0.933561826636,-3,247
2019_Oct_16,15,001,2,recog,47,DULLED,LF,target,right,yellow,pleasantness,liberal,no,z,1,0.733366352314,3,250
2019_Oct_16,15,001,2,recog,48,CUPID,LF,target,left,aqua,imageability,liberal,no,z,1,0.566974151344,3,253
2019_Oct_16,15,001,2,recog,49,DOLPHIN,LF,lure,-,-,-,conservative,no,m,1,0.783364079357,3,256
2019_Oct_16,15,001,2,recog,50,LANGUAGE,HF,target,right,yellow,pleasantness,conservative,no,z,1,0.983581550039,1,257
2019_Oct_16,15,001,2,recog,51,REWRITE,LF,target,left,aqua,imageability,conservative,no,z,1,0.517016017749,1,258
2019_Oct_16,15,001,2,recog,52,TROUBLE,HF,lure,-,-,-,conservative,no,m,1,0.783520620121,3,261
2019_Oct_16,15,001,2,recog,53,PROBABLY,HF,lure,-,-,-,liberal,no,z,0,0.400257504059,-1,260
2019_Oct_16,15,001,2,recog,54,THEORY,HF,target,right,yellow,pleasantness,liberal,no,z,1,0.133645852733,3,263
2019_Oct_16,15,001,2,recog,55,SADDER,LF,lure,-,-,-,conservative,no,m,1,0.55025215161,3,266
2019_Oct_16,15,001,2,recog,56,ARBITER,LF,lure,-,-,-,liberal,no,m,1,0.650044505969,1,267
2019_Oct_16,15,001,2,recog,57,BEREAVED,LF,lure,-,-,-,liberal,no,m,1,1.18349803719,1,268
2019_Oct_16,15,001,2,recog,58,WINDOW,HF,lure,-,-,-,liberal,no,z,0,0.650314327989,-1,267
2019_Oct_16,15,001,2,recog,59,HOPPER,LF,lure,-,-,-,liberal,no,z,0,0.716914541207,-1,266
2019_Oct_16,15,001,2,recog,60,CARRIED,HF,lure,-,-,-,liberal,no,z,0,0.516756460697,-1,265
2019_Oct_16,15,001,2,recog,61,HARDLY,HF,lure,-,-,-,conservative,no,m,1,0.733579350403,3,268
2019_Oct_16,15,001,2,recog,62,EMIGRATED,LF,target,left,aqua,imageability,conservative,no,z,1,0.566918060625,1,269
2019_Oct_16,15,001,2,recog,63,DWINDLE,LF,lure,-,-,-,liberal,no,m,1,0.616913588031,1,270
2019_Oct_16,15,001,2,recog,64,EUPHEMISM,LF,target,right,yellow,pleasantness,conservative,no,z,1,0.61694035027,1,271
2019_Oct_16,15,001,2,recog,65,MYTHIC,LF,target,right,yellow,pleasantness,liberal,no,m,0,0.416673021171,-3,268
2019_Oct_16,15,001,2,recog,66,MAPPED,LF,lure,-,-,-,conservative,no,m,1,0.533536750786,3,271
2019_Oct_16,15,001,2,recog,67,DIFFERENT,HF,lure,-,-,-,conservative,no,z,0,0.266977890725,-3,268
2019_Oct_16,15,001,2,recog,68,VALUE,HF,target,left,aqua,imageability,conservative,yes,z,1,0.516925466066,1,269
2019_Oct_16,15,001,2,recog,69,STRAIGHT,HF,lure,-,-,-,liberal,yes,z,0,0.383686179393,-1,268
2019_Oct_16,15,001,2,recog,70,PLODDED,LF,target,right,yellow,pleasantness,liberal,no,z,1,0.433333431095,3,271
2019_Oct_16,15,001,2,recog,71,ADDED,HF,target,left,aqua,imageability,liberal,no,m,0,1.48333299117,-3,268
2019_Oct_16,15,001,2,recog,72,SPEAK,HF,target,left,aqua,imageability,conservative,no,z,1,1.33358030358,1,269
2019_Oct_16,15,001,2,recog,73,HOARD,LF,lure,-,-,-,conservative,no,m,1,1.1169055227,3,272
2019_Oct_16,15,001,2,recog,74,URBANE,LF,target,right,yellow,pleasantness,conservative,no,m,0,1.65015595419,-1,271
2019_Oct_16,15,001,2,recog,75,SEVEN,HF,lure,-,-,-,conservative,no,z,0,2.48353902374,-3,268
2019_Oct_16,15,001,2,recog,76,UNLESS,HF,target,left,aqua,imageability,conservative,no,z,1,0.666956407613,1,269
2019_Oct_16,15,001,2,recog,77,MYRIADS,LF,target,left,aqua,imageability,conservative,no,m,0,0.666926712527,-1,268
2019_Oct_16,15,001,2,recog,78,ROUND,HF,target,right,yellow,pleasantness,liberal,no,z,1,1.76692986534,3,271
2019_Oct_16,15,001,2,recog,79,LIGHT,HF,lure,-,-,-,liberal,no,z,0,0.9835181272,-1,270
2019_Oct_16,15,001,2,recog,80,WONDROUS,LF,target,left,aqua,imageability,liberal,no,z,1,0.466873114729,3,273
2019_Oct_16,15,001,2,recog,81,HEDGED,LF,target,left,aqua,imageability,liberal,no,z,1,0.433680606982,3,276
2019_Oct_16,15,001,2,recog,82,CUDDLE,LF,target,left,aqua,imageability,liberal,no,z,1,0.40032349314,3,279
2019_Oct_16,15,001,2,recog,83,SPOKE,HF,target,right,yellow,pleasantness,conservative,no,z,1,0.433389155208,1,280
2019_Oct_16,15,001,2,recog,84,GUARDSMEN,LF,lure,-,-,-,conservative,no,z,0,0.416964106339,-3,277
2019_Oct_16,15,001,2,recog,85,ANGERS,LF,target,right,yellow,pleasantness,liberal,no,z,1,2.06683484106,3,280
2019_Oct_16,15,001,2,recog,86,DOUBT,HF,lure,-,-,-,liberal,no,m,1,0.699987242111,1,281
2019_Oct_16,15,001,2,recog,87,SINCE,HF,lure,-,-,-,liberal,no,m,1,1.15033852398,1,282
2019_Oct_16,15,001,2,recog,88,PAPER,HF,lure,-,-,-,liberal,no,m,1,1.46688777897,1,283
2019_Oct_16,15,001,2,recog,89,WITHIN,HF,target,left,aqua,imageability,conservative,no,z,1,0.600047878745,1,284
2019_Oct_16,15,001,2,recog,90,DANDELION,LF,lure,-,-,-,liberal,no,m,1,1.33354730904,1,285
2019_Oct_16,15,001,2,recog,91,COUNCIL,HF,lure,-,-,-,conservative,no,m,1,0.666955674401,3,288
2019_Oct_16,15,001,2,recog,92,ROSEBUD,LF,lure,-,-,-,liberal,no,m,1,0.866854564464,1,289
2019_Oct_16,15,001,2,recog,93,USUAL,HF,target,right,yellow,pleasantness,liberal,no,m,0,0.433655311168,-3,286
2019_Oct_16,15,001,2,recog,94,SOCIAL,HF,lure,-,-,-,liberal,no,m,1,0.60029790404,1,287
2019_Oct_16,15,001,2,recog,95,GENERAL,HF,lure,-,-,-,liberal,no,z,0,0.43363221499,-1,286
2019_Oct_16,15,001,3,source,0,NIGHT,HF,target,right,yellow,pleasantness,liberal,no,3,0,4.36677317793,-,-
2019_Oct_16,15,001,3,source,1,STEADFAST,LF,target,right,yellow,pleasantness,liberal,no,3,0,2.30012273969,-,-
2019_Oct_16,15,001,3,source,2,NEARLY,HF,target,right,yellow,pleasantness,liberal,no,8,1,1.73357165168,-,-
2019_Oct_16,15,001,3,source,3,LARGE,HF,target,right,yellow,pleasantness,conservative,no,1,0,4.21668321282,-,-
2019_Oct_16,15,001,3,source,4,NORTH,HF,target,right,yellow,pleasantness,liberal,no,1,0,2.5502393204,-,-
2019_Oct_16,15,001,3,source,5,LAGER,LF,target,left,aqua,imageability,conservative,no,1,1,1.43333526413,-,-
2019_Oct_16,15,001,3,source,6,PIRACY,LF,target,right,yellow,pleasantness,conservative,no,9,1,1.45000007332,-,-
2019_Oct_16,15,001,3,source,7,PACIFISM,LF,target,right,yellow,pleasantness,conservative,no,8,1,1.43348117332,-,-
2019_Oct_16,15,001,3,source,8,VICEREGAL,LF,target,left,aqua,imageability,conservative,yes,7,0,0.95015624748,-,-
2019_Oct_16,15,001,3,source,9,TURNED,HF,target,right,yellow,pleasantness,conservative,no,2,0,1.60023264817,-,-
2019_Oct_16,15,001,3,source,10,EFFECT,HF,target,right,yellow,pleasantness,liberal,no,2,0,1.50004179308,-,-
2019_Oct_16,15,001,3,source,11,VINEYARDS,LF,target,right,yellow,pleasantness,liberal,no,1,0,1.28353198491,-,-
2019_Oct_16,15,001,3,source,12,UNFAILING,LF,target,right,yellow,pleasantness,liberal,no,7,1,2.63352303972,-,-
2019_Oct_16,15,001,3,source,13,SAPLINGS,LF,target,left,aqua,imageability,liberal,no,1,1,1.53358587599,-,-
2019_Oct_16,15,001,3,source,14,HUNDRED,HF,target,left,aqua,imageability,conservative,no,1,1,1.2332985302,-,-
2019_Oct_16,15,001,3,source,15,DIETING,LF,target,left,aqua,imageability,liberal,no,8,0,1.08330168301,-,-
2019_Oct_16,15,001,3,source,16,RAVAGES,LF,target,left,aqua,imageability,liberal,no,1,1,3.60015859376,-,-
2019_Oct_16,15,001,3,source,17,EVENING,HF,target,left,aqua,imageability,conservative,no,8,0,1.55020082677,-,-
2019_Oct_16,15,001,3,source,18,VOICE,HF,target,left,aqua,imageability,conservative,no,7,0,0.983599513734,-,-
2019_Oct_16,15,001,3,source,19,FUDGE,LF,target,right,yellow,pleasantness,conservative,no,2,0,1.60018425618,-,-
2019_Oct_16,15,001,3,source,20,CYNIC,LF,target,right,yellow,pleasantness,liberal,yes,3,0,0.800035854068,-,-
2019_Oct_16,15,001,3,source,21,GROUND,HF,target,left,aqua,imageability,conservative,no,1,1,4.2167066756,-,-
2019_Oct_16,15,001,3,source,22,FRONT,HF,target,right,yellow,pleasantness,liberal,no,7,1,1.61681680405,-,-
2019_Oct_16,15,001,3,source,23,DEGREE,HF,target,left,aqua,imageability,liberal,no,2,1,2.35015602752,-,-
2019_Oct_16,15,001,3,source,24,EDICT,LF,target,right,yellow,pleasantness,conservative,no,8,1,1.43358345639,-,-
2019_Oct_16,15,001,3,source,25,FONDLE,LF,target,left,aqua,imageability,liberal,no,1,1,1.3002514184,-,-
2019_Oct_16,15,001,3,source,26,RIVER,HF,target,right,yellow,pleasantness,conservative,no,9,1,4.34980811842,-,-
2019_Oct_16,15,001,3,source,27,SOAPY,LF,target,left,aqua,imageability,conservative,no,1,1,1.35025537774,-,-
2019_Oct_16,15,001,3,source,28,GAUCHE,LF,target,right,yellow,pleasantness,conservative,no,8,1,0.783345015845,-,-
2019_Oct_16,15,001,3,source,29,PULSAR,LF,target,right,yellow,pleasantness,conservative,no,2,0,0.833566005945,-,-
2019_Oct_16,15,001,3,source,30,JABBED,LF,target,left,aqua,imageability,conservative,no,1,1,0.916692451289,-,-
2019_Oct_16,15,001,3,source,31,QUICKLY,HF,target,right,yellow,pleasantness,conservative,no,8,1,1.30025838391,-,-
2019_Oct_16,15,001,3,source,32,BUZZARD,LF,target,left,aqua,imageability,liberal,no,8,0,1.20004663228,-,-
2019_Oct_16,15,001,3,source,33,MOVED,HF,target,right,yellow,pleasantness,conservative,no,2,0,0.766972758241,-,-
2019_Oct_16,15,001,3,source,34,MONEY,HF,target,left,aqua,imageability,liberal,no,1,1,2.21685221819,-,-
2019_Oct_16,15,001,3,source,35,PREPARED,HF,target,left,aqua,imageability,liberal,yes,8,0,1.20027796067,-,-
2019_Oct_16,15,001,3,source,36,MILES,HF,target,left,aqua,imageability,liberal,yes,8,0,0.533653698101,-,-
2019_Oct_16,15,001,3,source,37,EDUCATION,HF,target,right,yellow,pleasantness,conservative,no,9,1,1.08353044516,-,-
2019_Oct_16,15,001,3,source,38,SIMILAR,HF,target,left,aqua,imageability,liberal,no,1,1,1.15024283982,-,-
2019_Oct_16,15,001,3,source,39,ALERTING,LF,target,left,aqua,imageability,conservative,no,8,0,2.38353697075,-,-
2019_Oct_16,15,001,3,source,40,SEGMENTED,LF,target,right,yellow,pleasantness,liberal,no,7,1,0.800039886733,-,-
2019_Oct_16,15,001,3,source,41,BOMBARDED,LF,target,right,yellow,pleasantness,liberal,no,2,0,1.15026740242,-,-
2019_Oct_16,15,001,3,source,42,MOODILY,LF,target,left,aqua,imageability,liberal,no,9,0,0.883611758374,-,-
2019_Oct_16,15,001,3,source,43,ACTION,HF,target,left,aqua,imageability,conservative,no,9,0,0.850261243439,-,-
2019_Oct_16,15,001,3,source,44,COWARDS,LF,target,left,aqua,imageability,conservative,no,1,1,0.76695259491,-,-
2019_Oct_16,15,001,3,source,45,OUGHT,HF,target,right,yellow,pleasantness,liberal,no,3,0,1.71665315112,-,-
2019_Oct_16,15,001,3,source,46,GARDEN,HF,target,left,aqua,imageability,liberal,no,8,0,1.70014231645,-,-
2019_Oct_16,15,001,3,source,47,MEANS,HF,target,left,aqua,imageability,conservative,no,1,1,1.2835928415,-,-
2019_Oct_16,15,001,3,recog,0,STEADFAST,LF,target,right,yellow,pleasantness,liberal,no,z,1,0.866888292217,3,289
2019_Oct_16,15,001,3,recog,1,MOVED,HF,target,right,yellow,pleasantness,conservative,no,z,1,0.900279133813,1,290
2019_Oct_16,15,001,3,recog,2,GARDEN,HF,target,left,aqua,imageability,liberal,no,z,1,0.500310881893,3,293
2019_Oct_16,15,001,3,recog,3,THANK,HF,lure,-,-,-,liberal,yes,m,1,0.483605012824,1,294
2019_Oct_16,15,001,3,recog,4,MEANS,HF,target,left,aqua,imageability,conservative,no,z,1,0.633678114061,1,295
2019_Oct_16,15,001,3,recog,5,BEYOND,HF,lure,-,-,-,conservative,no,z,0,0.450048465314,-3,292
2019_Oct_16,15,001,3,recog,6,LEOPARDS,LF,lure,-,-,-,liberal,no,m,1,0.883565566018,1,293
2019_Oct_16,15,001,3,recog,7,STYLED,LF,lure,-,-,-,conservative,no,z,0,0.6836267159,-3,290
2019_Oct_16,15,001,3,recog,8,FONDLE,LF,target,left,aqua,imageability,liberal,no,z,1,0.616898557186,3,293
2019_Oct_16,15,001,3,recog,9,EVENING,HF,target,left,aqua,imageability,conservative,no,z,1,0.450247898981,1,294
2019_Oct_16,15,001,3,recog,10,BOMBARDED,LF,target,right,yellow,pleasantness,liberal,no,z,1,0.750259190446,3,297
2019_Oct_16,15,001,3,recog,11,QUICKLY,HF,target,right,yellow,pleasantness,conservative,no,m,0,0.566923926321,-1,296
2019_Oct_16,15,001,3,recog,12,CUBED,LF,lure,-,-,-,liberal,no,z,0,0.366927885666,-1,295
2019_Oct_16,15,001,3,recog,13,LUXURIANT,LF,lure,-,-,-,liberal,no,m,1,0.633694977938,1,296
2019_Oct_16,15,001,3,recog,14,HISTORY,HF,lure,-,-,-,conservative,no,z,0,0.666708948559,-3,293
2019_Oct_16,15,001,3,recog,15,BIDDER,LF,lure,-,-,-,liberal,no,m,1,1.00023316142,1,294
2019_Oct_16,15,001,3,recog,16,GAUCHE,LF,target,right,yellow,pleasantness,conservative,no,m,0,0.766926199278,-1,293
2019_Oct_16,15,001,3,recog,17,LAGER,LF,target,left,aqua,imageability,conservative,no,z,1,0.716954501261,1,294
2019_Oct_16,15,001,3,recog,18,SIMILAR,HF,target,left,aqua,imageability,liberal,no,z,1,0.400254204605,3,297
2019_Oct_16,15,001,3,recog,19,EDICT,LF,target,right,yellow,pleasantness,conservative,no,z,1,0.967004726284,1,298
2019_Oct_16,15,001,3,recog,20,FUDGE,LF,target,right,yellow,pleasantness,conservative,no,z,1,0.450306189336,1,299
2019_Oct_16,15,001,3,recog,21,UNION,HF,lure,-,-,-,conservative,no,m,1,0.766717233855,3,302
2019_Oct_16,15,001,3,recog,22,SLOWLY,HF,lure,-,-,-,conservative,no,m,1,1.00017890373,3,305
2019_Oct_16,15,001,3,recog,23,HOSPITAL,HF,lure,-,-,-,liberal,no,z,0,0.650284999509,-1,304
2019_Oct_16,15,001,3,recog,24,ORDER,HF,lure,-,-,-,liberal,no,z,0,0.433620850204,-1,303
2019_Oct_16,15,001,3,recog,25,ASKED,HF,lure,-,-,-,liberal,no,z,0,0.433616084325,-1,302
2019_Oct_16,15,001,3,recog,26,ULCER,LF,lure,-,-,-,liberal,no,z,0,0.383536604144,-1,301
2019_Oct_16,15,001,3,recog,27,BUTCHERED,LF,lure,-,-,-,liberal,no,z,0,0.933506469129,-1,300
2019_Oct_16,15,001,3,recog,28,PERHAPS,HF,lure,-,-,-,conservative,no,z,0,0.766905302736,-3,297
2019_Oct_16,15,001,3,recog,29,ZIPPED,LF,lure,-,-,-,conservative,yes,m,1,0.700242033285,3,300
2019_Oct_16,15,001,3,recog,30,MONEY,HF,target,left,aqua,imageability,liberal,no,z,1,0.433535064398,3,303
2019_Oct_16,15,001,3,recog,31,RAVAGES,LF,target,left,aqua,imageability,liberal,no,z,1,1.45024826559,3,306
2019_Oct_16,15,001,3,recog,32,RIVER,HF,target,right,yellow,pleasantness,conservative,no,z,1,0.63358462953,1,307
2019_Oct_16,15,001,3,recog,33,SOAPY,LF,target,left,aqua,imageability,conservative,no,z,1,0.53354554933,1,308
2019_Oct_16,15,001,3,recog,34,HUNDRED,HF,target,left,aqua,imageability,conservative,no,z,1,0.483640940212,1,309
2019_Oct_16,15,001,3,recog,35,FRONT,HF,target,right,yellow,pleasantness,liberal,no,z,1,0.766953328122,3,312
2019_Oct_16,15,001,3,recog,36,MAILBOX,LF,lure,-,-,-,conservative,no,m,1,0.70030948879,3,315
2019_Oct_16,15,001,3,recog,37,DAGGERS,LF,lure,-,-,-,conservative,no,m,1,0.883618723889,3,318
2019_Oct_16,15,001,3,recog,38,BEHIND,HF,lure,-,-,-,conservative,no,z,0,1.05020962531,-3,315
2019_Oct_16,15,001,3,recog,39,SEGMENTED,LF,target,right,yellow,pleasantness,liberal,no,m,0,0.833617330785,-3,312
2019_Oct_16,15,001,3,recog,40,EFFECT,HF,target,right,yellow,pleasantness,liberal,yes,m,0,0.71694276987,-3,309
2019_Oct_16,15,001,3,recog,41,SLIGHTLY,HF,lure,-,-,-,conservative,no,z,0,1.06686893542,-3,306
2019_Oct_16,15,001,3,recog,42,MUSIC,HF,lure,-,-,-,liberal,no,z,0,0.567007879096,-1,305
2019_Oct_16,15,001,3,recog,43,MORNING,HF,lure,-,-,-,conservative,no,m,1,0.750294384622,3,308
2019_Oct_16,15,001,3,recog,44,UNFAILING,LF,target,right,yellow,pleasantness,liberal,no,z,1,0.683613884689,3,311
2019_Oct_16,15,001,3,recog,45,VICEREGAL,LF,target,left,aqua,imageability,conservative,no,z,1,0.850211751628,1,312
2019_Oct_16,15,001,3,recog,46,ALERTING,LF,target,left,aqua,imageability,conservative,no,z,1,0.800308975541,1,313
2019_Oct_16,15,001,3,recog,47,CIVILITY,LF,lure,-,-,-,conservative,no,m,1,1.28334134978,3,316
2019_Oct_16,15,001,3,recog,48,NIGHT,HF,target,right,yellow,pleasantness,liberal,no,z,1,0.500230595178,3,319
2019_Oct_16,15,001,3,recog,49,CYNIC,LF,target,right,yellow,pleasantness,liberal,yes,z,1,0.466941670052,3,322
2019_Oct_16,15,001,3,recog,50,VOICE,HF,target,left,aqua,imageability,conservative,no,m,0,0.750247825659,-1,321
2019_Oct_16,15,001,3,recog,51,ACTION,HF,target,left,aqua,imageability,conservative,no,z,1,0.283873661705,1,322
2019_Oct_16,15,001,3,recog,52,CHURCH,HF,lure,-,-,-,liberal,no,z,0,0.516661876348,-1,321
2019_Oct_16,15,001,3,recog,53,TAGGED,LF,lure,-,-,-,liberal,no,z,0,0.416966305975,-1,320
2019_Oct_16,15,001,3,recog,54,VINEYARDS,LF,target,right,yellow,pleasantness,liberal,no,z,1,0.716855151034,3,323
2019_Oct_16,15,001,3,recog,55,LOOKED,HF,lure,-,-,-,liberal,no,z,0,0.733537923925,-1,322
2019_Oct_16,15,001,3,recog,56,EVOCATION,LF,lure,-,-,-,conservative,no,m,1,0.500243426388,3,325
2019_Oct_16,15,001,3,recog,57,TUSKS,LF,lure,-,-,-,liberal,no,z,0,0.63359746074,-1,324
2019_Oct_16,15,001,3,recog,58,POUNDS,HF,lure,-,-,-,conservative,no,z,0,0.533585142778,-3,321
2019_Oct_16,15,001,3,recog,59,MOODILY,LF,target,left,aqua,imageability,liberal,no,m,0,0.4835668858,-3,318
2019_Oct_16,15,001,3,recog,60,NEARLY,HF,target,right,yellow,pleasantness,liberal,no,z,1,0.400236974122,3,321
2019_Oct_16,15,001,3,recog,61,CHAIR,HF,lure,-,-,-,conservative,no,z,0,0.550297977361,-3,318
2019_Oct_16,15,001,3,recog,62,DIETING,LF,target,left,aqua,imageability,liberal,no,z,1,0.600219083749,3,321
2019_Oct_16,15,001,3,recog,63,PULSAR,LF,target,right,yellow,pleasantness,conservative,no,z,1,0.700356780965,1,322
2019_Oct_16,15,001,3,recog,64,POSITION,HF,lure,-,-,-,liberal,no,z,0,0.35028873889,-1,321
2019_Oct_16,15,001,3,recog,65,SITTING,HF,lure,-,-,-,liberal,no,z,0,0.200278693886,-1,320
2019_Oct_16,15,001,3,recog,66,LARGE,HF,target,right,yellow,pleasantness,conservative,no,z,1,1.21685661746,1,321
2019_Oct_16,15,001,3,recog,67,NORTH,HF,target,right,yellow,pleasantness,liberal,no,z,1,1.11685896374,3,324
2019_Oct_16,15,001,3,recog,68,MILES,HF,target,left,aqua,imageability,liberal,no,m,0,1.01693463122,-3,321
2019_Oct_16,15,001,3,recog,69,SAPLINGS,LF,target,left,aqua,imageability,liberal,no,z,1,0.90022157667,3,324
2019_Oct_16,15,001,3,recog,70,JABBED,LF,target,left,aqua,imageability,conservative,no,z,1,0.683527365672,1,325
2019_Oct_16,15,001,3,recog,71,NAIVELY,LF,lure,-,-,-,liberal,no,m,1,0.950024269318,1,326
2019_Oct_16,15,001,3,recog,72,SMUDGE,LF,lure,-,-,-,liberal,no,m,1,0.816934191289,1,327
2019_Oct_16,15,001,3,recog,73,PIECE,HF,lure,-,-,-,liberal,no,z,0,0.866898190579,-1,326
2019_Oct_16,15,001,3,recog,74,TURNED,HF,target,right,yellow,pleasantness,conservative,no,z,1,1.1333631995,1,327
2019_Oct_16,15,001,3,recog,75,WELCOMES,LF,lure,-,-,-,conservative,no,z,0,0.983509328657,-3,324
2019_Oct_16,15,001,3,recog,76,CLEAR,HF,lure,-,-,-,liberal,no,z,0,0.550241886643,-1,323
2019_Oct_16,15,001,3,recog,77,PACIFISM,LF,target,right,yellow,pleasantness,conservative,no,z,1,0.733605012824,1,324
2019_Oct_16,15,001,3,recog,78,PIRACY,LF,target,right,yellow,pleasantness,conservative,no,z,1,0.55025398464,1,325
2019_Oct_16,15,001,3,recog,79,MIDDLE,HF,lure,-,-,-,conservative,no,z,0,0.533586975809,-3,322
2019_Oct_16,15,001,3,recog,80,SLYLY,LF,lure,-,-,-,conservative,no,m,1,0.850282873194,3,325
2019_Oct_16,15,001,3,recog,81,SUPPORT,HF,lure,-,-,-,liberal,no,z,0,0.533644166345,-1,324
2019_Oct_16,15,001,3,recog,82,EDUCATION,HF,target,right,yellow,pleasantness,conservative,no,m,0,0.566857570634,-1,323
2019_Oct_16,15,001,3,recog,83,SHUNNED,LF,lure,-,-,-,conservative,no,m,1,0.500350108736,3,326
2019_Oct_16,15,001,3,recog,84,LEECH,LF,lure,-,-,-,liberal,no,z,0,0.416878320533,-1,325
2019_Oct_16,15,001,3,recog,85,GROUND,HF,target,left,aqua,imageability,conservative,no,m,0,0.533638667255,-1,324
2019_Oct_16,15,001,3,recog,86,COWARDS,LF,target,left,aqua,imageability,conservative,no,z,1,0.933567692333,1,325
2019_Oct_16,15,001,3,recog,87,BUZZARD,LF,target,left,aqua,imageability,liberal,no,z,1,0.633597094134,3,328
2019_Oct_16,15,001,3,recog,88,PIVOT,LF,lure,-,-,-,liberal,no,z,0,1.48359841392,-1,327
2019_Oct_16,15,001,3,recog,89,CHOICE,HF,lure,-,-,-,conservative,no,m,1,1.20025596431,3,330
2019_Oct_16,15,001,3,recog,90,FILAMENTS,LF,lure,-,-,-,conservative,no,m,1,1.13355053517,3,333
2019_Oct_16,15,001,3,recog,91,DEGREE,HF,target,left,aqua,imageability,liberal,no,z,1,1.51692253322,3,336
2019_Oct_16,15,001,3,recog,92,PREPARED,HF,target,left,aqua,imageability,liberal,no,z,1,1.01695112849,3,339
2019_Oct_16,15,001,3,recog,93,GIPSY,LF,lure,-,-,-,conservative,no,m,1,1.00021226488,3,342
2019_Oct_16,15,001,3,recog,94,PEACEABLY,LF,lure,-,-,-,conservative,no,m,1,0.516911168432,3,345
2019_Oct_16,15,001,3,recog,95,OUGHT,HF,target,right,yellow,pleasantness,liberal,no,m,0,0.650270701874,-3,342
2019_Oct_16,15,001,4,source,0,RUNNING,HF,target,left,aqua,imageability,conservative,no,7,0,2.11690002361,-,-
2019_Oct_16,15,001,4,source,1,EITHER,HF,target,right,yellow,pleasantness,liberal,no,9,1,1.76660248618,-,-
2019_Oct_16,15,001,4,source,2,PHYSICAL,HF,target,right,yellow,pleasantness,conservative,no,1,0,0.950225536015,-,-
2019_Oct_16,15,001,4,source,3,SNEAKED,LF,target,left,aqua,imageability,liberal,no,1,1,0.816899730325,-,-
2019_Oct_16,15,001,4,source,4,FERRET,LF,target,right,yellow,pleasantness,conservative,no,9,1,1.56696241995,-,-
2019_Oct_16,15,001,4,source,5,TOYED,LF,target,left,aqua,imageability,liberal,no,2,1,0.866856030888,-,-
2019_Oct_16,15,001,4,source,6,DRINK,HF,target,right,yellow,pleasantness,conservative,yes,9,1,0.816907062444,-,-
2019_Oct_16,15,001,4,source,7,CUFFED,LF,target,right,yellow,pleasantness,liberal,no,9,1,0.483585949311,-,-
2019_Oct_16,15,001,4,source,8,SYRINGE,LF,target,left,aqua,imageability,liberal,no,1,1,1.15001371107,-,-
2019_Oct_16,15,001,4,source,9,SCHOOL,HF,target,right,yellow,pleasantness,liberal,no,8,1,1.06664933842,-,-
2019_Oct_16,15,001,4,source,10,INMATE,LF,target,right,yellow,pleasantness,conservative,no,3,0,2.00024159336,-,-
2019_Oct_16,15,001,4,source,11,WAITING,HF,target,left,aqua,imageability,conservative,no,7,0,3.06682897537,-,-
2019_Oct_16,15,001,4,source,12,ROADWAY,LF,target,right,yellow,pleasantness,liberal,no,2,0,2.05016379956,-,-
2019_Oct_16,15,001,4,source,13,OPENED,HF,target,left,aqua,imageability,liberal,no,3,1,1.20018557596,-,-
2019_Oct_16,15,001,4,source,14,CANNOT,HF,target,left,aqua,imageability,liberal,yes,7,0,1.55028954542,-,-
2019_Oct_16,15,001,4,source,15,HASSLE,LF,target,left,aqua,imageability,conservative,yes,3,1,1.21693140508,-,-
2019_Oct_16,15,001,4,source,16,BACHELORS,LF,target,left,aqua,imageability,liberal,no,1,1,2.73342794212,-,-
2019_Oct_16,15,001,4,source,17,AUSPICES,LF,target,right,yellow,pleasantness,conservative,no,1,0,1.18356952536,-,-
2019_Oct_16,15,001,4,source,18,PEDALLING,LF,target,left,aqua,imageability,conservative,no,8,0,0.716957067503,-,-
2019_Oct_16,15,001,4,source,19,WHETHER,HF,target,right,yellow,pleasantness,liberal,no,3,0,1.23361344476,-,-
2019_Oct_16,15,001,4,source,20,CALLED,HF,target,left,aqua,imageability,liberal,no,9,0,4.03319470738,-,-
2019_Oct_16,15,001,4,source,21,UNZIPPED,LF,target,left,aqua,imageability,conservative,no,1,1,2.5002808202,-,-
2019_Oct_16,15,001,4,source,22,QUESTION,HF,target,left,aqua,imageability,liberal,yes,2,1,0.816664369268,-,-
2019_Oct_16,15,001,4,source,23,HYACINTHS,LF,target,right,yellow,pleasantness,conservative,no,8,1,0.766989988723,-,-
2019_Oct_16,15,001,4,source,24,WHITE,HF,target,right,yellow,pleasantness,conservative,no,1,0,0.983355720739,-,-
2019_Oct_16,15,001,4,source,25,TRIED,HF,target,left,aqua,imageability,conservative,no,7,0,1.10001855026,-,-
2019_Oct_16,15,001,4,source,26,MUNCH,LF,target,left,aqua,imageability,liberal,no,1,1,0.816858303847,-,-
2019_Oct_16,15,001,4,source,27,LEVEL,HF,target,left,aqua,imageability,liberal,no,2,1,0.416921580043,-,-
2019_Oct_16,15,001,4,source,28,PICTURE,HF,target,right,yellow,pleasantness,liberal,no,8,1,0.916883086412,-,-
2019_Oct_16,15,001,4,source,29,ENDEARING,LF,target,right,yellow,pleasantness,liberal,no,3,0,0.966847818914,-,-
2019_Oct_16,15,001,4,source,30,MODERN,HF,target,left,aqua,imageability,liberal,no,7,0,1.3500082853,-,-
2019_Oct_16,15,001,4,source,31,TOLERABLY,LF,target,left,aqua,imageability,conservative,no,1,1,0.650194814431,-,-
2019_Oct_16,15,001,4,source,32,BILATERAL,LF,target,right,yellow,pleasantness,liberal,no,1,0,1.10001965008,-,-
2019_Oct_16,15,001,4,source,33,GURGLE,LF,target,left,aqua,imageability,liberal,no,8,0,1.40010389614,-,-
2019_Oct_16,15,001,4,source,34,EIGHT,HF,target,left,aqua,imageability,conservative,no,1,1,1.08352934534,-,-
2019_Oct_16,15,001,4,source,35,AMBIENCE,LF,target,right,yellow,pleasantness,conservative,no,7,1,1.28354444951,-,-
2019_Oct_16,15,001,4,source,36,STUDENT,HF,target,right,yellow,pleasantness,liberal,no,1,0,0.900012611247,-,-
2019_Oct_16,15,001,4,source,37,MITIGATE,LF,target,right,yellow,pleasantness,conservative,no,8,1,1.40020141334,-,-
2019_Oct_16,15,001,4,source,38,BETTER,HF,target,right,yellow,pleasantness,conservative,no,9,1,2.23354378962,-,-
2019_Oct_16,15,001,4,source,39,WRITE,HF,target,right,yellow,pleasantness,liberal,no,7,1,2.93340821872,-,-
2019_Oct_16,15,001,4,source,40,ADVERSELY,LF,target,left,aqua,imageability,conservative,no,2,1,0.866944382936,-,-
2019_Oct_16,15,001,4,source,41,THING,HF,target,right,yellow,pleasantness,conservative,no,3,0,0.466913807994,-,-
2019_Oct_16,15,001,4,source,42,POWER,HF,target,left,aqua,imageability,conservative,no,1,1,0.733600980157,-,-
2019_Oct_16,15,001,4,source,43,PATCHY,LF,target,right,yellow,pleasantness,liberal,no,8,1,1.35024217993,-,-
2019_Oct_16,15,001,4,source,44,THWART,LF,target,left,aqua,imageability,conservative,no,7,0,1.26687597426,-,-
2019_Oct_16,15,001,4,source,45,DOCTOR,HF,target,right,yellow,pleasantness,conservative,no,2,0,1.23354415623,-,-
2019_Oct_16,15,001,4,source,46,WRONG,HF,target,left,aqua,imageability,conservative,no,2,1,1.86687912707,-,-
2019_Oct_16,15,001,4,source,47,RAFTERS,LF,target,right,yellow,pleasantness,liberal,no,9,1,1.06666546909,-,-
2019_Oct_16,15,001,4,recog,0,PICTURE,HF,target,right,yellow,pleasantness,liberal,no,z,1,0.683574291241,3,345
2019_Oct_16,15,001,4,recog,1,CREAK,LF,lure,-,-,-,liberal,no,z,0,0.616961613418,-1,344
2019_Oct_16,15,001,4,recog,2,ROADWAY,LF,target,right,yellow,pleasantness,liberal,no,m,0,0.700288958854,-3,341
2019_Oct_16,15,001,4,recog,3,WHITE,HF,target,right,yellow,pleasantness,conservative,no,z,1,0.550196427498,1,342
2019_Oct_16,15,001,4,recog,4,GYMKHANA,LF,lure,-,-,-,liberal,no,m,1,0.733599147128,1,343
2019_Oct_16,15,001,4,recog,5,WRONG,HF,target,left,aqua,imageability,conservative,no,z,1,0.733515927564,1,344
2019_Oct_16,15,001,4,recog,6,TIMES,HF,lure,-,-,-,liberal,no,m,1,1.03360567271,1,345
2019_Oct_16,15,001,4,recog,7,WAITING,HF,target,left,aqua,imageability,conservative,no,m,0,0.800279280455,-1,344
2019_Oct_16,15,001,4,recog,8,IMPORTANT,HF,lure,-,-,-,conservative,no,z,0,0.433594087965,-3,341
2019_Oct_16,15,001,4,recog,9,OPENED,HF,target,left,aqua,imageability,liberal,no,z,1,0.767009785448,3,344
2019_Oct_16,15,001,4,recog,10,SWIFTNESS,LF,lure,-,-,-,liberal,no,m,1,0.966898777149,1,345
2019_Oct_16,15,001,4,recog,11,ADVERSELY,LF,target,left,aqua,imageability,conservative,yes,z,1,0.616867029069,1,346
2019_Oct_16,15,001,4,recog,12,ONCOMING,LF,lure,-,-,-,conservative,no,z,0,0.600300470282,-3,343
2019_Oct_16,15,001,4,recog,13,PEDALLING,LF,target,left,aqua,imageability,conservative,no,m,0,0.533556180904,-1,342
2019_Oct_16,15,001,4,recog,14,SNEAKED,LF,target,left,aqua,imageability,liberal,no,z,1,0.600199653631,3,345
2019_Oct_16,15,001,4,recog,15,EGOISM,LF,lure,-,-,-,conservative,no,m,1,0.58339296791,3,348
2019_Oct_16,15,001,4,recog,16,SYRINGE,LF,target,left,aqua,imageability,liberal,no,z,1,0.61691102179,3,351
2019_Oct_16,15,001,4,recog,17,EXECUTING,LF,lure,-,-,-,conservative,no,m,1,1.35017032515,3,354
2019_Oct_16,15,001,4,recog,18,TYCOONS,LF,lure,-,-,-,conservative,no,m,1,0.716911241753,3,357
2019_Oct_16,15,001,4,recog,19,LABOUR,HF,lure,-,-,-,liberal,no,z,0,0.383673348183,-1,356
2019_Oct_16,15,001,4,recog,20,MODERN,HF,target,left,aqua,imageability,liberal,no,z,1,0.417015064574,3,359
2019_Oct_16,15,001,4,recog,21,AMBIENCE,LF,target,right,yellow,pleasantness,conservative,no,z,1,0.883513507964,1,360
2019_Oct_16,15,001,4,recog,22,THWART,LF,target,left,aqua,imageability,conservative,no,z,1,0.533546282541,1,361
2019_Oct_16,15,001,4,recog,23,WHATEVER,HF,lure,-,-,-,liberal,no,z,0,2.65019701407,-1,360
2019_Oct_16,15,001,4,recog,24,OFFER,HF,lure,-,-,-,liberal,no,z,0,0.63356080014,-1,359
2019_Oct_16,15,001,4,recog,25,OUTSIDE,HF,lure,-,-,-,conservative,no,z,0,0.400305896051,-3,356
2019_Oct_16,15,001,4,recog,26,ENDEARING,LF,target,right,yellow,pleasantness,liberal,no,z,1,0.300253618035,3,359
2019_Oct_16,15,001,4,recog,27,POWER,HF,target,left,aqua,imageability,conservative,no,m,0,0.350267842348,-1,358
2019_Oct_16,15,001,4,recog,28,BACHELORS,LF,target,left,aqua,imageability,liberal,no,z,1,0.383564832806,3,361
2019_Oct_16,15,001,4,recog,29,THING,HF,target,right,yellow,pleasantness,conservative,no,z,1,0.666900316894,1,362
2019_Oct_16,15,001,4,recog,30,HYPNOSIS,LF,lure,-,-,-,liberal,no,m,1,1.08358983534,1,363
2019_Oct_16,15,001,4,recog,31,WHETHER,HF,target,right,yellow,pleasantness,liberal,no,z,1,1.01687560765,3,366
2019_Oct_16,15,001,4,recog,32,CUFFED,LF,target,right,yellow,pleasantness,liberal,no,z,1,0.600219450355,3,369
2019_Oct_16,15,001,4,recog,33,HYACINTHS,LF,target,right,yellow,pleasantness,conservative,no,z,1,0.983554787801,1,370
2019_Oct_16,15,001,4,recog,34,DOCTOR,HF,target,right,yellow,pleasantness,conservative,no,z,1,0.750210798454,1,371
2019_Oct_16,15,001,4,recog,35,BILATERAL,LF,target,right,yellow,pleasantness,liberal,no,m,0,0.900186382493,-3,368
2019_Oct_16,15,001,4,recog,36,BOUGH,LF,lure,-,-,-,conservative,no,m,1,1.15022084346,3,371
2019_Oct_16,15,001,4,recog,37,ACORNS,LF,lure,-,-,-,liberal,no,m,1,2.20015698069,1,372
2019_Oct_16,15,001,4,recog,38,SCHOOL,HF,target,right,yellow,pleasantness,liberal,no,z,1,0.650339257198,3,375
2019_Oct_16,15,001,4,recog,39,TOYED,LF,target,left,aqua,imageability,liberal,no,z,1,1.18358528942,3,378
2019_Oct_16,15,001,4,recog,40,BOOKS,HF,lure,-,-,-,conservative,no,m,1,1.0002866859,3,381
2019_Oct_16,15,001,4,recog,41,AUSPICES,LF,target,right,yellow,pleasantness,conservative,no,z,1,0.966892178241,1,382
2019_Oct_16,15,001,4,recog,42,UNTIL,HF,lure,-,-,-,conservative,no,z,0,1.15026923545,-3,379
2019_Oct_16,15,001,4,recog,43,QUESTION,HF,target,left,aqua,imageability,liberal,no,z,1,0.633561166745,3,382
2019_Oct_16,15,001,4,recog,44,WATCH,HF,lure,-,-,-,liberal,no,z,0,1.01699878727,-1,381
2019_Oct_16,15,001,4,recog,45,EIGHT,HF,target,left,aqua,imageability,conservative,no,z,1,0.600233747989,1,382
2019_Oct_16,15,001,4,recog,46,PETERED,LF,lure,-,-,-,liberal,no,m,1,0.933409685143,1,383
2019_Oct_16,15,001,4,recog,47,SPLASHES,LF,lure,-,-,-,liberal,no,m,1,0.833617697392,1,384
2019_Oct_16,15,001,4,recog,48,LETTER,HF,lure,-,-,-,liberal,no,m,1,0.966994461317,1,385
2019_Oct_16,15,001,4,recog,49,INMATE,LF,target,right,yellow,pleasantness,conservative,no,m,0,0.883524872751,-1,384
2019_Oct_16,15,001,4,recog,50,RAFTERS,LF,target,right,yellow,pleasantness,liberal,no,z,1,0.716874214547,3,387
2019_Oct_16,15,001,4,recog,51,LITANY,LF,lure,-,-,-,conservative,no,m,1,1.1333261723,3,390
2019_Oct_16,15,001,4,recog,52,GURGLE,LF,target,left,aqua,imageability,liberal,no,z,1,1.36694291651,3,393
2019_Oct_16,15,001,4,recog,53,STUDENT,HF,target,right,yellow,pleasantness,liberal,no,z,1,0.683570991787,3,396
2019_Oct_16,15,001,4,recog,54,KILOWATT,LF,lure,-,-,-,conservative,no,m,1,0.816873334692,3,399
2019_Oct_16,15,001,4,recog,55,FERRET,LF,target,right,yellow,pleasantness,conservative,no,z,1,0.916877587321,1,400
2019_Oct_16,15,001,4,recog,56,PATCHY,LF,target,right,yellow,pleasantness,liberal,no,z,1,1.21694130345,3,403
2019_Oct_16,15,001,4,recog,57,GUESSWORK,LF,lure,-,-,-,conservative,no,z,0,1.416613631,-3,400
2019_Oct_16,15,001,4,recog,58,ECHELONS,LF,lure,-,-,-,conservative,no,m,1,0.766962493273,3,403
2019_Oct_16,15,001,4,recog,59,TRIED,HF,target,left,aqua,imageability,conservative,no,z,1,0.833623196481,1,404
2019_Oct_16,15,001,4,recog,60,VANDALS,LF,lure,-,-,-,conservative,no,m,1,0.733565785981,3,407
2019_Oct_16,15,001,4,recog,61,SLACKEN,LF,lure,-,-,-,liberal,no,m,1,1.41686072345,1,408
2019_Oct_16,15,001,4,recog,62,MUNCH,LF,target,left,aqua,imageability,liberal,yes,m,0,0.766855810925,-3,405
2019_Oct_16,15,001,4,recog,63,EITHER,HF,target,right,yellow,pleasantness,liberal,no,z,1,3.0667395235,3,408
2019_Oct_16,15,001,4,recog,64,ENSCONCED,LF,lure,-,-,-,liberal,no,m,1,0.800278913849,1,409
2019_Oct_16,15,001,4,recog,65,HIGHER,HF,lure,-,-,-,conservative,no,z,0,1.18350866877,-3,406
2019_Oct_16,15,001,4,recog,66,EYEBALL,LF,lure,-,-,-,conservative,no,m,1,0.86691835391,3,409
2019_Oct_16,15,001,4,recog,67,CLICKS,LF,lure,-,-,-,conservative,no,m,1,0.650065402512,3,412
2019_Oct_16,15,001,4,recog,68,UNZIPPED,LF,target,left,aqua,imageability,conservative,no,z,1,0.633580963469,1,413
2019_Oct_16,15,001,4,recog,69,REIGNING,LF,lure,-,-,-,liberal,no,m,1,0.716657183791,1,414
2019_Oct_16,15,001,4,recog,70,MERELY,HF,lure,-,-,-,liberal,no,m,1,0.783597607382,1,415
2019_Oct_16,15,001,4,recog,71,BETTER,HF,target,right,yellow,pleasantness,conservative,no,z,1,0.700298124004,1,416
2019_Oct_16,15,001,4,recog,72,DRINK,HF,target,right,yellow,pleasantness,conservative,no,m,0,0.500090185077,-1,415
2019_Oct_16,15,001,4,recog,73,TRUTH,HF,lure,-,-,-,conservative,no,m,1,0.883568865472,3,418
2019_Oct_16,15,001,4,recog,74,SNUBBED,LF,lure,-,-,-,liberal,no,z,0,0.716903909633,-1,417
2019_Oct_16,15,001,4,recog,75,PHYSICAL,HF,target,right,yellow,pleasantness,conservative,no,m,0,0.383589028802,-1,416
2019_Oct_16,15,001,4,recog,76,PASSED,HF,lure,-,-,-,conservative,no,m,1,0.633623123161,3,419
2019_Oct_16,15,001,4,recog,77,FOLLOWED,HF,lure,-,-,-,liberal,no,m,1,0.616959047176,1,420
2019_Oct_16,15,001,4,recog,78,CANNOT,HF,target,left,aqua,imageability,liberal,no,z,1,0.450216370864,3,423
2019_Oct_16,15,001,4,recog,79,CALLED,HF,target,left,aqua,imageability,liberal,no,m,0,0.566946655893,-3,420
2019_Oct_16,15,001,4,recog,80,HUMAN,HF,lure,-,-,-,conservative,no,m,1,0.200273928007,3,423
2019_Oct_16,15,001,4,recog,81,LEVEL,HF,target,left,aqua,imageability,liberal,yes,z,1,0.850283973012,3,426
2019_Oct_16,15,001,4,recog,82,HUSBAND,HF,lure,-,-,-,liberal,no,m,1,0.800282579909,1,427
2019_Oct_16,15,001,4,recog,83,HASSLE,LF,target,left,aqua,imageability,conservative,no,z,1,0.633635221158,1,428
2019_Oct_16,15,001,4,recog,84,MITIGATE,LF,target,right,yellow,pleasantness,conservative,no,m,0,0.416917913982,-1,427
2019_Oct_16,15,001,4,recog,85,FATHER,HF,lure,-,-,-,conservative,no,z,0,0.766929865338,-3,424
2019_Oct_16,15,001,4,recog,86,TOLERABLY,LF,target,left,aqua,imageability,conservative,no,m,0,0.433584189603,-1,423
2019_Oct_16,15,001,4,recog,87,CORNER,HF,lure,-,-,-,conservative,no,m,1,1.08359130176,3,426
2019_Oct_16,15,001,4,recog,88,KITCHEN,HF,lure,-,-,-,conservative,yes,m,1,0.966850751762,3,429
2019_Oct_16,15,001,4,recog,89,TREES,HF,lure,-,-,-,liberal,no,z,0,1.08360779903,-1,428
2019_Oct_16,15,001,4,recog,90,SOVIET,HF,lure,-,-,-,conservative,no,m,1,0.566896064264,3,431
2019_Oct_16,15,001,4,recog,91,RUNNING,HF,target,left,aqua,imageability,conservative,no,m,0,0.833579570367,-1,430
2019_Oct_16,15,001,4,recog,92,MOMENT,HF,lure,-,-,-,liberal,no,z,0,0.416842393145,-1,429
2019_Oct_16,15,001,4,recog,93,FLUFF,LF,lure,-,-,-,liberal,no,z,0,1.00028815232,-1,428
2019_Oct_16,15,001,4,recog,94,KNOWLEDGE,HF,lure,-,-,-,liberal,no,z,0,1.00027862056,-1,427
2019_Oct_16,15,001,4,recog,95,WRITE,HF,target,right,yellow,pleasantness,liberal,no,z,1,0.650256770846,3,430
