date,subj,session,cycle,task,trial,item,wf,type,source,colour,encoding,bias,null,response,corr,rt,points,total
2019_Oct_18,16,001,0,source,0,MANDARIN,LF,target,right,aqua,pleasantness,conservative,no,9,1,3.25003647716,-,-
2019_Oct_18,16,001,0,source,1,INNATELY,LF,target,left,yellow,imageability,conservative,no,8,0,3.21653577658,-,-
2019_Oct_18,16,001,0,source,2,PERHAPS,HF,target,left,yellow,imageability,liberal,no,1,1,2.91686506089,-,-
2019_Oct_18,16,001,0,source,3,AFRAID,HF,target,left,yellow,imageability,liberal,no,7,0,2.41688779038,-,-
2019_Oct_18,16,001,0,source,4,MOSAICS,LF,target,left,yellow,imageability,liberal,no,9,0,1.26683027011,-,-
2019_Oct_18,16,001,0,source,5,DAGGERS,LF,target,right,aqua,pleasantness,conservative,no,9,1,2.00016790494,-,-
2019_Oct_18,16,001,0,source,6,BUGGED,LF,target,right,aqua,pleasantness,liberal,no,9,1,2.63347159217,-,-
2019_Oct_18,16,001,0,source,7,DEJECTED,LF,target,left,yellow,imageability,conservative,no,2,1,1.73347804441,-,-
2019_Oct_18,16,001,0,source,8,SOUND,HF,target,right,aqua,pleasantness,conservative,no,3,0,3.43347775113,-,-
2019_Oct_18,16,001,0,source,9,HEEDED,LF,target,left,yellow,imageability,liberal,no,7,0,3.45010217272,-,-
2019_Oct_18,16,001,0,source,10,BEHIND,HF,target,left,yellow,imageability,liberal,no,1,1,1.86682939026,-,-
2019_Oct_18,16,001,0,source,11,RUSSET,LF,target,left,yellow,imageability,liberal,no,1,1,0.916883391122,-,-
2019_Oct_18,16,001,0,source,12,GLEANED,LF,target,left,yellow,imageability,liberal,no,8,0,1.66686011173,-,-
2019_Oct_18,16,001,0,source,13,THEORY,HF,target,left,yellow,imageability,liberal,yes,2,1,2.0834879794,-,-
2019_Oct_18,16,001,0,source,14,LIGHT,HF,target,right,aqua,pleasantness,conservative,no,2,0,2.13347232538,-,-
2019_Oct_18,16,001,0,source,15,CASES,HF,target,right,aqua,pleasantness,conservative,no,9,1,1.066846694,-,-
2019_Oct_18,16,001,0,source,16,THING,HF,target,left,yellow,imageability,conservative,no,1,1,1.33335068595,-,-
2019_Oct_18,16,001,0,source,17,COOING,LF,target,right,aqua,pleasantness,conservative,no,9,1,1.01668381154,-,-
2019_Oct_18,16,001,0,source,18,WEEKS,HF,target,left,yellow,imageability,conservative,no,8,0,2.60023521355,-,-
2019_Oct_18,16,001,0,source,19,REDDENED,LF,target,right,aqua,pleasantness,liberal,yes,7,1,1.31684761051,-,-
2019_Oct_18,16,001,0,source,20,BLACK,HF,target,right,aqua,pleasantness,conservative,no,9,1,1.2169302432,-,-
2019_Oct_18,16,001,0,source,21,SEVEN,HF,target,left,yellow,imageability,liberal,no,1,1,0.983517821019,-,-
2019_Oct_18,16,001,0,source,22,PIGLETS,LF,target,right,aqua,pleasantness,conservative,no,9,1,0.866700345415,-,-
2019_Oct_18,16,001,0,source,23,TASSELS,LF,target,right,aqua,pleasantness,liberal,yes,3,0,1.71681696236,-,-
2019_Oct_18,16,001,0,source,24,MITIGATE,LF,target,left,yellow,imageability,conservative,no,2,1,2.10012303252,-,-
2019_Oct_18,16,001,0,source,25,MAVIS,LF,target,right,aqua,pleasantness,liberal,no,9,1,0.983404173574,-,-
2019_Oct_18,16,001,0,source,26,PRIVATE,HF,target,left,yellow,imageability,conservative,no,1,1,1.23353780097,-,-
2019_Oct_18,16,001,0,source,27,WATCH,HF,target,left,yellow,imageability,conservative,no,1,1,0.950190157838,-,-
2019_Oct_18,16,001,0,source,28,BIOLOGIST,LF,target,left,yellow,imageability,conservative,no,1,1,1.16683848205,-,-
2019_Oct_18,16,001,0,source,29,OBVIOUSLY,HF,target,right,aqua,pleasantness,conservative,no,9,1,0.983628169022,-,-
2019_Oct_18,16,001,0,source,30,HYSTERICS,LF,target,left,yellow,imageability,conservative,no,1,1,1.06687932181,-,-
2019_Oct_18,16,001,0,source,31,MOUTH,HF,target,right,aqua,pleasantness,liberal,no,8,1,1.96683364287,-,-
2019_Oct_18,16,001,0,source,32,THUDDING,LF,target,left,yellow,imageability,liberal,no,1,1,1.05023693659,-,-
2019_Oct_18,16,001,0,source,33,PNEUMATIC,LF,target,right,aqua,pleasantness,liberal,no,3,0,3.23344395018,-,-
2019_Oct_18,16,001,0,source,34,SICKENED,LF,target,left,yellow,imageability,conservative,no,1,1,1.48360580614,-,-
2019_Oct_18,16,001,0,source,35,USUAL,HF,target,left,yellow,imageability,conservative,no,1,1,2.10014392899,-,-
2019_Oct_18,16,001,0,source,36,ACROSS,HF,target,right,aqua,pleasantness,liberal,no,9,1,1.48349765776,-,-
2019_Oct_18,16,001,0,source,37,EXPECT,HF,target,right,aqua,pleasantness,liberal,no,2,0,1.7668060742,-,-
2019_Oct_18,16,001,0,source,38,WRANGLING,LF,target,right,aqua,pleasantness,liberal,no,2,0,1.81668813748,-,-
2019_Oct_18,16,001,0,source,39,GREATER,HF,target,left,yellow,imageability,conservative,no,1,1,2.60017179094,-,-
2019_Oct_18,16,001,0,source,40,OFFER,HF,target,left,yellow,imageability,liberal,no,8,0,1.90001407762,-,-
2019_Oct_18,16,001,0,source,41,ANEMONES,LF,target,right,aqua,pleasantness,conservative,no,3,0,3.13340523673,-,-
2019_Oct_18,16,001,0,source,42,TALKING,HF,target,right,aqua,pleasantness,liberal,no,3,0,2.40016401893,-,-
2019_Oct_18,16,001,0,source,43,POINT,HF,target,right,aqua,pleasantness,conservative,no,9,1,1.1668502134,-,-
2019_Oct_18,16,001,0,source,44,NOTHING,HF,target,right,aqua,pleasantness,liberal,no,9,1,0.850247861412,-,-
2019_Oct_18,16,001,0,source,45,ZEBRA,LF,target,left,yellow,imageability,liberal,no,1,1,1.01664605126,-,-
2019_Oct_18,16,001,0,source,46,ROMANCES,LF,target,right,aqua,pleasantness,conservative,no,9,1,1.20016907807,-,-
2019_Oct_18,16,001,0,source,47,ALLOWED,HF,target,right,aqua,pleasantness,liberal,yes,2,0,1.13350861924,-,-
2019_Oct_18,16,001,0,recog,0,BIOLOGIST,LF,target,left,yellow,imageability,conservative,no,z,1,1.96685893859,1,1
2019_Oct_18,16,001,0,recog,1,FLOOR,HF,lure,-,-,-,conservative,no,m,1,1.11689702882,3,4
2019_Oct_18,16,001,0,recog,2,RUMBLED,LF,lure,-,-,-,liberal,no,m,1,2.76679727569,1,5
2019_Oct_18,16,001,0,recog,3,WEEKS,HF,target,left,yellow,imageability,conservative,no,z,1,1.36680812719,1,6
2019_Oct_18,16,001,0,recog,4,YANKED,LF,lure,-,-,-,conservative,no,m,1,1.40021424376,3,9
2019_Oct_18,16,001,0,recog,5,PNEUMATIC,LF,target,right,aqua,pleasantness,liberal,no,z,1,1.8501448455,3,12
2019_Oct_18,16,001,0,recog,6,NOTHING,HF,target,right,aqua,pleasantness,liberal,no,z,1,0.850263625412,3,15
2019_Oct_18,16,001,0,recog,7,MAVIS,LF,target,right,aqua,pleasantness,liberal,no,z,1,0.733526436229,3,18
2019_Oct_18,16,001,0,recog,8,OBVIOUSLY,HF,target,right,aqua,pleasantness,conservative,no,z,1,0.966933359338,1,19
2019_Oct_18,16,001,0,recog,9,EXPECT,HF,target,right,aqua,pleasantness,liberal,no,z,1,1.55002723873,3,22
2019_Oct_18,16,001,0,recog,10,SCHOOL,HF,lure,-,-,-,liberal,no,m,1,0.800237119895,1,23
2019_Oct_18,16,001,0,recog,11,KOSHER,LF,lure,-,-,-,liberal,no,m,1,0.8168941693,1,24
2019_Oct_18,16,001,0,recog,12,COOING,LF,target,right,aqua,pleasantness,conservative,no,z,1,0.800285145106,1,25
2019_Oct_18,16,001,0,recog,13,DEEPEN,LF,lure,-,-,-,conservative,no,m,1,1.23351067223,3,28
2019_Oct_18,16,001,0,recog,14,DAGGERS,LF,target,right,aqua,pleasantness,conservative,no,z,1,0.833581646891,1,29
2019_Oct_18,16,001,0,recog,15,TALKING,HF,target,right,aqua,pleasantness,liberal,no,z,1,1.08360712591,3,32
2019_Oct_18,16,001,0,recog,16,ZEBRA,LF,target,left,yellow,imageability,liberal,no,z,1,0.633621166873,3,35
2019_Oct_18,16,001,0,recog,17,INNATELY,LF,target,left,yellow,imageability,conservative,no,z,1,1.20021966951,1,36
2019_Oct_18,16,001,0,recog,18,TETHER,LF,lure,-,-,-,conservative,no,m,1,0.900237706463,3,39
2019_Oct_18,16,001,0,recog,19,BUGGED,LF,target,right,aqua,pleasantness,liberal,no,z,1,0.833610242054,3,42
2019_Oct_18,16,001,0,recog,20,REDDENED,LF,target,right,aqua,pleasantness,liberal,no,z,1,1.41657287697,3,45
2019_Oct_18,16,001,0,recog,21,MOVED,HF,lure,-,-,-,conservative,no,m,1,0.950223885467,3,48
2019_Oct_18,16,001,0,recog,22,SHALL,HF,lure,-,-,-,liberal,no,m,1,1.35027682318,1,49
2019_Oct_18,16,001,0,recog,23,LIARS,LF,lure,-,-,-,liberal,no,m,1,0.783536444536,1,50
2019_Oct_18,16,001,0,recog,24,TURNED,HF,lure,-,-,-,conservative,no,m,1,1.05021897296,3,53
2019_Oct_18,16,001,0,recog,25,HYSTERICS,LF,target,left,yellow,imageability,conservative,no,z,1,0.95018795821,1,54
2019_Oct_18,16,001,0,recog,26,PULSAR,LF,lure,-,-,-,conservative,no,m,1,0.833561483634,3,57
2019_Oct_18,16,001,0,recog,27,GLEANED,LF,target,left,yellow,imageability,liberal,no,z,1,0.783577137653,3,60
2019_Oct_18,16,001,0,recog,28,TASSELS,LF,target,right,aqua,pleasantness,liberal,no,z,1,0.866853952768,3,63
2019_Oct_18,16,001,0,recog,29,TULIPS,LF,lure,-,-,-,liberal,no,m,1,0.80028551171,1,64
2019_Oct_18,16,001,0,recog,30,THING,HF,target,left,yellow,imageability,conservative,no,z,1,0.733611855115,1,65
2019_Oct_18,16,001,0,recog,31,CLUBBED,LF,lure,-,-,-,conservative,no,m,1,1.13355077878,3,68
2019_Oct_18,16,001,0,recog,32,CLOSE,HF,lure,-,-,-,conservative,yes,m,1,1.35020643508,3,71
2019_Oct_18,16,001,0,recog,33,ACROSS,HF,target,right,aqua,pleasantness,liberal,no,z,1,1.78351518147,3,74
2019_Oct_18,16,001,0,recog,34,ANEMONES,LF,target,right,aqua,pleasantness,conservative,no,z,1,2.03349190207,1,75
2019_Oct_18,16,001,0,recog,35,NUMBER,HF,lure,-,-,-,liberal,no,m,1,1.0166882108,1,76
2019_Oct_18,16,001,0,recog,36,MOSAICS,LF,target,left,yellow,imageability,liberal,no,z,1,0.766861798108,3,79
2019_Oct_18,16,001,0,recog,37,EMBATTLED,LF,lure,-,-,-,conservative,no,m,1,0.916969176613,3,82
2019_Oct_18,16,001,0,recog,38,SLIGHTLY,HF,lure,-,-,-,liberal,no,m,1,1.45016082947,1,83
2019_Oct_18,16,001,0,recog,39,PIGLETS,LF,target,right,aqua,pleasantness,conservative,no,z,1,0.666870376657,1,84
2019_Oct_18,16,001,0,recog,40,AFRAID,HF,target,left,yellow,imageability,liberal,no,z,1,0.70028859119,3,87
2019_Oct_18,16,001,0,recog,41,HEEDED,LF,target,left,yellow,imageability,liberal,no,z,1,0.800230887616,3,90
2019_Oct_18,16,001,0,recog,42,EIGHT,HF,lure,-,-,-,conservative,no,m,1,0.933609728808,3,93
2019_Oct_18,16,001,0,recog,43,INDEED,HF,lure,-,-,-,conservative,no,m,1,2.08348358014,3,96
2019_Oct_18,16,001,0,recog,44,DEJECTED,LF,target,left,yellow,imageability,conservative,no,z,1,1.10021944955,1,97
2019_Oct_18,16,001,0,recog,45,KITCHEN,HF,lure,-,-,-,conservative,no,m,1,0.866737005881,3,100
2019_Oct_18,16,001,0,recog,46,ENVIRONS,LF,lure,-,-,-,conservative,no,m,1,0.950294273562,3,103
2019_Oct_18,16,001,0,recog,47,PERHAPS,HF,target,left,yellow,imageability,liberal,no,z,1,1.38354253017,3,106
2019_Oct_18,16,001,0,recog,48,WANTED,HF,lure,-,-,-,liberal,no,m,1,0.983525153112,1,107
2019_Oct_18,16,001,0,recog,49,TITAN,LF,lure,-,-,-,liberal,no,m,1,1.76687902853,1,108
2019_Oct_18,16,001,0,recog,50,JEERED,LF,lure,-,-,-,conservative,no,m,1,1.05002063984,3,111
2019_Oct_18,16,001,0,recog,51,HOMESTEAD,LF,lure,-,-,-,conservative,no,m,1,1.01688104485,3,114
2019_Oct_18,16,001,0,recog,52,MEANS,HF,lure,-,-,-,conservative,no,m,1,0.850192870712,3,117
2019_Oct_18,16,001,0,recog,53,DEITIES,LF,lure,-,-,-,liberal,no,m,1,1.10022458202,1,118
2019_Oct_18,16,001,0,recog,54,WRANGLING,LF,target,right,aqua,pleasantness,liberal,yes,z,1,1.6999590136,3,121
2019_Oct_18,16,001,0,recog,55,OFFER,HF,target,left,yellow,imageability,liberal,no,z,1,1.71680303138,3,124
2019_Oct_18,16,001,0,recog,56,SOUND,HF,target,right,aqua,pleasantness,conservative,no,z,1,1.15028408195,1,125
2019_Oct_18,16,001,0,recog,57,CLEAR,HF,lure,-,-,-,conservative,no,m,1,0.766651367032,3,128
2019_Oct_18,16,001,0,recog,58,BEHIND,HF,target,left,yellow,imageability,liberal,no,z,1,0.750387317825,3,131
2019_Oct_18,16,001,0,recog,59,BREAK,HF,lure,-,-,-,conservative,no,m,1,0.683556021225,3,134
2019_Oct_18,16,001,0,recog,60,ANVIL,LF,lure,-,-,-,liberal,no,m,1,1.03353992728,1,135
2019_Oct_18,16,001,0,recog,61,MATERIAL,HF,lure,-,-,-,liberal,no,m,1,0.950216186769,1,136
2019_Oct_18,16,001,0,recog,62,SNIGGERED,LF,lure,-,-,-,conservative,no,m,1,1.01685648234,3,139
2019_Oct_18,16,001,0,recog,63,MUGGING,LF,lure,-,-,-,conservative,no,z,0,2.51680772392,-3,136
2019_Oct_18,16,001,0,recog,64,ALLOWED,HF,target,right,aqua,pleasantness,liberal,no,m,0,1.48357391153,-3,133
2019_Oct_18,16,001,0,recog,65,POLICE,HF,lure,-,-,-,conservative,no,m,1,0.916943880892,3,136
2019_Oct_18,16,001,0,recog,66,WATCH,HF,target,left,yellow,imageability,conservative,no,z,1,0.900239172881,1,137
2019_Oct_18,16,001,0,recog,67,HEALTH,HF,lure,-,-,-,conservative,no,m,1,1.21672494459,3,140
2019_Oct_18,16,001,0,recog,68,DEVELOPED,HF,lure,-,-,-,liberal,no,m,1,1.01698919323,1,141
2019_Oct_18,16,001,0,recog,69,RUSSET,LF,target,left,yellow,imageability,liberal,no,z,1,0.750239942751,3,144
2019_Oct_18,16,001,0,recog,70,PROBABLY,HF,lure,-,-,-,liberal,no,z,0,0.916850396703,-1,143
2019_Oct_18,16,001,0,recog,71,USUAL,HF,target,left,yellow,imageability,conservative,no,z,1,2.93346235373,1,144
2019_Oct_18,16,001,0,recog,72,THUDDING,LF,target,left,yellow,imageability,liberal,no,z,1,0.800266814873,3,147
2019_Oct_18,16,001,0,recog,73,SEVEN,HF,target,left,yellow,imageability,liberal,yes,m,0,0.866880714908,-3,144
2019_Oct_18,16,001,0,recog,74,BLACK,HF,target,right,aqua,pleasantness,conservative,no,z,1,1.45021948621,1,145
2019_Oct_18,16,001,0,recog,75,CASES,HF,target,right,aqua,pleasantness,conservative,no,z,1,0.783524713187,1,146
2019_Oct_18,16,001,0,recog,76,JOSTLED,LF,lure,-,-,-,liberal,no,m,1,1.08360455968,1,147
2019_Oct_18,16,001,0,recog,77,UNLESS,HF,lure,-,-,-,liberal,no,m,1,1.25021794647,1,148
2019_Oct_18,16,001,0,recog,78,THEORY,HF,target,left,yellow,imageability,liberal,no,z,1,1.21693280943,3,151
2019_Oct_18,16,001,0,recog,79,MOPED,LF,lure,-,-,-,conservative,no,m,1,0.933592498389,3,154
2019_Oct_18,16,001,0,recog,80,SICKENED,LF,target,left,yellow,imageability,conservative,no,z,1,1.01693640216,1,155
2019_Oct_18,16,001,0,recog,81,LIGHT,HF,target,right,aqua,pleasantness,conservative,no,z,1,1.11693588891,1,156
2019_Oct_18,16,001,0,recog,82,DAPPER,LF,lure,-,-,-,liberal,no,m,1,2.00015947303,1,157
2019_Oct_18,16,001,0,recog,83,GENERAL,HF,lure,-,-,-,liberal,no,m,1,0.950025552345,1,158
2019_Oct_18,16,001,0,recog,84,PYJAMA,LF,lure,-,-,-,liberal,no,m,1,0.950238549653,1,159
2019_Oct_18,16,001,0,recog,85,HIVES,LF,lure,-,-,-,liberal,no,m,1,0.816737262504,1,160
2019_Oct_18,16,001,0,recog,86,TESTIFIES,LF,lure,-,-,-,liberal,yes,z,0,1.43328491708,-1,159
2019_Oct_18,16,001,0,recog,87,INVOLVED,HF,lure,-,-,-,liberal,no,m,1,1.55032638813,1,160
2019_Oct_18,16,001,0,recog,88,MITIGATE,LF,target,left,yellow,imageability,conservative,no,z,1,0.90023514023,1,161
2019_Oct_18,16,001,0,recog,89,MANDARIN,LF,target,right,aqua,pleasantness,conservative,no,z,1,0.716969836502,1,162
2019_Oct_18,16,001,0,recog,90,MOUTH,HF,target,right,aqua,pleasantness,liberal,no,z,1,0.766902124621,3,165
2019_Oct_18,16,001,0,recog,91,PRIVATE,HF,target,left,yellow,imageability,conservative,no,z,1,0.800282578873,1,166
2019_Oct_18,16,001,0,recog,92,GREATER,HF,target,left,yellow,imageability,conservative,no,z,1,1.78346532323,1,167
2019_Oct_18,16,001,0,recog,93,POINT,HF,target,right,aqua,pleasantness,conservative,no,z,1,1.30016306575,1,168
2019_Oct_18,16,001,0,recog,94,ROMANCES,LF,target,right,aqua,pleasantness,conservative,no,z,1,0.750075337258,1,169
2019_Oct_18,16,001,0,recog,95,IDEAS,HF,lure,-,-,-,liberal,no,m,1,0.800179562963,1,170
2019_Oct_18,16,001,1,source,0,LULLED,LF,target,left,yellow,imageability,conservative,no,8,0,2.38338049091,-,-
2019_Oct_18,16,001,1,source,1,UNNAMED,LF,target,right,aqua,pleasantness,conservative,yes,2,0,1.86694120468,-,-
2019_Oct_18,16,001,1,source,2,GIBBERISH,LF,target,left,yellow,imageability,conservative,no,1,1,2.3001513344,-,-
2019_Oct_18,16,001,1,source,3,BEAUTIFUL,HF,target,right,aqua,pleasantness,conservative,no,9,1,0.86685725221,-,-
2019_Oct_18,16,001,1,source,4,CACOPHONY,LF,target,right,aqua,pleasantness,liberal,no,2,0,2.06688958674,-,-
2019_Oct_18,16,001,1,source,5,SEGMENTED,LF,target,right,aqua,pleasantness,liberal,no,9,1,1.18349956411,-,-
2019_Oct_18,16,001,1,source,6,NINETIES,LF,target,right,aqua,pleasantness,liberal,no,9,1,1.01672413806,-,-
2019_Oct_18,16,001,1,source,7,HUBBUB,LF,target,left,yellow,imageability,liberal,no,1,1,1.38359385483,-,-
2019_Oct_18,16,001,1,source,8,NEEDED,HF,target,left,yellow,imageability,liberal,no,7,0,2.46676875384,-,-
2019_Oct_18,16,001,1,source,9,GAZELLE,LF,target,right,aqua,pleasantness,liberal,yes,7,1,0.883597520873,-,-
2019_Oct_18,16,001,1,source,10,LIVED,HF,target,left,yellow,imageability,conservative,yes,3,1,1.54999204468,-,-
2019_Oct_18,16,001,1,source,11,RATHER,HF,target,right,aqua,pleasantness,conservative,no,9,1,1.28350051728,-,-
2019_Oct_18,16,001,1,source,12,DIFFERENT,HF,target,left,yellow,imageability,conservative,no,9,0,1.53348347016,-,-
2019_Oct_18,16,001,1,source,13,VELVETY,LF,target,left,yellow,imageability,liberal,no,1,1,0.950233783793,-,-
2019_Oct_18,16,001,1,source,14,VILLAGE,HF,target,left,yellow,imageability,conservative,no,1,1,0.833536187913,-,-
2019_Oct_18,16,001,1,source,15,YEOMAN,LF,target,left,yellow,imageability,conservative,no,1,1,1.06688042162,-,-
2019_Oct_18,16,001,1,source,16,CARRIED,HF,target,left,yellow,imageability,conservative,no,1,1,0.95020995449,-,-
2019_Oct_18,16,001,1,source,17,PSEUDONYM,LF,target,left,yellow,imageability,liberal,no,7,0,1.8168549426,-,-
2019_Oct_18,16,001,1,source,18,SULKED,LF,target,left,yellow,imageability,conservative,no,3,1,2.88330533696,-,-
2019_Oct_18,16,001,1,source,19,SOYBEAN,LF,target,left,yellow,imageability,conservative,no,1,1,0.93371531095,-,-
2019_Oct_18,16,001,1,source,20,HURDLES,LF,target,right,aqua,pleasantness,conservative,no,9,1,0.933519544061,-,-
2019_Oct_18,16,001,1,source,21,STOOD,HF,target,right,aqua,pleasantness,liberal,no,9,1,0.816857875438,-,-
2019_Oct_18,16,001,1,source,22,APART,HF,target,right,aqua,pleasantness,conservative,no,8,1,2.08350740945,-,-
2019_Oct_18,16,001,1,source,23,MARKET,HF,target,left,yellow,imageability,liberal,no,2,1,1.95019382388,-,-
2019_Oct_18,16,001,1,source,24,RESEARCH,HF,target,right,aqua,pleasantness,liberal,no,9,1,1.5502061418,-,-
2019_Oct_18,16,001,1,source,25,TOYED,LF,target,left,yellow,imageability,liberal,no,1,1,0.883349329516,-,-
2019_Oct_18,16,001,1,source,26,CRACKLE,LF,target,right,aqua,pleasantness,conservative,no,9,1,0.800240419337,-,-
2019_Oct_18,16,001,1,source,27,INHABITS,LF,target,left,yellow,imageability,liberal,no,1,1,0.966884967522,-,-
2019_Oct_18,16,001,1,source,28,INORGANIC,LF,target,left,yellow,imageability,conservative,no,1,1,0.850232097412,-,-
2019_Oct_18,16,001,1,source,29,UNOPENED,LF,target,right,aqua,pleasantness,liberal,no,9,1,0.950224618676,-,-
2019_Oct_18,16,001,1,source,30,BETTER,HF,target,left,yellow,imageability,conservative,no,1,1,0.666947730241,-,-
2019_Oct_18,16,001,1,source,31,WHETHER,HF,target,right,aqua,pleasantness,liberal,no,9,1,0.850265458435,-,-
2019_Oct_18,16,001,1,source,32,GOVERNS,LF,target,right,aqua,pleasantness,conservative,yes,3,0,1.0502691978,-,-
2019_Oct_18,16,001,1,source,33,MUSIC,HF,target,right,aqua,pleasantness,conservative,no,9,1,2.31691103311,-,-
2019_Oct_18,16,001,1,source,34,HOWEVER,HF,target,right,aqua,pleasantness,liberal,no,9,1,0.750032444513,-,-
2019_Oct_18,16,001,1,source,35,TELEPHONE,HF,target,right,aqua,pleasantness,conservative,no,9,1,0.883526766173,-,-
2019_Oct_18,16,001,1,source,36,PLACE,HF,target,left,yellow,imageability,conservative,no,3,1,1.73347474497,-,-
2019_Oct_18,16,001,1,source,37,MILES,HF,target,left,yellow,imageability,liberal,no,1,1,0.816850909949,-,-
2019_Oct_18,16,001,1,source,38,MIDDLE,HF,target,right,aqua,pleasantness,conservative,no,9,1,0.750297133078,-,-
2019_Oct_18,16,001,1,source,39,OVENS,LF,target,right,aqua,pleasantness,liberal,no,9,1,1.16689017331,-,-
2019_Oct_18,16,001,1,source,40,GUMMED,LF,target,right,aqua,pleasantness,conservative,no,9,1,0.800227588174,-,-
2019_Oct_18,16,001,1,source,41,BOOKS,HF,target,left,yellow,imageability,liberal,no,2,1,1.38350037064,-,-
2019_Oct_18,16,001,1,source,42,ANSWER,HF,target,left,yellow,imageability,liberal,no,8,0,1.50020273238,-,-
2019_Oct_18,16,001,1,source,43,ELICIT,LF,target,left,yellow,imageability,liberal,no,7,0,1.60009480397,-,-
2019_Oct_18,16,001,1,source,44,BRING,HF,target,right,aqua,pleasantness,liberal,no,3,0,1.41686946015,-,-
2019_Oct_18,16,001,1,source,45,SYSTEM,HF,target,right,aqua,pleasantness,liberal,no,2,0,1.51684401778,-,-
2019_Oct_18,16,001,1,source,46,PESTERED,LF,target,right,aqua,pleasantness,conservative,no,2,0,1.7834704557,-,-
2019_Oct_18,16,001,1,source,47,ROUND,HF,target,left,yellow,imageability,liberal,no,1,1,1.26682587085,-,-
2019_Oct_18,16,001,1,recog,0,GIBBERISH,LF,target,left,yellow,imageability,conservative,no,z,1,1.11693808854,1,171
2019_Oct_18,16,001,1,recog,1,LIVED,HF,target,left,yellow,imageability,conservative,no,z,1,0.883569658918,1,172
2019_Oct_18,16,001,1,recog,2,RESEARCH,HF,target,right,aqua,pleasantness,liberal,no,z,1,0.850230630992,3,175
2019_Oct_18,16,001,1,recog,3,OFTEN,HF,lure,-,-,-,liberal,no,m,1,1.00017743666,1,176
2019_Oct_18,16,001,1,recog,4,VECTORS,LF,lure,-,-,-,conservative,no,m,1,0.950232317374,3,179
2019_Oct_18,16,001,1,recog,5,PSEUDONYM,LF,target,left,yellow,imageability,liberal,no,z,1,0.766910189923,3,182
2019_Oct_18,16,001,1,recog,6,ELICIT,LF,target,left,yellow,imageability,liberal,no,z,1,0.750319129358,3,185
2019_Oct_18,16,001,1,recog,7,OVENS,LF,target,right,aqua,pleasantness,liberal,no,z,1,2.43354410657,3,188
2019_Oct_18,16,001,1,recog,8,TELEPHONE,HF,target,right,aqua,pleasantness,conservative,no,z,1,0.866851386535,1,189
2019_Oct_18,16,001,1,recog,9,BONANZA,LF,lure,-,-,-,liberal,no,m,1,1.1335049532,1,190
2019_Oct_18,16,001,1,recog,10,STOOD,HF,target,right,aqua,pleasantness,liberal,yes,m,0,1.28350051728,-3,187
2019_Oct_18,16,001,1,recog,11,FOLLOWED,HF,lure,-,-,-,conservative,no,m,1,1.05023107092,3,190
2019_Oct_18,16,001,1,recog,12,SOYBEAN,LF,target,left,yellow,imageability,conservative,no,z,1,0.716978268409,1,191
2019_Oct_18,16,001,1,recog,13,MUSIC,HF,target,right,aqua,pleasantness,conservative,no,z,1,0.650256586603,1,192
2019_Oct_18,16,001,1,recog,14,DUNGEON,LF,lure,-,-,-,liberal,no,m,1,0.900184182182,1,193
2019_Oct_18,16,001,1,recog,15,RATHER,HF,target,right,aqua,pleasantness,conservative,no,z,1,2.95007504397,1,194
2019_Oct_18,16,001,1,recog,16,SEDAN,LF,lure,-,-,-,liberal,no,m,1,0.800163798963,1,195
2019_Oct_18,16,001,1,recog,17,VEGAN,LF,lure,-,-,-,conservative,no,m,1,0.833533255076,3,198
2019_Oct_18,16,001,1,recog,18,QUICKLY,HF,lure,-,-,-,conservative,no,m,1,0.966968553385,3,201
2019_Oct_18,16,001,1,recog,19,CRACKLE,LF,target,right,aqua,pleasantness,conservative,no,z,1,0.750191917541,1,202
2019_Oct_18,16,001,1,recog,20,VALUE,HF,lure,-,-,-,liberal,no,m,1,1.18354685611,1,203
2019_Oct_18,16,001,1,recog,21,DIFFERENT,HF,target,left,yellow,imageability,conservative,no,z,1,1.10023411374,1,204
2019_Oct_18,16,001,1,recog,22,AGGRAVATE,LF,lure,-,-,-,liberal,no,m,1,0.850069324942,1,205
2019_Oct_18,16,001,1,recog,23,ORDER,HF,lure,-,-,-,liberal,no,m,1,2.13345216212,1,206
2019_Oct_18,16,001,1,recog,24,INTEREST,HF,lure,-,-,-,conservative,no,m,1,1.2502828355,3,209
2019_Oct_18,16,001,1,recog,25,SULKED,LF,target,left,yellow,imageability,conservative,no,z,1,0.6668344494,1,210
2019_Oct_18,16,001,1,recog,26,APART,HF,target,right,aqua,pleasantness,conservative,no,z,1,1.21692071148,1,211
2019_Oct_18,16,001,1,recog,27,LONGER,HF,lure,-,-,-,conservative,no,m,1,0.766910556528,3,214
2019_Oct_18,16,001,1,recog,28,ROUND,HF,target,left,yellow,imageability,liberal,no,z,1,0.866900144956,3,217
2019_Oct_18,16,001,1,recog,29,IDIOCY,LF,lure,-,-,-,conservative,no,m,1,0.73357372823,3,220
2019_Oct_18,16,001,1,recog,30,MARKET,HF,target,left,yellow,imageability,liberal,no,z,1,0.650242655626,3,223
2019_Oct_18,16,001,1,recog,31,ANSWER,HF,target,left,yellow,imageability,liberal,no,z,1,0.75018165261,3,226
2019_Oct_18,16,001,1,recog,32,MONEY,HF,lure,-,-,-,conservative,no,m,1,0.900253470463,3,229
2019_Oct_18,16,001,1,recog,33,WHETHER,HF,target,right,aqua,pleasantness,liberal,no,z,1,1.01668967722,3,232
2019_Oct_18,16,001,1,recog,34,WEIRDLY,LF,lure,-,-,-,conservative,no,m,1,1.73362102023,3,235
2019_Oct_18,16,001,1,recog,35,MIDDLE,HF,target,right,aqua,pleasantness,conservative,no,z,1,0.983649065488,1,236
2019_Oct_18,16,001,1,recog,36,SYSTEM,HF,target,right,aqua,pleasantness,liberal,no,z,1,0.733564929718,3,239
2019_Oct_18,16,001,1,recog,37,BETTER,HF,target,left,yellow,imageability,conservative,no,z,1,0.583543703308,1,240
2019_Oct_18,16,001,1,recog,38,PLACE,HF,target,left,yellow,imageability,conservative,no,z,1,1.06684816041,1,241
2019_Oct_18,16,001,1,recog,39,BEREAVED,LF,lure,-,-,-,conservative,no,m,1,0.933355671777,3,244
2019_Oct_18,16,001,1,recog,40,POSITION,HF,lure,-,-,-,liberal,no,m,1,1.00022216242,1,245
2019_Oct_18,16,001,1,recog,41,TOLERABLY,LF,lure,-,-,-,conservative,no,m,1,1.03351609798,3,248
2019_Oct_18,16,001,1,recog,42,CORNER,HF,lure,-,-,-,liberal,no,m,1,2.50016387228,1,249
2019_Oct_18,16,001,1,recog,43,NEEDED,HF,target,left,yellow,imageability,liberal,no,m,0,0.833576147821,-3,246
2019_Oct_18,16,001,1,recog,44,LULLED,LF,target,left,yellow,imageability,conservative,no,z,1,0.883622816594,1,247
2019_Oct_18,16,001,1,recog,45,MAYBE,HF,lure,-,-,-,liberal,no,m,1,1.7001639456,1,248
2019_Oct_18,16,001,1,recog,46,AREAS,HF,lure,-,-,-,liberal,no,m,1,0.716648324213,1,249
2019_Oct_18,16,001,1,recog,47,VELVETY,LF,target,left,yellow,imageability,liberal,no,z,1,0.683429542617,3,252
2019_Oct_18,16,001,1,recog,48,MUMBLES,LF,lure,-,-,-,liberal,no,m,1,0.833613174892,1,253
2019_Oct_18,16,001,1,recog,49,VILLAGE,HF,target,left,yellow,imageability,conservative,no,z,1,0.800189094684,1,254
2019_Oct_18,16,001,1,recog,50,ABUSING,LF,lure,-,-,-,liberal,no,m,1,0.800240052733,1,255
2019_Oct_18,16,001,1,recog,51,BOOKS,HF,target,left,yellow,imageability,liberal,no,z,1,2.03346330691,3,258
2019_Oct_18,16,001,1,recog,52,BUBBLED,LF,lure,-,-,-,liberal,no,m,1,1.45018612519,1,259
2019_Oct_18,16,001,1,recog,53,HOWEVER,HF,target,right,aqua,pleasantness,liberal,no,z,1,1.05018157929,3,262
2019_Oct_18,16,001,1,recog,54,ARCADES,LF,lure,-,-,-,conservative,no,m,1,0.950235250211,3,265
2019_Oct_18,16,001,1,recog,55,CARRIED,HF,target,left,yellow,imageability,conservative,no,z,1,0.833537654331,1,266
2019_Oct_18,16,001,1,recog,56,BRING,HF,target,right,aqua,pleasantness,liberal,no,z,1,1.48349839097,3,269
2019_Oct_18,16,001,1,recog,57,ERODE,LF,lure,-,-,-,liberal,no,m,1,0.733513238461,1,270
2019_Oct_18,16,001,1,recog,58,EIDERDOWN,LF,lure,-,-,-,liberal,no,m,1,0.983509389112,1,271
2019_Oct_18,16,001,1,recog,59,ROVERS,LF,lure,-,-,-,liberal,no,m,1,0.916899155123,1,272
2019_Oct_18,16,001,1,recog,60,DAYBREAK,LF,lure,-,-,-,conservative,yes,m,1,1.450202989,3,275
2019_Oct_18,16,001,1,recog,61,CLASS,HF,lure,-,-,-,liberal,no,z,0,1.51681652243,-1,274
2019_Oct_18,16,001,1,recog,62,HURDLES,LF,target,right,aqua,pleasantness,conservative,no,z,1,1.13354527971,1,275
2019_Oct_18,16,001,1,recog,63,MACARONI,LF,lure,-,-,-,conservative,no,m,1,0.70019584021,3,278
2019_Oct_18,16,001,1,recog,64,BOGEY,LF,lure,-,-,-,liberal,no,m,1,0.766950883041,1,279
2019_Oct_18,16,001,1,recog,65,ESPECIAL,LF,lure,-,-,-,liberal,no,m,1,0.766898458574,1,280
2019_Oct_18,16,001,1,recog,66,INORGANIC,LF,target,left,yellow,imageability,conservative,no,z,1,1.33353948735,1,281
2019_Oct_18,16,001,1,recog,67,KNOWLEDGE,HF,lure,-,-,-,conservative,no,m,1,1.60022934788,3,284
2019_Oct_18,16,001,1,recog,68,UNNAMED,LF,target,right,aqua,pleasantness,conservative,no,m,0,2.40010902823,-1,283
2019_Oct_18,16,001,1,recog,69,TOYED,LF,target,left,yellow,imageability,liberal,no,z,1,0.833614274706,3,286
2019_Oct_18,16,001,1,recog,70,YEOMAN,LF,target,left,yellow,imageability,conservative,no,z,1,0.633569475616,1,287
2019_Oct_18,16,001,1,recog,71,PESTERED,LF,target,right,aqua,pleasantness,conservative,no,z,1,1.06684596079,1,288
2019_Oct_18,16,001,1,recog,72,GAZELLE,LF,target,right,aqua,pleasantness,liberal,no,z,1,0.883521633707,3,291
2019_Oct_18,16,001,1,recog,73,FRIEND,HF,lure,-,-,-,conservative,no,m,1,0.750286868148,3,294
2019_Oct_18,16,001,1,recog,74,PLEASE,HF,lure,-,-,-,liberal,yes,z,0,1.33333455535,-1,293
2019_Oct_18,16,001,1,recog,75,LIKELY,HF,lure,-,-,-,liberal,no,m,1,1.90016328572,1,294
2019_Oct_18,16,001,1,recog,76,TANGIER,LF,lure,-,-,-,conservative,no,m,1,2.85002349936,3,297
2019_Oct_18,16,001,1,recog,77,EARLIER,HF,lure,-,-,-,conservative,no,m,1,0.916922984426,3,300
2019_Oct_18,16,001,1,recog,78,INHABITS,LF,target,left,yellow,imageability,liberal,no,z,1,1.86679749565,3,303
2019_Oct_18,16,001,1,recog,79,TAKEN,HF,lure,-,-,-,liberal,no,m,1,0.916854062749,1,304
2019_Oct_18,16,001,1,recog,80,CHAIR,HF,lure,-,-,-,conservative,no,m,1,1.13366112678,3,307
2019_Oct_18,16,001,1,recog,81,MILES,HF,target,left,yellow,imageability,liberal,no,z,1,0.766933652621,3,310
2019_Oct_18,16,001,1,recog,82,GOVERNS,LF,target,right,aqua,pleasantness,conservative,no,z,1,1.88351980068,1,311
2019_Oct_18,16,001,1,recog,83,BEAUTIFUL,HF,target,right,aqua,pleasantness,conservative,no,z,1,0.583328872976,1,312
2019_Oct_18,16,001,1,recog,84,UNOPENED,LF,target,right,aqua,pleasantness,liberal,no,z,1,0.733539633996,3,315
2019_Oct_18,16,001,1,recog,85,GUMMED,LF,target,right,aqua,pleasantness,conservative,no,z,1,0.65025951944,1,316
2019_Oct_18,16,001,1,recog,86,HADJI,LF,lure,-,-,-,conservative,no,m,1,1.25017138768,3,319
2019_Oct_18,16,001,1,recog,87,HOURS,HF,lure,-,-,-,conservative,no,m,1,0.800246285012,3,322
2019_Oct_18,16,001,1,recog,88,SEGMENTED,LF,target,right,aqua,pleasantness,liberal,no,z,1,1.68352302681,3,325
2019_Oct_18,16,001,1,recog,89,HUBBUB,LF,target,left,yellow,imageability,liberal,no,z,1,0.683531092108,3,328
2019_Oct_18,16,001,1,recog,90,WITHIN,HF,lure,-,-,-,liberal,no,m,1,0.733456414739,1,329
2019_Oct_18,16,001,1,recog,91,PRACTICE,HF,lure,-,-,-,conservative,no,m,1,1.16697925824,3,332
2019_Oct_18,16,001,1,recog,92,LATER,HF,lure,-,-,-,conservative,no,m,1,0.816904800835,3,335
2019_Oct_18,16,001,1,recog,93,FACILE,LF,lure,-,-,-,conservative,no,m,1,0.750232977262,3,338
2019_Oct_18,16,001,1,recog,94,CACOPHONY,LF,target,right,aqua,pleasantness,liberal,no,z,1,1.26691165634,3,341
2019_Oct_18,16,001,1,recog,95,NINETIES,LF,target,right,aqua,pleasantness,liberal,yes,m,0,1.75014059289,-3,338
2019_Oct_18,16,001,2,source,0,TOMBSTONE,LF,target,left,yellow,imageability,conservative,no,1,1,1.30017736334,-,-
2019_Oct_18,16,001,2,source,1,COMES,HF,target,right,aqua,pleasantness,conservative,no,9,1,1.73350957241,-,-
2019_Oct_18,16,001,2,source,2,ADDED,HF,target,left,yellow,imageability,liberal,no,2,1,1.60013916313,-,-
2019_Oct_18,16,001,2,source,3,IMPORTANT,HF,target,right,aqua,pleasantness,conservative,no,9,1,1.4502026224,-,-
2019_Oct_18,16,001,2,source,4,SENSE,HF,target,right,aqua,pleasantness,liberal,no,7,1,1.36690821026,-,-
2019_Oct_18,16,001,2,source,5,GRUBS,LF,target,right,aqua,pleasantness,liberal,yes,7,1,0.950209587885,-,-
2019_Oct_18,16,001,2,source,6,TOUSLED,LF,target,left,yellow,imageability,conservative,no,1,1,1.36692910672,-,-
2019_Oct_18,16,001,2,source,7,BANALITY,LF,target,right,aqua,pleasantness,conservative,no,7,1,1.43348984908,-,-
2019_Oct_18,16,001,2,source,8,ECHELONS,LF,target,left,yellow,imageability,liberal,no,8,0,1.96669103366,-,-
2019_Oct_18,16,001,2,source,9,HUSBAND,HF,target,left,yellow,imageability,liberal,no,1,1,0.783533511699,-,-
2019_Oct_18,16,001,2,source,10,EDICT,LF,target,left,yellow,imageability,liberal,no,1,1,1.13350458659,-,-
2019_Oct_18,16,001,2,source,11,IRONICAL,LF,target,right,aqua,pleasantness,liberal,yes,2,0,1.13351228529,-,-
2019_Oct_18,16,001,2,source,12,FLAGGED,LF,target,left,yellow,imageability,liberal,no,1,1,1.71685655566,-,-
2019_Oct_18,16,001,2,source,13,ALTHOUGH,HF,target,left,yellow,imageability,liberal,no,3,1,1.45015459719,-,-
2019_Oct_18,16,001,2,source,14,SUCCESS,HF,target,right,aqua,pleasantness,liberal,no,9,1,1.33352775601,-,-
2019_Oct_18,16,001,2,source,15,IRISES,LF,target,right,aqua,pleasantness,conservative,no,9,1,0.833570282146,-,-
2019_Oct_18,16,001,2,source,16,DARKEN,LF,target,right,aqua,pleasantness,liberal,no,9,1,0.733556131207,-,-
2019_Oct_18,16,001,2,source,17,LABOUR,HF,target,left,yellow,imageability,conservative,no,1,1,0.833668165591,-,-
2019_Oct_18,16,001,2,source,18,LOTTERY,LF,target,right,aqua,pleasantness,liberal,no,9,1,1.08356130033,-,-
2019_Oct_18,16,001,2,source,19,NOXIOUS,LF,target,left,yellow,imageability,conservative,no,1,1,1.38349560478,-,-
2019_Oct_18,16,001,2,source,20,PAPER,HF,target,left,yellow,imageability,liberal,no,1,1,0.799997727051,-,-
2019_Oct_18,16,001,2,source,21,HAVING,HF,target,right,aqua,pleasantness,conservative,no,8,1,1.28354011058,-,-
2019_Oct_18,16,001,2,source,22,WRONG,HF,target,right,aqua,pleasantness,conservative,no,9,1,1.78352214695,-,-
2019_Oct_18,16,001,2,source,23,WHITE,HF,target,left,yellow,imageability,conservative,no,1,1,0.800235653477,-,-
2019_Oct_18,16,001,2,source,24,MAKES,HF,target,left,yellow,imageability,conservative,yes,3,1,0.950179526303,-,-
2019_Oct_18,16,001,2,source,25,FEELING,HF,target,left,yellow,imageability,conservative,no,3,1,2.36682095835,-,-
2019_Oct_18,16,001,2,source,26,DERANGED,LF,target,right,aqua,pleasantness,conservative,no,8,1,1.81684174483,-,-
2019_Oct_18,16,001,2,source,27,EGOISM,LF,target,right,aqua,pleasantness,liberal,no,1,0,1.3502079015,-,-
2019_Oct_18,16,001,2,source,28,BUCKED,LF,target,left,yellow,imageability,conservative,yes,1,1,1.05001404096,-,-
2019_Oct_18,16,001,2,source,29,FUDGE,LF,target,left,yellow,imageability,liberal,no,1,1,0.850230630993,-,-
2019_Oct_18,16,001,2,source,30,REPORT,HF,target,right,aqua,pleasantness,liberal,no,9,1,0.733528269252,-,-
2019_Oct_18,16,001,2,source,31,WAITING,HF,target,right,aqua,pleasantness,liberal,no,7,1,2.15013194102,-,-
2019_Oct_18,16,001,2,source,32,SAGES,LF,target,right,aqua,pleasantness,conservative,no,9,1,1.03360811575,-,-
2019_Oct_18,16,001,2,source,33,SADDER,LF,target,right,aqua,pleasantness,conservative,no,9,1,1.200210871,-,-
2019_Oct_18,16,001,2,source,34,CHIEF,HF,target,right,aqua,pleasantness,liberal,no,9,1,0.750238476332,-,-
2019_Oct_18,16,001,2,source,35,NURTURING,LF,target,right,aqua,pleasantness,liberal,no,8,1,1.28353791095,-,-
2019_Oct_18,16,001,2,source,36,QUALITY,HF,target,right,aqua,pleasantness,conservative,no,9,1,0.933354205359,-,-
2019_Oct_18,16,001,2,source,37,TABLE,HF,target,right,aqua,pleasantness,conservative,no,9,1,1.13351851757,-,-
2019_Oct_18,16,001,2,source,38,TEETERED,LF,target,left,yellow,imageability,conservative,no,2,1,1.61696008482,-,-
2019_Oct_18,16,001,2,source,39,INCLUDING,HF,target,left,yellow,imageability,conservative,no,1,1,1.16688284122,-,-
2019_Oct_18,16,001,2,source,40,FIELD,HF,target,left,yellow,imageability,liberal,no,1,1,0.833526289587,-,-
2019_Oct_18,16,001,2,source,41,DECIDED,HF,target,left,yellow,imageability,conservative,no,7,0,1.2669318196,-,-
2019_Oct_18,16,001,2,source,42,VOLITION,LF,target,left,yellow,imageability,liberal,no,7,0,1.26689955839,-,-
2019_Oct_18,16,001,2,source,43,SNAGS,LF,target,left,yellow,imageability,liberal,no,8,0,1.50012134614,-,-
2019_Oct_18,16,001,2,source,44,NOURISH,LF,target,left,yellow,imageability,conservative,no,1,1,0.866898311932,-,-
2019_Oct_18,16,001,2,source,45,EUPHEMISM,LF,target,right,aqua,pleasantness,conservative,no,9,1,2.43344145727,-,-
2019_Oct_18,16,001,2,source,46,SOCIAL,HF,target,left,yellow,imageability,liberal,no,1,1,0.716940141524,-,-
2019_Oct_18,16,001,2,source,47,DOING,HF,target,right,aqua,pleasantness,liberal,no,1,0,1.78349538481,-,-
2019_Oct_18,16,001,2,recog,0,TRUTH,HF,lure,-,-,-,liberal,no,m,1,1.23355869744,1,339
2019_Oct_18,16,001,2,recog,1,FIELD,HF,target,left,yellow,imageability,liberal,no,z,1,0.700286391562,3,342
2019_Oct_18,16,001,2,recog,2,TWENTY,HF,lure,-,-,-,conservative,no,m,1,1.15001352771,3,345
2019_Oct_18,16,001,2,recog,3,HYENA,LF,lure,-,-,-,conservative,no,m,1,0.750197783215,3,348
2019_Oct_18,16,001,2,recog,4,IRISES,LF,target,right,aqua,pleasantness,conservative,no,z,1,0.783525813001,1,349
2019_Oct_18,16,001,2,recog,5,LABOUR,HF,target,left,yellow,imageability,conservative,no,z,1,0.733560163858,1,350
2019_Oct_18,16,001,2,recog,6,MAKES,HF,target,left,yellow,imageability,conservative,no,m,0,1.56686649065,-1,349
2019_Oct_18,16,001,2,recog,7,TOTAL,HF,lure,-,-,-,conservative,no,m,1,0.966891566407,3,352
2019_Oct_18,16,001,2,recog,8,TOMBSTONE,LF,target,left,yellow,imageability,conservative,no,z,1,0.63352731608,1,353
2019_Oct_18,16,001,2,recog,9,TOUSLED,LF,target,left,yellow,imageability,conservative,no,z,1,1.0502607659,1,354
2019_Oct_18,16,001,2,recog,10,INCLUDING,HF,target,left,yellow,imageability,conservative,no,z,1,0.666903371076,1,355
2019_Oct_18,16,001,2,recog,11,REPORT,HF,target,right,aqua,pleasantness,liberal,no,z,1,1.24996205642,3,358
2019_Oct_18,16,001,2,recog,12,SEMANTIC,LF,lure,-,-,-,conservative,no,m,1,1.35021193415,3,361
2019_Oct_18,16,001,2,recog,13,OPENED,HF,lure,-,-,-,conservative,no,m,1,1.71685728887,3,364
2019_Oct_18,16,001,2,recog,14,DECIDED,HF,target,left,yellow,imageability,conservative,no,z,1,1.03358758589,1,365
2019_Oct_18,16,001,2,recog,15,SCYTHE,LF,lure,-,-,-,conservative,no,m,1,0.716828327102,3,368
2019_Oct_18,16,001,2,recog,16,LEVEL,HF,lure,-,-,-,conservative,no,m,1,0.816923131068,3,371
2019_Oct_18,16,001,2,recog,17,MENFOLK,LF,lure,-,-,-,liberal,no,m,1,1.10021688332,1,372
2019_Oct_18,16,001,2,recog,18,SITTING,HF,lure,-,-,-,liberal,no,m,1,1.50022509526,1,373
2019_Oct_18,16,001,2,recog,19,HUSBAND,HF,target,left,yellow,imageability,liberal,no,z,1,0.650197563252,3,376
2019_Oct_18,16,001,2,recog,20,ADDED,HF,target,left,yellow,imageability,liberal,no,z,1,0.600274440249,3,379
2019_Oct_18,16,001,2,recog,21,SOCIAL,HF,target,left,yellow,imageability,liberal,no,z,1,0.600195986852,3,382
2019_Oct_18,16,001,2,recog,22,FEELING,HF,target,left,yellow,imageability,conservative,no,z,1,0.733581060323,1,383
2019_Oct_18,16,001,2,recog,23,NURTURING,LF,target,right,aqua,pleasantness,liberal,no,z,1,0.766909456714,3,386
2019_Oct_18,16,001,2,recog,24,VOLITION,LF,target,left,yellow,imageability,liberal,no,z,1,0.683525959642,3,389
2019_Oct_18,16,001,2,recog,25,SNAGS,LF,target,left,yellow,imageability,liberal,no,z,1,0.600286904808,3,392
2019_Oct_18,16,001,2,recog,26,FECKLESS,LF,lure,-,-,-,conservative,no,m,1,0.816860075066,3,395
2019_Oct_18,16,001,2,recog,27,WHITE,HF,target,left,yellow,imageability,conservative,no,z,1,0.616657269367,1,396
2019_Oct_18,16,001,2,recog,28,IMPORTANT,HF,target,right,aqua,pleasantness,conservative,no,z,1,1.83361244168,1,397
2019_Oct_18,16,001,2,recog,29,EITHER,HF,lure,-,-,-,conservative,no,m,1,1.25020878135,3,400
2019_Oct_18,16,001,2,recog,30,SPLASHES,LF,lure,-,-,-,liberal,no,m,1,0.933597264249,1,401
2019_Oct_18,16,001,2,recog,31,EUPHEMISM,LF,target,right,aqua,pleasantness,conservative,no,z,1,0.683568485783,1,402
2019_Oct_18,16,001,2,recog,32,ALERTING,LF,lure,-,-,-,conservative,no,m,1,0.750197783215,3,405
2019_Oct_18,16,001,2,recog,33,AMONG,HF,lure,-,-,-,liberal,no,m,1,1.03352343007,1,406
2019_Oct_18,16,001,2,recog,34,NIGHT,HF,lure,-,-,-,conservative,no,m,1,2.06682909697,3,409
2019_Oct_18,16,001,2,recog,35,IRONICAL,LF,target,right,aqua,pleasantness,liberal,no,z,1,0.966853072917,3,412
2019_Oct_18,16,001,2,recog,36,PAPER,HF,target,left,yellow,imageability,liberal,no,z,1,0.966849773475,3,415
2019_Oct_18,16,001,2,recog,37,GRUBS,LF,target,right,aqua,pleasantness,liberal,no,z,1,0.616860001745,3,418
2019_Oct_18,16,001,2,recog,38,LOUDEST,LF,lure,-,-,-,conservative,no,m,1,1.56691194963,3,421
2019_Oct_18,16,001,2,recog,39,GARDEN,HF,lure,-,-,-,liberal,no,m,1,0.833581646891,1,422
2019_Oct_18,16,001,2,recog,40,INLAID,LF,lure,-,-,-,conservative,no,m,1,0.800028521843,3,425
2019_Oct_18,16,001,2,recog,41,DITTO,LF,lure,-,-,-,liberal,no,m,1,0.850185172015,1,426
2019_Oct_18,16,001,2,recog,42,SORRY,HF,lure,-,-,-,liberal,no,m,1,0.733621386836,1,427
2019_Oct_18,16,001,2,recog,43,LARGE,HF,lure,-,-,-,liberal,no,m,1,0.850184438805,1,428
2019_Oct_18,16,001,2,recog,44,FLAGGED,LF,target,left,yellow,imageability,liberal,no,z,1,0.750281735682,3,431
2019_Oct_18,16,001,2,recog,45,TABLE,HF,target,right,aqua,pleasantness,conservative,no,z,1,0.616908026956,1,432
2019_Oct_18,16,001,2,recog,46,SAGES,LF,target,right,aqua,pleasantness,conservative,no,z,1,0.700242032397,1,433
2019_Oct_18,16,001,2,recog,47,ECHELONS,LF,target,left,yellow,imageability,liberal,no,z,1,0.983388776178,3,436
2019_Oct_18,16,001,2,recog,48,NOURISH,LF,target,left,yellow,imageability,conservative,no,z,1,0.633362710587,1,437
2019_Oct_18,16,001,2,recog,49,BASIC,HF,lure,-,-,-,liberal,no,m,1,0.750209881169,1,438
2019_Oct_18,16,001,2,recog,50,GNARLED,LF,lure,-,-,-,liberal,no,m,1,0.83366963201,1,439
2019_Oct_18,16,001,2,recog,51,ALTHOUGH,HF,target,left,yellow,imageability,liberal,no,m,0,1.55014491882,-3,436
2019_Oct_18,16,001,2,recog,52,NOXIOUS,LF,target,left,yellow,imageability,conservative,no,z,1,0.800280379245,1,437
2019_Oct_18,16,001,2,recog,53,BANALITY,LF,target,right,aqua,pleasantness,conservative,no,z,1,1.05022667166,1,438
2019_Oct_18,16,001,2,recog,54,TEETERED,LF,target,left,yellow,imageability,conservative,no,z,1,0.700247164863,1,439
2019_Oct_18,16,001,2,recog,55,EDICT,LF,target,left,yellow,imageability,liberal,no,z,1,0.700230667653,3,442
2019_Oct_18,16,001,2,recog,56,WAITING,HF,target,right,aqua,pleasantness,liberal,no,z,1,0.600215783504,3,445
2019_Oct_18,16,001,2,recog,57,DUCHY,LF,lure,-,-,-,conservative,no,m,1,0.650043589294,3,448
2019_Oct_18,16,001,2,recog,58,UNTIL,HF,lure,-,-,-,liberal,no,m,1,0.800186528452,1,449
2019_Oct_18,16,001,2,recog,59,LOTTERY,LF,target,right,aqua,pleasantness,liberal,no,z,1,1.43349314853,3,452
2019_Oct_18,16,001,2,recog,60,QUALITY,HF,target,right,aqua,pleasantness,conservative,yes,m,0,1.00021886298,-1,451
2019_Oct_18,16,001,2,recog,61,COMES,HF,target,right,aqua,pleasantness,conservative,no,z,1,2.00017230419,1,452
2019_Oct_18,16,001,2,recog,62,SADDER,LF,target,right,aqua,pleasantness,conservative,no,z,1,0.766872063038,1,453
2019_Oct_18,16,001,2,recog,63,CHIEF,HF,target,right,aqua,pleasantness,liberal,no,z,1,0.600247678109,3,456
2019_Oct_18,16,001,2,recog,64,GIVEN,HF,lure,-,-,-,conservative,yes,z,0,0.550213840499,-3,453
2019_Oct_18,16,001,2,recog,65,CHEEKBONE,LF,lure,-,-,-,liberal,no,m,1,2.10017032453,1,454
2019_Oct_18,16,001,2,recog,66,DAWDLING,LF,lure,-,-,-,conservative,no,m,1,0.866898678537,3,457
2019_Oct_18,16,001,2,recog,67,WIPERS,LF,lure,-,-,-,liberal,no,m,1,0.733575561253,1,458
2019_Oct_18,16,001,2,recog,68,HANDS,HF,lure,-,-,-,conservative,no,m,1,0.750236276705,3,461
2019_Oct_18,16,001,2,recog,69,NEPHEWS,LF,lure,-,-,-,conservative,no,m,1,0.650248887905,3,464
2019_Oct_18,16,001,2,recog,70,WRONG,HF,target,right,aqua,pleasantness,conservative,no,m,0,1.43351771104,-1,463
2019_Oct_18,16,001,2,recog,71,HAVING,HF,target,right,aqua,pleasantness,conservative,no,m,0,1.13345179552,-1,462
2019_Oct_18,16,001,2,recog,72,PRUDENTLY,LF,lure,-,-,-,liberal,no,m,1,1.03354505975,1,463
2019_Oct_18,16,001,2,recog,73,FUDGE,LF,target,left,yellow,imageability,liberal,yes,m,0,1.06699296926,-3,460
2019_Oct_18,16,001,2,recog,74,BUCKED,LF,target,left,yellow,imageability,conservative,no,m,0,1.4834925253,-1,459
2019_Oct_18,16,001,2,recog,75,CONCERNED,HF,lure,-,-,-,liberal,no,m,1,3.58342455679,1,460
2019_Oct_18,16,001,2,recog,76,DERANGED,LF,target,right,aqua,pleasantness,conservative,no,z,1,0.716704781331,1,461
2019_Oct_18,16,001,2,recog,77,BECAME,HF,lure,-,-,-,liberal,no,m,1,0.816857875438,1,462
2019_Oct_18,16,001,2,recog,78,MINISTER,HF,lure,-,-,-,conservative,no,m,1,0.666934532473,3,465
2019_Oct_18,16,001,2,recog,79,KRAALS,LF,lure,-,-,-,liberal,no,m,1,0.666909603356,1,466
2019_Oct_18,16,001,2,recog,80,SOMEONE,HF,lure,-,-,-,liberal,no,m,1,0.766852999596,1,467
2019_Oct_18,16,001,2,recog,81,DARKEN,LF,target,right,aqua,pleasantness,liberal,no,z,1,0.916852596331,3,470
2019_Oct_18,16,001,2,recog,82,SENSE,HF,target,right,aqua,pleasantness,liberal,no,z,1,0.616916825468,3,473
2019_Oct_18,16,001,2,recog,83,BOWER,LF,lure,-,-,-,conservative,no,m,1,0.900178316508,3,476
2019_Oct_18,16,001,2,recog,84,DOING,HF,target,right,aqua,pleasantness,liberal,no,z,1,1.48361607107,3,479
2019_Oct_18,16,001,2,recog,85,PONCE,LF,lure,-,-,-,liberal,no,m,1,0.700331483935,1,480
2019_Oct_18,16,001,2,recog,86,FREEDOM,HF,lure,-,-,-,conservative,no,m,1,0.750340759033,3,483
2019_Oct_18,16,001,2,recog,87,THRASH,LF,lure,-,-,-,liberal,no,m,1,0.833591178612,1,484
2019_Oct_18,16,001,2,recog,88,ALONE,HF,lure,-,-,-,conservative,no,m,1,0.850203135643,3,487
2019_Oct_18,16,001,2,recog,89,RECENT,HF,lure,-,-,-,conservative,yes,m,1,1.28363762742,3,490
2019_Oct_18,16,001,2,recog,90,SUCCESS,HF,target,right,aqua,pleasantness,liberal,no,z,1,1.01684805043,3,493
2019_Oct_18,16,001,2,recog,91,HIGHER,HF,lure,-,-,-,liberal,no,m,1,0.63358633943,1,494
2019_Oct_18,16,001,2,recog,92,REWRITE,LF,lure,-,-,-,liberal,no,m,1,0.666885040843,1,495
2019_Oct_18,16,001,2,recog,93,SYNDICATE,LF,lure,-,-,-,liberal,no,m,1,0.633580107151,1,496
2019_Oct_18,16,001,2,recog,94,EGOISM,LF,target,right,aqua,pleasantness,liberal,no,z,1,0.733624319673,3,499
2019_Oct_18,16,001,2,recog,95,HECTOR,LF,lure,-,-,-,conservative,no,m,1,0.616922691142,3,502
2019_Oct_18,16,001,3,source,0,BEYOND,HF,target,left,yellow,imageability,conservative,yes,7,0,1.23355283176,-,-
2019_Oct_18,16,001,3,source,1,ROTARY,LF,target,right,aqua,pleasantness,liberal,no,9,1,1.28347375514,-,-
2019_Oct_18,16,001,3,source,2,SOPHISTS,LF,target,right,aqua,pleasantness,liberal,yes,2,0,1.35026435862,-,-
2019_Oct_18,16,001,3,source,3,QUESTION,HF,target,left,yellow,imageability,liberal,no,2,1,2.11681344295,-,-
2019_Oct_18,16,001,3,source,4,BABBLED,LF,target,right,aqua,pleasantness,conservative,yes,3,0,1.21662889417,-,-
2019_Oct_18,16,001,3,source,5,SONAR,LF,target,left,yellow,imageability,liberal,no,1,1,0.900193713903,-,-
2019_Oct_18,16,001,3,source,6,FORCE,HF,target,right,aqua,pleasantness,conservative,no,8,1,1.21662852756,-,-
2019_Oct_18,16,001,3,source,7,TAGGED,LF,target,right,aqua,pleasantness,liberal,no,7,1,1.56683679567,-,-
2019_Oct_18,16,001,3,source,8,MEMBERS,HF,target,left,yellow,imageability,liberal,no,1,1,2.96657555319,-,-
2019_Oct_18,16,001,3,source,9,EVIDENCE,HF,target,right,aqua,pleasantness,conservative,no,9,1,1.26683100332,-,-
2019_Oct_18,16,001,3,source,10,YOUNG,HF,target,right,aqua,pleasantness,conservative,no,9,1,0.733523869996,-,-
2019_Oct_18,16,001,3,source,11,ZOOLOGY,LF,target,left,yellow,imageability,conservative,no,1,1,0.683527792666,-,-
2019_Oct_18,16,001,3,source,12,ACQUIRES,LF,target,right,aqua,pleasantness,conservative,no,2,0,2.01683448606,-,-
2019_Oct_18,16,001,3,source,13,GERANIUMS,LF,target,left,yellow,imageability,conservative,no,1,1,0.750190451122,-,-
2019_Oct_18,16,001,3,source,14,NESTING,LF,target,right,aqua,pleasantness,conservative,no,9,1,0.750138759864,-,-
2019_Oct_18,16,001,3,source,15,CHOICE,HF,target,left,yellow,imageability,conservative,no,2,1,1.11694028817,-,-
2019_Oct_18,16,001,3,source,16,JOCKEYS,LF,target,left,yellow,imageability,liberal,no,1,1,0.633535014778,-,-
2019_Oct_18,16,001,3,source,17,APPEARED,HF,target,left,yellow,imageability,conservative,no,3,1,1.66664968065,-,-
2019_Oct_18,16,001,3,source,18,NORTH,HF,target,right,aqua,pleasantness,conservative,no,9,1,0.733602323394,-,-
2019_Oct_18,16,001,3,source,19,ENGULF,LF,target,right,aqua,pleasantness,liberal,no,2,0,1.15018913134,-,-
2019_Oct_18,16,001,3,source,20,EVADING,LF,target,right,aqua,pleasantness,liberal,no,3,0,1.43349351513,-,-
2019_Oct_18,16,001,3,source,21,ECONOMIC,HF,target,right,aqua,pleasantness,liberal,no,9,1,1.58348431335,-,-
2019_Oct_18,16,001,3,source,22,AROUND,HF,target,right,aqua,pleasantness,liberal,no,8,1,1.25001301447,-,-
2019_Oct_18,16,001,3,source,23,OUGHT,HF,target,left,yellow,imageability,liberal,no,3,1,1.73352387,-,-
2019_Oct_18,16,001,3,source,24,HERSELF,HF,target,right,aqua,pleasantness,liberal,no,9,1,0.816753026505,-,-
2019_Oct_18,16,001,3,source,25,BUSINESS,HF,target,left,yellow,imageability,conservative,no,1,1,0.950178426488,-,-
2019_Oct_18,16,001,3,source,26,PREPARED,HF,target,left,yellow,imageability,liberal,no,7,0,1.35020423546,-,-
2019_Oct_18,16,001,3,source,27,VIVACIOUS,LF,target,right,aqua,pleasantness,conservative,no,9,1,1.26666529801,-,-
2019_Oct_18,16,001,3,source,28,LIZARD,LF,target,left,yellow,imageability,liberal,no,1,1,0.750242508984,-,-
2019_Oct_18,16,001,3,source,29,UNION,HF,target,left,yellow,imageability,conservative,no,1,1,2.25015415726,-,-
2019_Oct_18,16,001,3,source,30,DILATED,LF,target,left,yellow,imageability,liberal,yes,1,1,1.03341014923,-,-
2019_Oct_18,16,001,3,source,31,DOUBT,HF,target,right,aqua,pleasantness,conservative,no,8,1,1.2168829512,-,-
2019_Oct_18,16,001,3,source,32,FOAMING,LF,target,left,yellow,imageability,liberal,no,1,1,0.766862897922,-,-
2019_Oct_18,16,001,3,source,33,INSIDE,HF,target,right,aqua,pleasantness,conservative,no,9,1,0.799995160819,-,-
2019_Oct_18,16,001,3,source,34,CHURCH,HF,target,left,yellow,imageability,conservative,no,1,1,0.733634951208,-,-
2019_Oct_18,16,001,3,source,35,MOTHER,HF,target,right,aqua,pleasantness,liberal,no,9,1,0.750180186191,-,-
2019_Oct_18,16,001,3,source,36,JAUNDICE,LF,target,left,yellow,imageability,conservative,no,1,1,0.733525336415,-,-
2019_Oct_18,16,001,3,source,37,UNSAVOURY,LF,target,right,aqua,pleasantness,conservative,no,9,1,1.33349292856,-,-
2019_Oct_18,16,001,3,source,38,OUTSIDE,HF,target,left,yellow,imageability,liberal,no,1,1,0.816854209391,-,-
2019_Oct_18,16,001,3,source,39,UMBILICAL,LF,target,right,aqua,pleasantness,conservative,no,9,1,0.866925807282,-,-
2019_Oct_18,16,001,3,source,40,MYSELF,HF,target,right,aqua,pleasantness,liberal,no,8,1,1.25021757987,-,-
2019_Oct_18,16,001,3,source,41,BACHELORS,LF,target,left,yellow,imageability,liberal,no,1,1,0.733615521161,-,-
2019_Oct_18,16,001,3,source,42,GIRLS,HF,target,right,aqua,pleasantness,liberal,no,9,1,1.4834925253,-,-
2019_Oct_18,16,001,3,source,43,AUDACIOUS,LF,target,right,aqua,pleasantness,liberal,no,3,0,1.70014488216,-,-
2019_Oct_18,16,001,3,source,44,RAKING,LF,target,left,yellow,imageability,conservative,no,1,1,0.933361170847,-,-
2019_Oct_18,16,001,3,source,45,GAMBITS,LF,target,left,yellow,imageability,conservative,no,2,1,1.33358531294,-,-
2019_Oct_18,16,001,3,source,46,AVENGE,LF,target,left,yellow,imageability,conservative,no,1,1,1.10031953262,-,-
2019_Oct_18,16,001,3,source,47,LETTER,HF,target,left,yellow,imageability,liberal,no,1,1,0.850217433225,-,-
2019_Oct_18,16,001,3,recog,0,FLECKED,LF,lure,-,-,-,liberal,no,m,1,1.23355246516,1,503
2019_Oct_18,16,001,3,recog,1,VIVACIOUS,LF,target,right,aqua,pleasantness,conservative,no,z,1,0.850364075089,1,504
2019_Oct_18,16,001,3,recog,2,PREPARED,HF,target,left,yellow,imageability,liberal,no,z,1,0.783550008909,3,507
2019_Oct_18,16,001,3,recog,3,SOAPY,LF,lure,-,-,-,conservative,no,m,1,0.833542786797,3,510
2019_Oct_18,16,001,3,recog,4,LIZARD,LF,target,left,yellow,imageability,liberal,no,z,1,0.683617977413,3,513
2019_Oct_18,16,001,3,recog,5,DOUBT,HF,target,right,aqua,pleasantness,conservative,no,z,1,1.26687756211,1,514
2019_Oct_18,16,001,3,recog,6,NESTING,LF,target,right,aqua,pleasantness,conservative,no,z,1,0.633631798409,1,515
2019_Oct_18,16,001,3,recog,7,EXUDED,LF,lure,-,-,-,conservative,no,m,1,1.03352086384,3,518
2019_Oct_18,16,001,3,recog,8,CHOICE,HF,target,left,yellow,imageability,conservative,no,z,1,1.43357636778,1,519
2019_Oct_18,16,001,3,recog,9,NORTH,HF,target,right,aqua,pleasantness,conservative,no,z,1,0.733606356045,1,520
2019_Oct_18,16,001,3,recog,10,DILATED,LF,target,left,yellow,imageability,liberal,no,z,1,1.0169400682,3,523
2019_Oct_18,16,001,3,recog,11,FULCRUM,LF,lure,-,-,-,conservative,no,m,1,0.883520167289,3,526
2019_Oct_18,16,001,3,recog,12,MORNING,HF,lure,-,-,-,conservative,no,m,1,0.800229787802,3,529
2019_Oct_18,16,001,3,recog,13,ZOOLOGY,LF,target,left,yellow,imageability,conservative,no,z,1,0.650237889765,1,530
2019_Oct_18,16,001,3,recog,14,CUSTODIAN,LF,lure,-,-,-,conservative,no,m,1,0.80004721868,3,533
2019_Oct_18,16,001,3,recog,15,POUNDS,HF,lure,-,-,-,liberal,no,m,1,0.800177363335,1,534
2019_Oct_18,16,001,3,recog,16,AVENGE,LF,target,left,yellow,imageability,conservative,no,z,1,0.65021626009,1,535
2019_Oct_18,16,001,3,recog,17,OSTRACISM,LF,lure,-,-,-,conservative,no,m,1,1.50019869973,3,538
2019_Oct_18,16,001,3,recog,18,FUTURE,HF,lure,-,-,-,conservative,no,m,1,1.56676897381,3,541
2019_Oct_18,16,001,3,recog,19,HUMAN,HF,lure,-,-,-,liberal,no,m,1,0.933560603783,1,542
2019_Oct_18,16,001,3,recog,20,EVADING,LF,target,right,aqua,pleasantness,liberal,no,m,0,1.80014253589,-3,539
2019_Oct_18,16,001,3,recog,21,GAMBITS,LF,target,left,yellow,imageability,conservative,no,z,1,0.666709070606,1,540
2019_Oct_18,16,001,3,recog,22,MOMENT,HF,lure,-,-,-,conservative,no,m,1,0.783530578862,3,543
2019_Oct_18,16,001,3,recog,23,FITFUL,LF,lure,-,-,-,liberal,no,m,1,0.766862897922,1,544
2019_Oct_18,16,001,3,recog,24,QUESTION,HF,target,left,yellow,imageability,liberal,no,z,1,0.666864144378,3,547
2019_Oct_18,16,001,3,recog,25,STRAIGHT,HF,lure,-,-,-,conservative,no,m,1,0.783642759888,3,550
2019_Oct_18,16,001,3,recog,26,AROUND,HF,target,right,aqua,pleasantness,liberal,no,z,1,0.633580107151,3,553
2019_Oct_18,16,001,3,recog,27,UNION,HF,target,left,yellow,imageability,conservative,no,z,1,0.666916202239,1,554
2019_Oct_18,16,001,3,recog,28,RAKING,LF,target,left,yellow,imageability,conservative,no,z,1,0.58354773596,1,555
2019_Oct_18,16,001,3,recog,29,INSIDE,HF,target,right,aqua,pleasantness,conservative,no,z,1,0.616903261095,1,556
2019_Oct_18,16,001,3,recog,30,LETTER,HF,target,left,yellow,imageability,liberal,no,z,1,0.56687455595,3,559
2019_Oct_18,16,001,3,recog,31,GIRLS,HF,target,right,aqua,pleasantness,liberal,no,z,1,0.583362234001,3,562
2019_Oct_18,16,001,3,recog,32,ADJOURNED,LF,lure,-,-,-,liberal,no,z,0,1.20022076933,-1,561
2019_Oct_18,16,001,3,recog,33,TAGGED,LF,target,right,aqua,pleasantness,liberal,no,z,1,0.950075043974,3,564
2019_Oct_18,16,001,3,recog,34,CENTRAL,HF,lure,-,-,-,conservative,no,m,1,0.733620287022,3,567
2019_Oct_18,16,001,3,recog,35,PHANTOMS,LF,lure,-,-,-,liberal,no,m,1,0.783556241188,1,568
2019_Oct_18,16,001,3,recog,36,JAUNDICE,LF,target,left,yellow,imageability,conservative,no,z,1,0.58360675931,1,569
2019_Oct_18,16,001,3,recog,37,KEENER,LF,lure,-,-,-,conservative,no,m,1,0.783588135793,3,572
2019_Oct_18,16,001,3,recog,38,SANDAL,LF,lure,-,-,-,conservative,yes,m,1,1.00018366894,3,575
2019_Oct_18,16,001,3,recog,39,FOUND,HF,lure,-,-,-,conservative,no,m,1,0.833568449123,3,578
2019_Oct_18,16,001,3,recog,40,SOPHISTS,LF,target,right,aqua,pleasantness,liberal,no,z,1,1.01684475099,3,581
2019_Oct_18,16,001,3,recog,41,TIGHTNESS,LF,lure,-,-,-,conservative,no,m,1,0.716905314081,3,584
2019_Oct_18,16,001,3,recog,42,DAMASK,LF,lure,-,-,-,liberal,no,m,1,0.766720655313,1,585
2019_Oct_18,16,001,3,recog,43,GERANIUMS,LF,target,left,yellow,imageability,conservative,no,z,1,0.750190084517,1,586
2019_Oct_18,16,001,3,recog,44,BABBLED,LF,target,right,aqua,pleasantness,conservative,no,m,0,2.68337418531,-1,585
2019_Oct_18,16,001,3,recog,45,SCABS,LF,lure,-,-,-,conservative,no,m,1,0.783530212257,3,588
2019_Oct_18,16,001,3,recog,46,BUSINESS,HF,target,left,yellow,imageability,conservative,no,z,1,0.866890979839,1,589
2019_Oct_18,16,001,3,recog,47,PITCHER,LF,lure,-,-,-,liberal,no,m,1,1.60019012118,1,590
2019_Oct_18,16,001,3,recog,48,OUTSIDE,HF,target,left,yellow,imageability,liberal,no,z,1,0.583615924426,3,593
2019_Oct_18,16,001,3,recog,49,PAYOFF,LF,lure,-,-,-,conservative,no,m,1,1.53353076216,3,596
2019_Oct_18,16,001,3,recog,50,VOICE,HF,lure,-,-,-,conservative,no,m,1,0.683587549226,3,599
2019_Oct_18,16,001,3,recog,51,AUDACIOUS,LF,target,right,aqua,pleasantness,liberal,no,z,1,0.78357530463,3,602
2019_Oct_18,16,001,3,recog,52,EDUCATION,HF,lure,-,-,-,liberal,no,m,1,0.650191330973,1,603
2019_Oct_18,16,001,3,recog,53,CHURCH,HF,target,left,yellow,imageability,conservative,no,z,1,0.566886653904,1,604
2019_Oct_18,16,001,3,recog,54,SOVIET,HF,lure,-,-,-,liberal,no,m,1,0.70024459863,1,605
2019_Oct_18,16,001,3,recog,55,TREES,HF,lure,-,-,-,liberal,no,m,1,1.00023352717,1,606
2019_Oct_18,16,001,3,recog,56,SONAR,LF,target,left,yellow,imageability,liberal,no,z,1,0.633510085661,3,609
2019_Oct_18,16,001,3,recog,57,PETERED,LF,lure,-,-,-,liberal,no,z,0,0.93352577634,-1,608
2019_Oct_18,16,001,3,recog,58,ANOINTED,LF,lure,-,-,-,liberal,no,m,1,1.00018183591,1,609
2019_Oct_18,16,001,3,recog,59,ENTIRELY,HF,lure,-,-,-,conservative,no,m,1,0.933563903225,3,612
2019_Oct_18,16,001,3,recog,60,FUNNILY,LF,lure,-,-,-,liberal,no,m,1,0.716878185337,1,613
2019_Oct_18,16,001,3,recog,61,SUBJECT,HF,lure,-,-,-,liberal,no,m,1,0.75020914796,1,614
2019_Oct_18,16,001,3,recog,62,YOUNG,HF,target,right,aqua,pleasantness,conservative,no,z,1,1.21666482142,1,615
2019_Oct_18,16,001,3,recog,63,BROUGHT,HF,lure,-,-,-,liberal,no,m,1,0.916845630843,1,616
2019_Oct_18,16,001,3,recog,64,ACQUIRES,LF,target,right,aqua,pleasantness,conservative,no,z,1,0.950229751142,1,617
2019_Oct_18,16,001,3,recog,65,EVENING,HF,lure,-,-,-,conservative,no,m,1,0.883609985431,3,620
2019_Oct_18,16,001,3,recog,66,UMBILICAL,LF,target,right,aqua,pleasantness,conservative,no,z,1,0.716603965049,1,621
2019_Oct_18,16,001,3,recog,67,FORCE,HF,target,right,aqua,pleasantness,conservative,no,m,0,0.916894022658,-1,620
2019_Oct_18,16,001,3,recog,68,ENGULF,LF,target,right,aqua,pleasantness,liberal,no,z,1,0.866892812862,3,623
2019_Oct_18,16,001,3,recog,69,APPEARED,HF,target,left,yellow,imageability,conservative,no,z,1,1.0335098657,1,624
2019_Oct_18,16,001,3,recog,70,FOAMING,LF,target,left,yellow,imageability,liberal,no,z,1,0.633574241477,3,627
2019_Oct_18,16,001,3,recog,71,ROTARY,LF,target,right,aqua,pleasantness,liberal,no,z,1,0.600238146388,3,630
2019_Oct_18,16,001,3,recog,72,GUSHED,LF,lure,-,-,-,liberal,no,m,1,0.850213400573,1,631
2019_Oct_18,16,001,3,recog,73,TRIED,HF,lure,-,-,-,conservative,no,m,1,0.800192760731,3,634
2019_Oct_18,16,001,3,recog,74,OUGHT,HF,target,left,yellow,imageability,liberal,yes,m,0,1.43354447318,-3,631
2019_Oct_18,16,001,3,recog,75,RUPTURE,LF,lure,-,-,-,liberal,no,m,1,1.41683389949,1,632
2019_Oct_18,16,001,3,recog,76,FELLS,LF,lure,-,-,-,conservative,yes,m,1,1.11687833198,3,635
2019_Oct_18,16,001,3,recog,77,SMALL,HF,lure,-,-,-,liberal,no,m,1,1.7335165379,1,636
2019_Oct_18,16,001,3,recog,78,UNSAVOURY,LF,target,right,aqua,pleasantness,conservative,yes,z,1,1.08359136191,1,637
2019_Oct_18,16,001,3,recog,79,FEVERS,LF,lure,-,-,-,liberal,no,m,1,1.35016097611,1,638
2019_Oct_18,16,001,3,recog,80,AHEAD,HF,lure,-,-,-,conservative,no,m,1,1.05026846459,3,641
2019_Oct_18,16,001,3,recog,81,THOUSAND,HF,lure,-,-,-,liberal,no,m,1,0.800240785942,1,642
2019_Oct_18,16,001,3,recog,82,MEMBERS,HF,target,left,yellow,imageability,liberal,no,z,1,0.750244708612,3,645
2019_Oct_18,16,001,3,recog,83,TOWARDS,HF,lure,-,-,-,liberal,no,m,1,0.71689504915,1,646
2019_Oct_18,16,001,3,recog,84,HERSELF,HF,target,right,aqua,pleasantness,liberal,no,z,1,0.650252187347,3,649
2019_Oct_18,16,001,3,recog,85,MOTHER,HF,target,right,aqua,pleasantness,liberal,no,z,1,0.500139676376,3,652
2019_Oct_18,16,001,3,recog,86,BEYOND,HF,target,left,yellow,imageability,conservative,no,z,1,1.06668135529,1,653
2019_Oct_18,16,001,3,recog,87,ABLAZE,LF,lure,-,-,-,conservative,no,m,1,0.800196060173,3,656
2019_Oct_18,16,001,3,recog,88,EXACTLY,HF,lure,-,-,-,conservative,no,m,1,0.883653244781,3,659
2019_Oct_18,16,001,3,recog,89,BACHELORS,LF,target,left,yellow,imageability,liberal,no,z,1,0.633519617382,3,662
2019_Oct_18,16,001,3,recog,90,ECONOMIC,HF,target,right,aqua,pleasantness,liberal,no,z,1,0.700277226445,3,665
2019_Oct_18,16,001,3,recog,91,MYSELF,HF,target,right,aqua,pleasantness,liberal,no,z,1,0.583619590473,3,668
2019_Oct_18,16,001,3,recog,92,TOGETHER,HF,lure,-,-,-,liberal,no,z,0,0.983515621391,-1,667
2019_Oct_18,16,001,3,recog,93,TERMS,HF,lure,-,-,-,liberal,no,m,1,0.650245588463,1,668
2019_Oct_18,16,001,3,recog,94,JOCKEYS,LF,target,left,yellow,imageability,liberal,no,z,1,0.650240089393,3,671
2019_Oct_18,16,001,3,recog,95,EVIDENCE,HF,target,right,aqua,pleasantness,conservative,no,z,1,0.716887717057,1,672
2019_Oct_18,16,001,4,source,0,VERBALLY,LF,target,left,yellow,imageability,liberal,yes,7,0,1.00028155238,-,-
2019_Oct_18,16,001,4,source,1,ANYONE,HF,target,right,aqua,pleasantness,conservative,no,9,1,1.40017135102,-,-
2019_Oct_18,16,001,4,source,2,BUILDING,HF,target,left,yellow,imageability,conservative,no,1,1,0.783614164724,-,-
2019_Oct_18,16,001,4,source,3,MAMMAL,LF,target,left,yellow,imageability,liberal,no,1,1,0.650293613674,-,-
2019_Oct_18,16,001,4,source,4,ACCORDING,HF,target,left,yellow,imageability,conservative,no,8,0,0.933606062762,-,-
2019_Oct_18,16,001,4,source,5,LAPELS,LF,target,left,yellow,imageability,conservative,no,3,1,2.33343720465,-,-
2019_Oct_18,16,001,4,source,6,CALLED,HF,target,left,yellow,imageability,liberal,no,7,0,1.40021021111,-,-
2019_Oct_18,16,001,4,source,7,SIGNPOST,LF,target,left,yellow,imageability,liberal,no,1,1,0.800254350314,-,-
2019_Oct_18,16,001,4,source,8,PORCHES,LF,target,right,aqua,pleasantness,liberal,no,9,1,0.733369529434,-,-
2019_Oct_18,16,001,4,source,9,TIMES,HF,target,left,yellow,imageability,conservative,no,1,1,0.733527536043,-,-
2019_Oct_18,16,001,4,source,10,SARDINES,LF,target,left,yellow,imageability,conservative,no,1,1,0.933610095412,-,-
2019_Oct_18,16,001,4,source,11,GYMKHANA,LF,target,left,yellow,imageability,liberal,no,1,1,0.766704158103,-,-
2019_Oct_18,16,001,4,source,12,LOCAL,HF,target,left,yellow,imageability,liberal,no,1,1,1.28349648463,-,-
2019_Oct_18,16,001,4,source,13,PHRASED,LF,target,left,yellow,imageability,conservative,no,2,1,1.46682521096,-,-
2019_Oct_18,16,001,4,source,14,BIKINI,LF,target,left,yellow,imageability,liberal,no,1,1,0.866738838904,-,-
2019_Oct_18,16,001,4,source,15,BORAX,LF,target,left,yellow,imageability,conservative,no,1,1,0.866859451838,-,-
2019_Oct_18,16,001,4,source,16,ROCKER,LF,target,right,aqua,pleasantness,conservative,no,8,1,1.26662680452,-,-
2019_Oct_18,16,001,4,source,17,ACTION,HF,target,left,yellow,imageability,conservative,no,8,0,1.01668857741,-,-
2019_Oct_18,16,001,4,source,18,ASKED,HF,target,left,yellow,imageability,liberal,no,7,0,1.65020306232,-,-
2019_Oct_18,16,001,4,source,19,HIMSELF,HF,target,right,aqua,pleasantness,conservative,no,9,1,0.750179819587,-,-
2019_Oct_18,16,001,4,source,20,WESTERN,HF,target,left,yellow,imageability,liberal,no,1,1,0.73358472637,-,-
2019_Oct_18,16,001,4,source,21,RIVER,HF,target,right,aqua,pleasantness,conservative,no,9,1,0.650295813301,-,-
2019_Oct_18,16,001,4,source,22,DULLED,LF,target,right,aqua,pleasantness,conservative,yes,9,1,0.716955172315,-,-
2019_Oct_18,16,001,4,source,23,DEDICATE,LF,target,right,aqua,pleasantness,liberal,no,9,1,1.05021604013,-,-
2019_Oct_18,16,001,4,source,24,FATHER,HF,target,right,aqua,pleasantness,liberal,no,9,1,0.683614311366,-,-
2019_Oct_18,16,001,4,source,25,EMIGRATED,LF,target,right,aqua,pleasantness,conservative,no,8,1,1.14995670399,-,-
2019_Oct_18,16,001,4,source,26,CAPITAL,HF,target,right,aqua,pleasantness,conservative,no,9,1,0.766860331689,-,-
2019_Oct_18,16,001,4,source,27,SERIOUS,HF,target,left,yellow,imageability,conservative,no,2,1,1.18358168355,-,-
2019_Oct_18,16,001,4,source,28,SLOWLY,HF,target,right,aqua,pleasantness,liberal,no,9,1,0.766896258946,-,-
2019_Oct_18,16,001,4,source,29,OBNOXIOUS,LF,target,right,aqua,pleasantness,liberal,no,9,1,0.733366229992,-,-
2019_Oct_18,16,001,4,source,30,HAPPEN,HF,target,left,yellow,imageability,liberal,no,2,1,1.49999376772,-,-
2019_Oct_18,16,001,4,source,31,UNDER,HF,target,left,yellow,imageability,liberal,no,1,1,0.766861431503,-,-
2019_Oct_18,16,001,4,source,32,JELLIES,LF,target,right,aqua,pleasantness,conservative,no,9,1,0.700191807559,-,-
2019_Oct_18,16,001,4,source,33,HALLMARK,LF,target,right,aqua,pleasantness,conservative,yes,1,0,0.700241299188,-,-
2019_Oct_18,16,001,4,source,34,OCTAGONAL,LF,target,right,aqua,pleasantness,liberal,no,9,1,0.816948426789,-,-
2019_Oct_18,16,001,4,source,35,WHATEVER,HF,target,left,yellow,imageability,conservative,no,1,1,0.750314730102,-,-
2019_Oct_18,16,001,4,source,36,ARTIFACTS,LF,target,right,aqua,pleasantness,conservative,no,9,1,0.80019422715,-,-
2019_Oct_18,16,001,4,source,37,PHYSICAL,HF,target,right,aqua,pleasantness,liberal,no,9,1,0.933702846392,-,-
2019_Oct_18,16,001,4,source,38,KENNEL,LF,target,left,yellow,imageability,conservative,no,1,1,0.783522513559,-,-
2019_Oct_18,16,001,4,source,39,IGNOBLE,LF,target,right,aqua,pleasantness,liberal,no,9,1,1.65021296065,-,-
2019_Oct_18,16,001,4,source,40,OTHERS,HF,target,right,aqua,pleasantness,conservative,no,9,1,0.883564159848,-,-
2019_Oct_18,16,001,4,source,41,SWIFTNESS,LF,target,right,aqua,pleasantness,liberal,yes,8,1,0.850341345601,-,-
2019_Oct_18,16,001,4,source,42,KILOWATT,LF,target,left,yellow,imageability,conservative,no,1,1,0.733424153528,-,-
2019_Oct_18,16,001,4,source,43,COVER,HF,target,right,aqua,pleasantness,liberal,no,7,1,1.46666463812,-,-
2019_Oct_18,16,001,4,source,44,ITSELF,HF,target,right,aqua,pleasantness,liberal,no,9,1,0.983508655902,-,-
2019_Oct_18,16,001,4,source,45,WINDOW,HF,target,right,aqua,pleasantness,liberal,no,9,1,0.749986252325,-,-
2019_Oct_18,16,001,4,source,46,REBATE,LF,target,left,yellow,imageability,liberal,no,1,1,1.80022502194,-,-
2019_Oct_18,16,001,4,source,47,RUNNING,HF,target,right,aqua,pleasantness,conservative,no,9,1,0.800245185198,-,-
2019_Oct_18,16,001,4,recog,0,DEGREE,HF,lure,-,-,-,liberal,no,m,1,1.10018132267,1,673
2019_Oct_18,16,001,4,recog,1,PORCHES,LF,target,right,aqua,pleasantness,liberal,no,z,1,0.983540183904,3,676
2019_Oct_18,16,001,4,recog,2,AUBURN,LF,lure,-,-,-,conservative,no,m,1,1.13345656138,3,679
2019_Oct_18,16,001,4,recog,3,KILOWATT,LF,target,left,yellow,imageability,conservative,no,z,1,0.816983620837,1,680
2019_Oct_18,16,001,4,recog,4,WESTERN,HF,target,left,yellow,imageability,liberal,no,z,1,0.666755629398,3,683
2019_Oct_18,16,001,4,recog,5,REBATE,LF,target,left,yellow,imageability,liberal,no,z,1,0.683295731915,3,686
2019_Oct_18,16,001,4,recog,6,SIGNPOST,LF,target,left,yellow,imageability,liberal,no,z,1,0.666909236751,3,689
2019_Oct_18,16,001,4,recog,7,BUILDING,HF,target,left,yellow,imageability,conservative,no,z,1,0.68362640932,1,690
2019_Oct_18,16,001,4,recog,8,FRONT,HF,lure,-,-,-,conservative,no,m,1,1.23363751744,3,693
2019_Oct_18,16,001,4,recog,9,DULLED,LF,target,right,aqua,pleasantness,conservative,no,z,1,0.783572005188,1,694
2019_Oct_18,16,001,4,recog,10,HAPPEN,HF,target,left,yellow,imageability,liberal,no,z,1,1.0502691978,3,697
2019_Oct_18,16,001,4,recog,11,MAJOR,HF,lure,-,-,-,conservative,no,m,1,0.766744484616,3,700
2019_Oct_18,16,001,4,recog,12,TIMES,HF,target,left,yellow,imageability,conservative,no,z,1,0.650288481208,1,701
2019_Oct_18,16,001,4,recog,13,PASSED,HF,lure,-,-,-,conservative,no,m,1,0.850240162714,3,704
2019_Oct_18,16,001,4,recog,14,RUDIMENTS,LF,lure,-,-,-,liberal,no,m,1,1.50015214093,1,705
2019_Oct_18,16,001,4,recog,15,CALLED,HF,target,left,yellow,imageability,liberal,no,z,1,1.88351246859,3,708
2019_Oct_18,16,001,4,recog,16,RIMMED,LF,lure,-,-,-,liberal,no,m,1,0.733614421348,1,709
2019_Oct_18,16,001,4,recog,17,OCTAGONAL,LF,target,right,aqua,pleasantness,liberal,no,z,1,0.633532081941,3,712
2019_Oct_18,16,001,4,recog,18,HALLMARK,LF,target,right,aqua,pleasantness,conservative,yes,m,0,0.983521120461,-1,711
2019_Oct_18,16,001,4,recog,19,ARTIFACTS,LF,target,right,aqua,pleasantness,conservative,no,z,1,2.09995769382,1,712
2019_Oct_18,16,001,4,recog,20,OTHERS,HF,target,right,aqua,pleasantness,conservative,no,z,1,0.666706504373,1,713
2019_Oct_18,16,001,4,recog,21,HIKING,LF,lure,-,-,-,liberal,no,m,1,3.65012754176,1,714
2019_Oct_18,16,001,4,recog,22,JELLIES,LF,target,right,aqua,pleasantness,conservative,no,z,1,0.566848160415,1,715
2019_Oct_18,16,001,4,recog,23,BLOOD,HF,lure,-,-,-,liberal,no,m,1,0.71686352115,1,716
2019_Oct_18,16,001,4,recog,24,DEDICATE,LF,target,right,aqua,pleasantness,liberal,no,z,1,0.616911326398,3,719
2019_Oct_18,16,001,4,recog,25,TRADE,HF,lure,-,-,-,liberal,no,m,1,0.950137733371,1,720
2019_Oct_18,16,001,4,recog,26,HOSPITAL,HF,lure,-,-,-,conservative,no,m,1,0.850234663644,3,723
2019_Oct_18,16,001,4,recog,27,SERIOUS,HF,target,left,yellow,imageability,conservative,no,z,1,0.600253543784,1,724
2019_Oct_18,16,001,4,recog,28,ASKED,HF,target,left,yellow,imageability,liberal,no,z,1,0.633593304919,3,727
2019_Oct_18,16,001,4,recog,29,SWIFTNESS,LF,target,right,aqua,pleasantness,liberal,no,z,1,1.01689570904,3,730
2019_Oct_18,16,001,4,recog,30,OPPOSES,LF,lure,-,-,-,conservative,no,m,1,0.866801528301,3,733
2019_Oct_18,16,001,4,recog,31,FATHER,HF,target,right,aqua,pleasantness,liberal,no,z,1,0.666907770332,3,736
2019_Oct_18,16,001,4,recog,32,DURING,HF,lure,-,-,-,liberal,no,m,1,0.883571858546,1,737
2019_Oct_18,16,001,4,recog,33,COVER,HF,target,right,aqua,pleasantness,liberal,no,z,1,0.583647819032,3,740
2019_Oct_18,16,001,4,recog,34,SAYING,HF,lure,-,-,-,liberal,yes,m,1,1.15021369386,1,741
2019_Oct_18,16,001,4,recog,35,SAFARI,LF,lure,-,-,-,conservative,no,m,1,0.766906890481,3,744
2019_Oct_18,16,001,4,recog,36,MAUSOLEUM,LF,lure,-,-,-,liberal,no,m,1,1.41686799373,1,745
2019_Oct_18,16,001,4,recog,37,DEFEATING,LF,lure,-,-,-,liberal,no,m,1,1.75025753977,1,746
2019_Oct_18,16,001,4,recog,38,AGONIZED,LF,lure,-,-,-,conservative,no,m,1,1.75019705001,3,749
2019_Oct_18,16,001,4,recog,39,SCUFFED,LF,lure,-,-,-,conservative,no,m,1,1.60018828815,3,752
2019_Oct_18,16,001,4,recog,40,FIGURE,HF,lure,-,-,-,liberal,no,m,1,1.45020958789,1,753
2019_Oct_18,16,001,4,recog,41,LOCAL,HF,target,left,yellow,imageability,liberal,no,z,1,1.21688111817,3,756
2019_Oct_18,16,001,4,recog,42,SKETCHY,LF,lure,-,-,-,conservative,no,m,1,1.53354835919,3,759
2019_Oct_18,16,001,4,recog,43,PIQUE,LF,lure,-,-,-,conservative,no,m,1,0.916941314659,3,762
2019_Oct_18,16,001,4,recog,44,COUNCIL,HF,lure,-,-,-,conservative,no,m,1,0.650343838512,3,765
2019_Oct_18,16,001,4,recog,45,LOPSIDED,LF,lure,-,-,-,liberal,no,m,1,0.650311943907,1,766
2019_Oct_18,16,001,4,recog,46,RIVER,HF,target,right,aqua,pleasantness,conservative,no,z,1,0.65024375544,1,767
2019_Oct_18,16,001,4,recog,47,UNDER,HF,target,left,yellow,imageability,liberal,no,z,1,0.616863667792,3,770
2019_Oct_18,16,001,4,recog,48,VERBALLY,LF,target,left,yellow,imageability,liberal,no,z,1,0.900287564697,3,773
2019_Oct_18,16,001,4,recog,49,DYEING,LF,lure,-,-,-,liberal,no,m,1,0.866859818443,1,774
2019_Oct_18,16,001,4,recog,50,WHATEVER,HF,target,left,yellow,imageability,conservative,no,z,1,0.583540037262,1,775
2019_Oct_18,16,001,4,recog,51,KENNEL,LF,target,left,yellow,imageability,conservative,no,z,1,0.583584396426,1,776
2019_Oct_18,16,001,4,recog,52,LEDGES,LF,lure,-,-,-,conservative,no,z,0,0.766910189923,-3,773
2019_Oct_18,16,001,4,recog,53,ROCKER,LF,target,right,aqua,pleasantness,conservative,no,z,1,0.816994618977,1,774
2019_Oct_18,16,001,4,recog,54,CANNOT,HF,lure,-,-,-,conservative,no,m,1,0.933508912526,3,777
2019_Oct_18,16,001,4,recog,55,SUDDENLY,HF,lure,-,-,-,conservative,no,m,1,1.35024199574,3,780
2019_Oct_18,16,001,4,recog,56,USING,HF,lure,-,-,-,conservative,no,m,1,0.833655701033,3,783
2019_Oct_18,16,001,4,recog,57,IGNOBLE,LF,target,right,aqua,pleasantness,liberal,no,z,1,0.9502264517,3,786
2019_Oct_18,16,001,4,recog,58,DREADING,LF,lure,-,-,-,liberal,no,m,1,0.883560860406,1,787
2019_Oct_18,16,001,4,recog,59,BORAX,LF,target,left,yellow,imageability,conservative,no,z,1,0.766948316808,1,788
2019_Oct_18,16,001,4,recog,60,LAPELS,LF,target,left,yellow,imageability,conservative,no,z,1,0.733585826184,1,789
2019_Oct_18,16,001,4,recog,61,ITSELF,HF,target,right,aqua,pleasantness,liberal,no,z,1,0.650199029671,3,792
2019_Oct_18,16,001,4,recog,62,RUNNING,HF,target,right,aqua,pleasantness,conservative,yes,z,1,1.23350260693,1,793
2019_Oct_18,16,001,4,recog,63,EMIGRATED,LF,target,right,aqua,pleasantness,conservative,no,z,1,0.700241665793,1,794
2019_Oct_18,16,001,4,recog,64,BIKINI,LF,target,left,yellow,imageability,liberal,no,z,1,0.533583553235,3,797
2019_Oct_18,16,001,4,recog,65,SARDINES,LF,target,left,yellow,imageability,conservative,no,z,1,0.58353123875,1,798
2019_Oct_18,16,001,4,recog,66,AFTERNOON,HF,lure,-,-,-,liberal,no,m,1,0.766899191783,1,799
2019_Oct_18,16,001,4,recog,67,ANGERS,LF,lure,-,-,-,conservative,no,m,1,1.31687180642,3,802
2019_Oct_18,16,001,4,recog,68,ACCORDING,HF,target,left,yellow,imageability,conservative,no,z,1,1.01668637778,1,803
2019_Oct_18,16,001,4,recog,69,CAPITAL,HF,target,right,aqua,pleasantness,conservative,no,z,1,0.600275540064,1,804
2019_Oct_18,16,001,4,recog,70,COGENT,LF,lure,-,-,-,conservative,no,m,1,0.683567752574,3,807
2019_Oct_18,16,001,4,recog,71,ANYONE,HF,target,right,aqua,pleasantness,conservative,no,z,1,0.600293137088,1,808
2019_Oct_18,16,001,4,recog,72,OBNOXIOUS,LF,target,right,aqua,pleasantness,liberal,no,z,1,0.56688005502,3,811
2019_Oct_18,16,001,4,recog,73,ACTION,HF,target,left,yellow,imageability,conservative,no,z,1,0.91664179865,1,812
2019_Oct_18,16,001,4,recog,74,NECESSARY,HF,lure,-,-,-,liberal,no,m,1,0.800252883896,1,813
2019_Oct_18,16,001,4,recog,75,HITCHING,LF,lure,-,-,-,conservative,no,m,1,0.683529259084,3,816
2019_Oct_18,16,001,4,recog,76,REQUIRED,HF,lure,-,-,-,conservative,no,m,1,0.633542346871,3,819
2019_Oct_18,16,001,4,recog,77,THWART,LF,lure,-,-,-,liberal,no,m,1,0.700220402723,1,820
2019_Oct_18,16,001,4,recog,78,ABOVE,HF,lure,-,-,-,conservative,no,m,1,0.750190817726,3,823
2019_Oct_18,16,001,4,recog,79,TYPHOID,LF,lure,-,-,-,liberal,no,m,1,0.650213693857,1,824
2019_Oct_18,16,001,4,recog,80,TODAY,HF,lure,-,-,-,liberal,no,m,1,0.65033027414,1,825
2019_Oct_18,16,001,4,recog,81,PHYSICAL,HF,target,right,aqua,pleasantness,liberal,no,z,1,0.583544803122,3,828
2019_Oct_18,16,001,4,recog,82,ALMOST,HF,lure,-,-,-,conservative,yes,z,0,0.700261829049,-3,825
2019_Oct_18,16,001,4,recog,83,EXCEPT,HF,lure,-,-,-,conservative,no,m,1,1.03356925565,3,828
2019_Oct_18,16,001,4,recog,84,MODERN,HF,lure,-,-,-,liberal,no,m,1,0.867006826912,1,829
2019_Oct_18,16,001,4,recog,85,PHRASED,LF,target,left,yellow,imageability,conservative,no,z,1,1.06693834516,1,830
2019_Oct_18,16,001,4,recog,86,POACHED,LF,lure,-,-,-,liberal,no,m,1,0.900238073067,1,831
2019_Oct_18,16,001,4,recog,87,SLUGS,LF,lure,-,-,-,liberal,no,m,1,0.883596054454,1,832
2019_Oct_18,16,001,4,recog,88,SLOWLY,HF,target,right,aqua,pleasantness,liberal,no,z,1,0.683365753405,3,835
2019_Oct_18,16,001,4,recog,89,MOLARS,LF,lure,-,-,-,conservative,no,m,1,0.766898458574,3,838
2019_Oct_18,16,001,4,recog,90,WINDOW,HF,target,right,aqua,pleasantness,liberal,no,z,1,0.666816119167,3,841
2019_Oct_18,16,001,4,recog,91,DRINK,HF,lure,-,-,-,liberal,no,m,1,0.766961147971,1,842
2019_Oct_18,16,001,4,recog,92,HIMSELF,HF,target,right,aqua,pleasantness,conservative,no,z,1,0.616866967233,1,843
2019_Oct_18,16,001,4,recog,93,GYMKHANA,LF,target,left,yellow,imageability,liberal,no,z,1,0.683678467182,3,846
2019_Oct_18,16,001,4,recog,94,MAMMAL,LF,target,left,yellow,imageability,liberal,no,z,1,0.833601810147,3,849
2019_Oct_18,16,001,4,recog,95,VARIOUS,HF,lure,-,-,-,liberal,no,m,1,0.71690128143,1,850
