date,subj,session,cycle,task,trial,item,wf,type,source,colour,encoding,bias,null,response,corr,rt,points,total
2019_Oct_18,17,001,0,source,0,YEOMAN,LF,target,right,yellow,imageability,liberal,no,9,1,3.79991450779,-,-
2019_Oct_18,17,001,0,source,1,EXPECT,HF,target,left,aqua,pleasantness,conservative,no,7,0,4.74994372618,-,-
2019_Oct_18,17,001,0,source,2,PALATABLE,LF,target,right,yellow,imageability,liberal,no,2,0,4.2666799622,-,-
2019_Oct_18,17,001,0,source,3,ARRIVED,HF,target,left,aqua,pleasantness,liberal,no,1,1,2.16657379349,-,-
2019_Oct_18,17,001,0,source,4,MEETING,HF,target,left,aqua,pleasantness,conservative,no,9,0,4.66651440353,-,-
2019_Oct_18,17,001,0,source,5,TOGETHER,HF,target,left,aqua,pleasantness,conservative,no,2,1,3.60003724703,-,-
2019_Oct_18,17,001,0,source,6,MODERN,HF,target,left,aqua,pleasantness,conservative,no,1,1,3.73315359929,-,-
2019_Oct_18,17,001,0,source,7,TATTERS,LF,target,left,aqua,pleasantness,conservative,no,8,0,2.81677172334,-,-
2019_Oct_18,17,001,0,source,8,DEPARTS,LF,target,left,aqua,pleasantness,conservative,no,2,1,3.25010796507,-,-
2019_Oct_18,17,001,0,source,9,ADMIRALS,LF,target,right,yellow,imageability,conservative,no,2,0,3.90006540227,-,-
2019_Oct_18,17,001,0,source,10,OPTIC,LF,target,left,aqua,pleasantness,conservative,no,8,0,2.48345806446,-,-
2019_Oct_18,17,001,0,source,11,GUSHED,LF,target,right,yellow,imageability,liberal,no,9,1,1.95015239756,-,-
2019_Oct_18,17,001,0,source,12,ACROSS,HF,target,right,yellow,imageability,liberal,no,9,1,2.46686810371,-,-
2019_Oct_18,17,001,0,source,13,ACACIA,LF,target,right,yellow,imageability,conservative,no,8,1,1.5501665485,-,-
2019_Oct_18,17,001,0,source,14,MAPPED,LF,target,left,aqua,pleasantness,liberal,no,1,1,3.1333949718,-,-
2019_Oct_18,17,001,0,source,15,REVERE,LF,target,left,aqua,pleasantness,liberal,no,1,1,3.05012182273,-,-
2019_Oct_18,17,001,0,source,16,LAYERED,LF,target,left,aqua,pleasantness,conservative,no,9,0,3.35007629043,-,-
2019_Oct_18,17,001,0,source,17,AIRBED,LF,target,right,yellow,imageability,conservative,no,9,1,1.06674991037,-,-
2019_Oct_18,17,001,0,source,18,LOWED,LF,target,right,yellow,imageability,liberal,no,2,0,5.00001136474,-,-
2019_Oct_18,17,001,0,source,19,CASES,HF,target,right,yellow,imageability,conservative,no,9,1,2.06682909697,-,-
2019_Oct_18,17,001,0,source,20,EITHER,HF,target,right,yellow,imageability,liberal,yes,8,1,1.18351752774,-,-
2019_Oct_18,17,001,0,source,21,TERMS,HF,target,left,aqua,pleasantness,liberal,no,2,1,3.23317779519,-,-
2019_Oct_18,17,001,0,source,22,HISTORY,HF,target,right,yellow,imageability,conservative,no,8,1,2.28348035402,-,-
2019_Oct_18,17,001,0,source,23,AVAILABLE,HF,target,right,yellow,imageability,liberal,no,8,1,2.43344475671,-,-
2019_Oct_18,17,001,0,source,24,BLACK,HF,target,right,yellow,imageability,liberal,yes,8,1,0.800331703897,-,-
2019_Oct_18,17,001,0,source,25,ACCORDING,HF,target,right,yellow,imageability,conservative,no,7,1,3.56675174339,-,-
2019_Oct_18,17,001,0,source,26,ALMOST,HF,target,left,aqua,pleasantness,conservative,no,3,1,4.93344805615,-,-
2019_Oct_18,17,001,0,source,27,EARLIER,HF,target,right,yellow,imageability,conservative,no,2,0,2.40002874181,-,-
2019_Oct_18,17,001,0,source,28,LOPSIDED,LF,target,right,yellow,imageability,conservative,no,9,1,2.75015379066,-,-
2019_Oct_18,17,001,0,source,29,CHOICE,HF,target,left,aqua,pleasantness,conservative,no,1,1,3.00014077619,-,-
2019_Oct_18,17,001,0,source,30,COVER,HF,target,left,aqua,pleasantness,liberal,no,1,1,2.55018157929,-,-
2019_Oct_18,17,001,0,source,31,BEREAVED,LF,target,right,yellow,imageability,conservative,no,8,1,2.81683074669,-,-
2019_Oct_18,17,001,0,source,32,SIPHON,LF,target,left,aqua,pleasantness,liberal,no,2,1,2.2165761031,-,-
2019_Oct_18,17,001,0,source,33,FEIGNED,LF,target,right,yellow,imageability,conservative,no,3,0,2.51676153173,-,-
2019_Oct_18,17,001,0,source,34,REIGNING,LF,target,left,aqua,pleasantness,conservative,no,1,1,3.83341520837,-,-
2019_Oct_18,17,001,0,source,35,BETTER,HF,target,right,yellow,imageability,liberal,no,2,0,4.08317013316,-,-
2019_Oct_18,17,001,0,source,36,MINISTER,HF,target,left,aqua,pleasantness,liberal,no,1,1,1.71680193157,-,-
2019_Oct_18,17,001,0,source,37,LESSENED,LF,target,left,aqua,pleasantness,liberal,no,3,1,4.88335849463,-,-
2019_Oct_18,17,001,0,source,38,ACORNS,LF,target,left,aqua,pleasantness,liberal,no,2,1,3.68347060234,-,-
2019_Oct_18,17,001,0,source,39,SOUND,HF,target,right,yellow,imageability,conservative,no,9,1,2.45009960649,-,-
2019_Oct_18,17,001,0,source,40,TRUTH,HF,target,right,yellow,imageability,liberal,no,1,0,1.81665734269,-,-
2019_Oct_18,17,001,0,source,41,ASSERTIVE,LF,target,left,aqua,pleasantness,liberal,yes,2,1,1.03335699155,-,-
2019_Oct_18,17,001,0,source,42,MAJOR,HF,target,right,yellow,imageability,conservative,no,9,1,2.81674826064,-,-
2019_Oct_18,17,001,0,source,43,FINAL,HF,target,left,aqua,pleasantness,liberal,no,1,1,2.60009003811,-,-
2019_Oct_18,17,001,0,source,44,ERUDITE,LF,target,right,yellow,imageability,liberal,no,9,1,2.03344644309,-,-
2019_Oct_18,17,001,0,source,45,RAVAGES,LF,target,left,aqua,pleasantness,conservative,yes,9,0,0.766897358761,-,-
2019_Oct_18,17,001,0,source,46,MEANS,HF,target,left,aqua,pleasantness,liberal,no,3,1,3.11652565829,-,-
2019_Oct_18,17,001,0,source,47,JACKALS,LF,target,right,yellow,imageability,liberal,no,7,1,2.01681652243,-,-
2019_Oct_18,17,001,0,recog,0,LOWED,LF,target,right,yellow,imageability,liberal,no,None,-1,-1,-3,-3
2019_Oct_18,17,001,0,recog,1,CLASS,HF,lure,-,-,-,conservative,no,m,1,4.84997694057,3,0
2019_Oct_18,17,001,0,recog,2,CERTAIN,HF,lure,-,-,-,conservative,no,z,0,5.25005590721,-3,-3
2019_Oct_18,17,001,0,recog,3,EVIDENCE,HF,lure,-,-,-,liberal,yes,z,0,0.933515878015,-1,-4
2019_Oct_18,17,001,0,recog,4,MAPPED,LF,target,left,aqua,pleasantness,liberal,no,z,1,2.03346550653,3,-1
2019_Oct_18,17,001,0,recog,5,WATCH,HF,lure,-,-,-,conservative,no,m,1,5.51664275182,3,2
2019_Oct_18,17,001,0,recog,6,MODERN,HF,target,left,aqua,pleasantness,conservative,no,m,0,1.90017135102,-1,1
2019_Oct_18,17,001,0,recog,7,IRONICAL,LF,lure,-,-,-,conservative,no,m,1,3.75001778033,3,4
2019_Oct_18,17,001,0,recog,8,TOILED,LF,lure,-,-,-,liberal,no,m,1,2.90011709353,1,5
2019_Oct_18,17,001,0,recog,9,VERBALLY,LF,lure,-,-,-,conservative,no,m,1,1.71696873669,3,8
2019_Oct_18,17,001,0,recog,10,EARLIER,HF,target,right,yellow,imageability,conservative,no,z,1,2.18347793443,1,9
2019_Oct_18,17,001,0,recog,11,DEFEATING,LF,lure,-,-,-,conservative,no,m,1,4.28335717486,3,12
2019_Oct_18,17,001,0,recog,12,DYNAMISM,LF,lure,-,-,-,liberal,no,m,1,3.24989973363,1,13
2019_Oct_18,17,001,0,recog,13,MAJOR,HF,target,right,yellow,imageability,conservative,no,z,1,1.26683246974,1,14
2019_Oct_18,17,001,0,recog,14,UMBILICAL,LF,lure,-,-,-,liberal,no,m,1,2.6334741584,1,15
2019_Oct_18,17,001,0,recog,15,SEPULCHRE,LF,lure,-,-,-,conservative,no,m,1,2.43343082573,3,18
2019_Oct_18,17,001,0,recog,16,JACKALS,LF,target,right,yellow,imageability,liberal,no,z,1,1.40022817474,3,21
2019_Oct_18,17,001,0,recog,17,DUPLICITY,LF,lure,-,-,-,conservative,no,m,1,1.45022315226,3,24
2019_Oct_18,17,001,0,recog,18,MOISTENED,LF,lure,-,-,-,liberal,no,m,1,1.56689508581,1,25
2019_Oct_18,17,001,0,recog,19,LICENSING,LF,lure,-,-,-,liberal,yes,m,1,1.23353926739,1,26
2019_Oct_18,17,001,0,recog,20,DOCTOR,HF,lure,-,-,-,liberal,no,z,0,2.96684464101,-1,25
2019_Oct_18,17,001,0,recog,21,ALMOST,HF,target,left,aqua,pleasantness,conservative,no,m,0,3.73334863297,-1,24
2019_Oct_18,17,001,0,recog,22,EXPECT,HF,target,left,aqua,pleasantness,conservative,no,m,0,3.0167747295,-1,23
2019_Oct_18,17,001,0,recog,23,SIPHON,LF,target,left,aqua,pleasantness,liberal,no,z,1,2.30020485868,3,26
2019_Oct_18,17,001,0,recog,24,EXACTLY,HF,lure,-,-,-,liberal,no,m,1,1.73356456311,1,27
2019_Oct_18,17,001,0,recog,25,TIMES,HF,lure,-,-,-,liberal,no,m,1,3.43336813634,1,28
2019_Oct_18,17,001,0,recog,26,COVER,HF,target,left,aqua,pleasantness,liberal,no,z,1,2.83355488475,3,31
2019_Oct_18,17,001,0,recog,27,ASSERTIVE,LF,target,left,aqua,pleasantness,liberal,no,m,0,1.43353200862,-3,28
2019_Oct_18,17,001,0,recog,28,REIGNING,LF,target,left,aqua,pleasantness,conservative,no,z,1,1.46689229962,1,29
2019_Oct_18,17,001,0,recog,29,QUESTION,HF,lure,-,-,-,liberal,no,m,1,4.26667189689,1,30
2019_Oct_18,17,001,0,recog,30,GIRLS,HF,lure,-,-,-,conservative,no,m,1,1.06686942348,3,33
2019_Oct_18,17,001,0,recog,31,GAUCHE,LF,lure,-,-,-,liberal,no,m,1,3.0334471763,1,34
2019_Oct_18,17,001,0,recog,32,PALATABLE,LF,target,right,yellow,imageability,liberal,no,z,1,2.2001474484,3,37
2019_Oct_18,17,001,0,recog,33,ADMIRALS,LF,target,right,yellow,imageability,conservative,no,m,0,4.73330574022,-1,36
2019_Oct_18,17,001,0,recog,34,GENERAL,HF,lure,-,-,-,liberal,no,m,1,1.9668435412,1,37
2019_Oct_18,17,001,0,recog,35,FEIGNED,LF,target,right,yellow,imageability,conservative,no,z,1,1.23331453873,1,38
2019_Oct_18,17,001,0,recog,36,GUSHED,LF,target,right,yellow,imageability,liberal,no,z,1,2.7501336274,3,41
2019_Oct_18,17,001,0,recog,37,DEPARTS,LF,target,left,aqua,pleasantness,conservative,no,z,1,2.21682429445,1,42
2019_Oct_18,17,001,0,recog,38,FREEDOM,HF,lure,-,-,-,conservative,no,m,1,1.01668601117,3,45
2019_Oct_18,17,001,0,recog,39,FAUCET,LF,lure,-,-,-,liberal,no,m,1,1.06668392153,1,46
2019_Oct_18,17,001,0,recog,40,TUCKER,LF,lure,-,-,-,liberal,no,m,1,1.26691202295,1,47
2019_Oct_18,17,001,0,recog,41,BETTER,HF,target,right,yellow,imageability,liberal,no,z,1,2.98348116055,3,50
2019_Oct_18,17,001,0,recog,42,ARRIVED,HF,target,left,aqua,pleasantness,liberal,no,z,1,1.6335056864,3,53
2019_Oct_18,17,001,0,recog,43,UNRAVEL,LF,lure,-,-,-,conservative,no,m,1,1.21692547734,3,56
2019_Oct_18,17,001,0,recog,44,ACACIA,LF,target,right,yellow,imageability,conservative,no,z,1,1.78346752286,1,57
2019_Oct_18,17,001,0,recog,45,PUFFS,LF,lure,-,-,-,conservative,no,m,1,1.2336107553,3,60
2019_Oct_18,17,001,0,recog,46,ACROSS,HF,target,right,yellow,imageability,liberal,no,z,1,2.18330489703,3,63
2019_Oct_18,17,001,0,recog,47,CASES,HF,target,right,yellow,imageability,conservative,no,z,1,2.73341352199,1,64
2019_Oct_18,17,001,0,recog,48,TERMS,HF,target,left,aqua,pleasantness,liberal,no,m,0,1.60018645513,-3,61
2019_Oct_18,17,001,0,recog,49,TOXICITY,LF,lure,-,-,-,conservative,no,m,1,1.55016214924,3,64
2019_Oct_18,17,001,0,recog,50,FINAL,HF,target,left,aqua,pleasantness,liberal,no,z,1,1.46686627068,3,67
2019_Oct_18,17,001,0,recog,51,BLACK,HF,target,right,yellow,imageability,liberal,no,z,1,2.60014869485,3,70
2019_Oct_18,17,001,0,recog,52,ACCORDING,HF,target,right,yellow,imageability,conservative,no,m,0,1.3668330563,-1,69
2019_Oct_18,17,001,0,recog,53,PEACEABLY,LF,lure,-,-,-,conservative,no,m,1,3.51675493285,3,72
2019_Oct_18,17,001,0,recog,54,REVERE,LF,target,left,aqua,pleasantness,liberal,no,z,1,2.48356657944,3,75
2019_Oct_18,17,001,0,recog,55,DISARMED,LF,lure,-,-,-,liberal,no,m,1,1.03360078365,1,76
2019_Oct_18,17,001,0,recog,56,SHORT,HF,lure,-,-,-,conservative,no,m,1,1.20024166579,3,79
2019_Oct_18,17,001,0,recog,57,RAVAGES,LF,target,left,aqua,pleasantness,conservative,yes,z,1,0.900176850088,1,80
2019_Oct_18,17,001,0,recog,58,MINISTER,HF,target,left,aqua,pleasantness,liberal,no,z,1,3.53339841788,3,83
2019_Oct_18,17,001,0,recog,59,TARIFF,LF,lure,-,-,-,conservative,no,m,1,1.40018454879,3,86
2019_Oct_18,17,001,0,recog,60,CAUGHT,HF,lure,-,-,-,conservative,no,m,1,2.06681003353,3,89
2019_Oct_18,17,001,0,recog,61,TATTERS,LF,target,left,aqua,pleasantness,conservative,no,z,1,1.26684273467,1,90
2019_Oct_18,17,001,0,recog,62,LOPSIDED,LF,target,right,yellow,imageability,conservative,no,z,1,1.23353816758,1,91
2019_Oct_18,17,001,0,recog,63,WAITING,HF,lure,-,-,-,liberal,no,z,0,3.31676695748,-1,90
2019_Oct_18,17,001,0,recog,64,LESSENED,LF,target,left,aqua,pleasantness,liberal,no,z,1,1.45015899644,3,93
2019_Oct_18,17,001,0,recog,65,DESERTER,LF,lure,-,-,-,liberal,no,m,1,1.20022223575,1,94
2019_Oct_18,17,001,0,recog,66,NEARLY,HF,lure,-,-,-,conservative,no,m,1,2.3668169257,3,97
2019_Oct_18,17,001,0,recog,67,FURTHER,HF,lure,-,-,-,liberal,no,z,0,3.16677542605,-1,96
2019_Oct_18,17,001,0,recog,68,AVAILABLE,HF,target,right,yellow,imageability,liberal,no,z,1,1.31686740716,3,99
2019_Oct_18,17,001,0,recog,69,OFTEN,HF,lure,-,-,-,liberal,no,m,1,1.48353248521,1,100
2019_Oct_18,17,001,0,recog,70,HIGHER,HF,lure,-,-,-,liberal,no,m,1,2.00012317917,1,101
2019_Oct_18,17,001,0,recog,71,SOUND,HF,target,right,yellow,imageability,conservative,yes,m,0,1.35016684178,-1,100
2019_Oct_18,17,001,0,recog,72,OPTIC,LF,target,left,aqua,pleasantness,conservative,no,z,1,3.63331468538,1,101
2019_Oct_18,17,001,0,recog,73,SLYLY,LF,lure,-,-,-,liberal,no,m,1,0.983569512277,1,102
2019_Oct_18,17,001,0,recog,74,AIRBED,LF,target,right,yellow,imageability,conservative,no,z,1,1.41686982675,1,103
2019_Oct_18,17,001,0,recog,75,LAYERED,LF,target,left,aqua,pleasantness,conservative,no,z,1,0.983302257478,1,104
2019_Oct_18,17,001,0,recog,76,LIARS,LF,lure,-,-,-,conservative,no,m,1,0.950242948909,3,107
2019_Oct_18,17,001,0,recog,77,THEORY,HF,lure,-,-,-,conservative,no,z,0,0.866855052582,-3,104
2019_Oct_18,17,001,0,recog,78,MEANS,HF,target,left,aqua,pleasantness,liberal,no,m,0,2.98340380697,-3,101
2019_Oct_18,17,001,0,recog,79,BEREAVED,LF,target,right,yellow,imageability,conservative,no,z,1,1.18354905574,1,102
2019_Oct_18,17,001,0,recog,80,YEOMAN,LF,target,right,yellow,imageability,liberal,no,z,1,1.23356676274,3,105
2019_Oct_18,17,001,0,recog,81,MACARONI,LF,lure,-,-,-,conservative,no,m,1,1.51690780699,3,108
2019_Oct_18,17,001,0,recog,82,ERUDITE,LF,target,right,yellow,imageability,liberal,no,z,1,1.1503427387,3,111
2019_Oct_18,17,001,0,recog,83,TRUTH,HF,target,right,yellow,imageability,liberal,no,z,1,2.40015228758,3,114
2019_Oct_18,17,001,0,recog,84,ATTACK,HF,lure,-,-,-,conservative,no,m,1,0.900020676502,3,117
2019_Oct_18,17,001,0,recog,85,HOTEL,HF,lure,-,-,-,liberal,no,m,1,1.13361640101,1,118
2019_Oct_18,17,001,0,recog,86,TOGETHER,HF,target,left,aqua,pleasantness,conservative,no,z,1,1.31683074669,1,119
2019_Oct_18,17,001,0,recog,87,CHOICE,HF,target,left,aqua,pleasantness,conservative,no,z,1,1.61683543923,1,120
2019_Oct_18,17,001,0,recog,88,EITHER,HF,target,right,yellow,imageability,liberal,no,m,0,1.10025391039,-3,117
2019_Oct_18,17,001,0,recog,89,ACORNS,LF,target,left,aqua,pleasantness,liberal,no,z,1,1.08356093373,3,120
2019_Oct_18,17,001,0,recog,90,HISTORY,HF,target,right,yellow,imageability,conservative,no,z,1,2.33344123731,1,121
2019_Oct_18,17,001,0,recog,91,SIESTA,LF,lure,-,-,-,liberal,no,m,1,0.933511845364,1,122
2019_Oct_18,17,001,0,recog,92,SOMEONE,HF,lure,-,-,-,liberal,no,m,1,1.16690227126,1,123
2019_Oct_18,17,001,0,recog,93,MEETING,HF,target,left,aqua,pleasantness,conservative,no,z,1,1.15021882632,1,124
2019_Oct_18,17,001,0,recog,94,WOMAN,HF,lure,-,-,-,conservative,no,m,1,0.900241005904,3,127
2019_Oct_18,17,001,0,recog,95,SUDDENLY,HF,lure,-,-,-,conservative,no,m,1,1.26690469085,3,130
2019_Oct_18,17,001,1,source,0,ICONS,LF,target,left,aqua,pleasantness,conservative,no,1,1,3.90005623716,-,-
2019_Oct_18,17,001,1,source,1,ENTIRELY,HF,target,right,yellow,imageability,liberal,no,9,1,3.30010477561,-,-
2019_Oct_18,17,001,1,source,2,SPACE,HF,target,right,yellow,imageability,conservative,no,9,1,1.88351063557,-,-
2019_Oct_18,17,001,1,source,3,BOASTS,LF,target,left,aqua,pleasantness,conservative,no,1,1,2.7999233063,-,-
2019_Oct_18,17,001,1,source,4,UMPIRE,LF,target,right,yellow,imageability,liberal,no,9,1,1.80028404529,-,-
2019_Oct_18,17,001,1,source,5,TREES,HF,target,right,yellow,imageability,conservative,no,2,0,2.68355675443,-,-
2019_Oct_18,17,001,1,source,6,RABBIS,LF,target,right,yellow,imageability,liberal,no,8,1,1.4001544872,-,-
2019_Oct_18,17,001,1,source,7,BLOOD,HF,target,left,aqua,pleasantness,liberal,no,1,1,1.48357317832,-,-
2019_Oct_18,17,001,1,source,8,GUARDSMEN,LF,target,right,yellow,imageability,liberal,no,9,1,2.10023191411,-,-
2019_Oct_18,17,001,1,source,9,STAFF,HF,target,right,yellow,imageability,liberal,no,9,1,3.36655223713,-,-
2019_Oct_18,17,001,1,source,10,USHERS,LF,target,right,yellow,imageability,liberal,no,9,1,2.66661815265,-,-
2019_Oct_18,17,001,1,source,11,ACTION,HF,target,left,aqua,pleasantness,liberal,no,1,1,1.3669192084,-,-
2019_Oct_18,17,001,1,source,12,VARIOUS,HF,target,right,yellow,imageability,liberal,no,9,1,3.06684962683,-,-
2019_Oct_18,17,001,1,source,13,KRONOR,LF,target,right,yellow,imageability,conservative,no,8,1,2.4501476317,-,-
2019_Oct_18,17,001,1,source,14,TRIED,HF,target,right,yellow,imageability,conservative,no,2,0,4.13344812947,-,-
2019_Oct_18,17,001,1,source,15,BASIC,HF,target,left,aqua,pleasantness,conservative,yes,2,1,1.01687921183,-,-
2019_Oct_18,17,001,1,source,16,BROUGHT,HF,target,right,yellow,imageability,liberal,no,2,0,5.09998445596,-,-
2019_Oct_18,17,001,1,source,17,WADDLED,LF,target,right,yellow,imageability,conservative,no,9,1,1.20016284579,-,-
2019_Oct_18,17,001,1,source,18,FOCUSES,LF,target,left,aqua,pleasantness,liberal,no,8,0,4.44997826034,-,-
2019_Oct_18,17,001,1,source,19,PRACTICE,HF,target,left,aqua,pleasantness,liberal,yes,8,0,1.8501371468,-,-
2019_Oct_18,17,001,1,source,20,FRACTIONS,LF,target,left,aqua,pleasantness,conservative,no,1,1,1.3002140238,-,-
2019_Oct_18,17,001,1,source,21,LEARN,HF,target,left,aqua,pleasantness,liberal,no,2,1,3.56670921725,-,-
2019_Oct_18,17,001,1,source,22,VILLAGE,HF,target,left,aqua,pleasantness,conservative,no,2,1,2.26678334471,-,-
2019_Oct_18,17,001,1,source,23,THOUSAND,HF,target,left,aqua,pleasantness,liberal,no,1,1,1.31666834083,-,-
2019_Oct_18,17,001,1,source,24,HAPPEN,HF,target,left,aqua,pleasantness,conservative,no,1,1,2.43348728285,-,-
2019_Oct_18,17,001,1,source,25,INACTION,LF,target,right,yellow,imageability,liberal,no,9,1,3.10014759504,-,-
2019_Oct_18,17,001,1,source,26,SORRY,HF,target,right,yellow,imageability,liberal,no,2,0,4.04990552598,-,-
2019_Oct_18,17,001,1,source,27,EIDERDOWN,LF,target,right,yellow,imageability,liberal,no,9,1,1.2835023503,-,-
2019_Oct_18,17,001,1,source,28,DARKEN,LF,target,left,aqua,pleasantness,liberal,no,1,1,2.18359891397,-,-
2019_Oct_18,17,001,1,source,29,BEGAN,HF,target,right,yellow,imageability,liberal,no,1,0,3.98345036576,-,-
2019_Oct_18,17,001,1,source,30,INDEED,HF,target,right,yellow,imageability,conservative,no,2,0,4.76668546127,-,-
2019_Oct_18,17,001,1,source,31,UNTIL,HF,target,right,yellow,imageability,conservative,no,2,0,1.03355935733,-,-
2019_Oct_18,17,001,1,source,32,CAVERN,LF,target,left,aqua,pleasantness,conservative,no,2,1,2.18349443164,-,-
2019_Oct_18,17,001,1,source,33,CICADAS,LF,target,left,aqua,pleasantness,conservative,no,8,0,1.1835780175,-,-
2019_Oct_18,17,001,1,source,34,GEYSER,LF,target,left,aqua,pleasantness,liberal,yes,9,0,2.25011089791,-,-
2019_Oct_18,17,001,1,source,35,IDLING,LF,target,right,yellow,imageability,conservative,no,9,1,3.16661558642,-,-
2019_Oct_18,17,001,1,source,36,INITIATES,LF,target,left,aqua,pleasantness,liberal,no,1,1,2.35014264587,-,-
2019_Oct_18,17,001,1,source,37,ROBBERIES,LF,target,left,aqua,pleasantness,liberal,no,1,1,1.7502751368,-,-
2019_Oct_18,17,001,1,source,38,CUDDLE,LF,target,right,yellow,imageability,conservative,yes,1,0,0.616964484073,-,-
2019_Oct_18,17,001,1,source,39,BULBOUS,LF,target,right,yellow,imageability,conservative,no,2,0,2.15021259404,-,-
2019_Oct_18,17,001,1,source,40,TAKEN,HF,target,right,yellow,imageability,conservative,no,2,0,0.883316335097,-,-
2019_Oct_18,17,001,1,source,41,RINSING,LF,target,left,aqua,pleasantness,conservative,no,1,1,1.05001110812,-,-
2019_Oct_18,17,001,1,source,42,OPENED,HF,target,left,aqua,pleasantness,conservative,no,1,1,1.53357512133,-,-
2019_Oct_18,17,001,1,source,43,PUBLIC,HF,target,left,aqua,pleasantness,liberal,no,1,1,1.1835145949,-,-
2019_Oct_18,17,001,1,source,44,VINEYARDS,LF,target,right,yellow,imageability,conservative,no,9,1,1.15019499702,-,-
2019_Oct_18,17,001,1,source,45,STOOD,HF,target,left,aqua,pleasantness,conservative,no,1,1,4.7166706871,-,-
2019_Oct_18,17,001,1,source,46,TIDILY,LF,target,left,aqua,pleasantness,liberal,no,1,1,1.66687294289,-,-
2019_Oct_18,17,001,1,source,47,LARGE,HF,target,left,aqua,pleasantness,conservative,no,1,1,6.13328132435,-,-
2019_Oct_18,17,001,1,recog,0,WANTED,HF,lure,-,-,-,liberal,yes,z,0,1.83334115423,-1,129
2019_Oct_18,17,001,1,recog,1,SORRY,HF,target,right,yellow,imageability,liberal,no,z,1,4.06668025548,3,132
2019_Oct_18,17,001,1,recog,2,OPENED,HF,target,left,aqua,pleasantness,conservative,no,z,1,1.81685054334,1,133
2019_Oct_18,17,001,1,recog,3,SLIGHTLY,HF,lure,-,-,-,liberal,no,m,1,2.83341557498,1,134
2019_Oct_18,17,001,1,recog,4,IDLING,LF,target,right,yellow,imageability,conservative,no,z,1,0.833564783076,1,135
2019_Oct_18,17,001,1,recog,5,SOCIAL,HF,lure,-,-,-,conservative,no,m,1,0.950182825745,3,138
2019_Oct_18,17,001,1,recog,6,JARRED,LF,lure,-,-,-,conservative,no,m,1,1.20025742979,3,141
2019_Oct_18,17,001,1,recog,7,GUARDSMEN,LF,target,right,yellow,imageability,liberal,yes,z,1,0.816858608648,3,144
2019_Oct_18,17,001,1,recog,8,WADDLED,LF,target,right,yellow,imageability,conservative,no,z,1,2.60014136276,1,145
2019_Oct_18,17,001,1,recog,9,GATEHOUSE,LF,lure,-,-,-,conservative,no,m,1,1.21688221799,3,148
2019_Oct_18,17,001,1,recog,10,TESTIFIES,LF,lure,-,-,-,liberal,no,m,1,0.833520057307,1,149
2019_Oct_18,17,001,1,recog,11,GEYSER,LF,target,left,aqua,pleasantness,liberal,yes,m,0,0.633502020358,-3,146
2019_Oct_18,17,001,1,recog,12,INDEED,HF,target,right,yellow,imageability,conservative,no,z,1,3.66668780754,1,147
2019_Oct_18,17,001,1,recog,13,TAKEN,HF,target,right,yellow,imageability,conservative,no,z,1,3.48337227897,1,148
2019_Oct_18,17,001,1,recog,14,CAVERN,LF,target,left,aqua,pleasantness,conservative,no,z,1,0.96690439757,1,149
2019_Oct_18,17,001,1,recog,15,LITANY,LF,lure,-,-,-,liberal,no,m,1,1.30027488018,1,150
2019_Oct_18,17,001,1,recog,16,PECKED,LF,lure,-,-,-,liberal,no,m,1,1.89991949362,1,151
2019_Oct_18,17,001,1,recog,17,PRACTICE,HF,target,left,aqua,pleasantness,liberal,no,m,0,2.86677183332,-3,148
2019_Oct_18,17,001,1,recog,18,MOTHER,HF,lure,-,-,-,liberal,no,m,1,0.916846730656,1,149
2019_Oct_18,17,001,1,recog,19,LEARN,HF,target,left,aqua,pleasantness,liberal,no,z,1,2.95011903653,3,152
2019_Oct_18,17,001,1,recog,20,CAPITAL,HF,lure,-,-,-,conservative,no,m,1,0.900186381809,3,155
2019_Oct_18,17,001,1,recog,21,TINGLING,LF,lure,-,-,-,conservative,no,m,1,1.40028169902,3,158
2019_Oct_18,17,001,1,recog,22,ENTIRELY,HF,target,right,yellow,imageability,liberal,no,z,1,0.966712296727,3,161
2019_Oct_18,17,001,1,recog,23,ROBBERIES,LF,target,left,aqua,pleasantness,liberal,no,z,1,1.41685259633,3,164
2019_Oct_18,17,001,1,recog,24,KIBBUTZIM,LF,lure,-,-,-,conservative,no,m,1,1.75017468712,3,167
2019_Oct_18,17,001,1,recog,25,WESTERN,HF,lure,-,-,-,conservative,no,m,1,0.850067125313,3,170
2019_Oct_18,17,001,1,recog,26,WHATEVER,HF,lure,-,-,-,liberal,no,m,1,1.08356203354,1,171
2019_Oct_18,17,001,1,recog,27,CUDDLE,LF,target,right,yellow,imageability,conservative,no,z,1,1.58342932265,1,172
2019_Oct_18,17,001,1,recog,28,SCHOOL,HF,lure,-,-,-,liberal,no,m,1,2.91677597596,1,173
2019_Oct_18,17,001,1,recog,29,BRING,HF,lure,-,-,-,conservative,yes,m,1,1.16684141489,3,176
2019_Oct_18,17,001,1,recog,30,EIDERDOWN,LF,target,right,yellow,imageability,liberal,no,z,1,1.45019968956,3,179
2019_Oct_18,17,001,1,recog,31,AROUND,HF,lure,-,-,-,liberal,no,z,0,1.5668235979,-1,178
2019_Oct_18,17,001,1,recog,32,DARKEN,LF,target,left,aqua,pleasantness,liberal,no,z,1,1.21695150627,3,181
2019_Oct_18,17,001,1,recog,33,BIRCHES,LF,lure,-,-,-,liberal,no,m,1,1.01693603555,1,182
2019_Oct_18,17,001,1,recog,34,INITIATES,LF,target,left,aqua,pleasantness,liberal,no,z,1,1.4335386075,3,185
2019_Oct_18,17,001,1,recog,35,VILLAGE,HF,target,left,aqua,pleasantness,conservative,no,z,1,2.2335323019,1,186
2019_Oct_18,17,001,1,recog,36,TREES,HF,target,right,yellow,imageability,conservative,no,z,1,1.30000725877,1,187
2019_Oct_18,17,001,1,recog,37,TRIED,HF,target,right,yellow,imageability,conservative,no,z,1,1.75015818991,1,188
2019_Oct_18,17,001,1,recog,38,YARDSTICK,LF,lure,-,-,-,conservative,no,m,1,1.33352042391,3,191
2019_Oct_18,17,001,1,recog,39,FRACTIONS,LF,target,left,aqua,pleasantness,conservative,no,z,1,2.71680926366,1,192
2019_Oct_18,17,001,1,recog,40,BASIC,HF,target,left,aqua,pleasantness,conservative,no,z,1,1.95020702165,1,193
2019_Oct_18,17,001,1,recog,41,ATONEMENT,LF,lure,-,-,-,conservative,no,m,1,0.983586742695,3,196
2019_Oct_18,17,001,1,recog,42,VARIOUS,HF,target,right,yellow,imageability,liberal,no,z,1,1.16688284122,3,199
2019_Oct_18,17,001,1,recog,43,PREPARED,HF,lure,-,-,-,liberal,no,z,0,2.58347624805,-1,198
2019_Oct_18,17,001,1,recog,44,VINEYARDS,LF,target,right,yellow,imageability,conservative,no,z,1,0.933558404156,1,199
2019_Oct_18,17,001,1,recog,45,CICADAS,LF,target,left,aqua,pleasantness,conservative,no,z,1,1.366872283,1,200
2019_Oct_18,17,001,1,recog,46,CLUBBED,LF,lure,-,-,-,conservative,no,m,1,1.11671739253,3,203
2019_Oct_18,17,001,1,recog,47,BULBOUS,LF,target,right,yellow,imageability,conservative,no,z,1,1.66688907349,1,204
2019_Oct_18,17,001,1,recog,48,OVENS,LF,lure,-,-,-,liberal,no,m,1,1.70014231593,1,205
2019_Oct_18,17,001,1,recog,49,KRONOR,LF,target,right,yellow,imageability,conservative,no,z,1,1.43352980899,1,206
2019_Oct_18,17,001,1,recog,50,RABBIS,LF,target,right,yellow,imageability,liberal,no,z,1,0.833555251355,3,209
2019_Oct_18,17,001,1,recog,51,BROUGHT,HF,target,right,yellow,imageability,liberal,no,z,1,2.3501529108,3,212
2019_Oct_18,17,001,1,recog,52,BOASTS,LF,target,left,aqua,pleasantness,conservative,no,z,1,1.40020764488,1,213
2019_Oct_18,17,001,1,recog,53,LUXURIANT,LF,lure,-,-,-,conservative,no,m,1,0.766927786947,3,216
2019_Oct_18,17,001,1,recog,54,FOCUSES,LF,target,left,aqua,pleasantness,liberal,no,z,1,1.08357156526,3,219
2019_Oct_18,17,001,1,recog,55,AFRAID,HF,lure,-,-,-,conservative,no,m,1,1.08355140201,3,222
2019_Oct_18,17,001,1,recog,56,SPLASHES,LF,lure,-,-,-,conservative,no,m,1,1.73345861437,3,225
2019_Oct_18,17,001,1,recog,57,RINSING,LF,target,left,aqua,pleasantness,conservative,no,z,1,0.900228541346,1,226
2019_Oct_18,17,001,1,recog,58,ALONE,HF,lure,-,-,-,conservative,no,z,0,5.18333019275,-3,223
2019_Oct_18,17,001,1,recog,59,USHERS,LF,target,right,yellow,imageability,liberal,no,z,1,0.800244818593,3,226
2019_Oct_18,17,001,1,recog,60,OTHERS,HF,lure,-,-,-,conservative,no,m,1,1.55024023603,3,229
2019_Oct_18,17,001,1,recog,61,INACTION,LF,target,right,yellow,imageability,liberal,no,z,1,1.00022729489,3,232
2019_Oct_18,17,001,1,recog,62,LABOUR,HF,lure,-,-,-,liberal,no,m,1,2.01683118662,1,233
2019_Oct_18,17,001,1,recog,63,MYSELF,HF,lure,-,-,-,conservative,no,m,1,1.05001000831,3,236
2019_Oct_18,17,001,1,recog,64,LARGE,HF,target,left,aqua,pleasantness,conservative,no,z,1,0.950222052444,1,237
2019_Oct_18,17,001,1,recog,65,ICONS,LF,target,left,aqua,pleasantness,conservative,no,z,1,0.933552905086,1,238
2019_Oct_18,17,001,1,recog,66,NUCLEAR,HF,lure,-,-,-,conservative,no,m,1,0.700241665793,3,241
2019_Oct_18,17,001,1,recog,67,APART,HF,lure,-,-,-,conservative,no,m,1,0.983515621391,3,244
2019_Oct_18,17,001,1,recog,68,UMPIRE,LF,target,right,yellow,imageability,liberal,no,z,1,0.916864694284,3,247
2019_Oct_18,17,001,1,recog,69,SABLE,LF,lure,-,-,-,liberal,no,m,1,1.35015731006,1,248
2019_Oct_18,17,001,1,recog,70,CEASELESS,LF,lure,-,-,-,liberal,no,m,1,0.983561446974,1,249
2019_Oct_18,17,001,1,recog,71,CHROMIUM,LF,lure,-,-,-,liberal,no,m,1,0.633476358032,1,250
2019_Oct_18,17,001,1,recog,72,ACTION,HF,target,left,aqua,pleasantness,liberal,no,z,1,1.68356665276,3,253
2019_Oct_18,17,001,1,recog,73,THOUSAND,HF,target,left,aqua,pleasantness,liberal,no,z,1,0.766694992987,3,256
2019_Oct_18,17,001,1,recog,74,DEXTERITY,LF,lure,-,-,-,conservative,no,m,1,2.21688881687,3,259
2019_Oct_18,17,001,1,recog,75,DAUGHTER,HF,lure,-,-,-,liberal,no,m,1,2.91674261493,1,260
2019_Oct_18,17,001,1,recog,76,SPACE,HF,target,right,yellow,imageability,conservative,no,z,1,0.866686414438,1,261
2019_Oct_18,17,001,1,recog,77,HANDS,HF,lure,-,-,-,liberal,no,m,1,1.80024665162,1,262
2019_Oct_18,17,001,1,recog,78,OCCUPANCY,LF,lure,-,-,-,liberal,no,m,1,0.866951469608,1,263
2019_Oct_18,17,001,1,recog,79,BRUISING,LF,lure,-,-,-,conservative,no,m,1,0.700151114442,3,266
2019_Oct_18,17,001,1,recog,80,CALLED,HF,lure,-,-,-,conservative,no,m,1,0.716919978267,3,269
2019_Oct_18,17,001,1,recog,81,IRATE,LF,lure,-,-,-,liberal,no,m,1,1.01680149164,1,270
2019_Oct_18,17,001,1,recog,82,ANVIL,LF,lure,-,-,-,liberal,no,m,1,1.45017292742,1,271
2019_Oct_18,17,001,1,recog,83,TIDILY,LF,target,left,aqua,pleasantness,liberal,no,z,1,0.850280855831,3,274
2019_Oct_18,17,001,1,recog,84,SUMMER,HF,lure,-,-,-,liberal,no,m,1,0.866855419187,1,275
2019_Oct_18,17,001,1,recog,85,STOOD,HF,target,left,aqua,pleasantness,conservative,no,z,1,1.00025332382,1,276
2019_Oct_18,17,001,1,recog,86,STAFF,HF,target,right,yellow,imageability,liberal,no,z,1,0.700296656492,3,279
2019_Oct_18,17,001,1,recog,87,PRYING,LF,lure,-,-,-,liberal,no,m,1,2.25011346414,1,280
2019_Oct_18,17,001,1,recog,88,UNTIL,HF,target,right,yellow,imageability,conservative,no,z,1,0.983355048549,1,281
2019_Oct_18,17,001,1,recog,89,EMOTIVE,LF,lure,-,-,-,conservative,no,m,1,1.16692573396,3,284
2019_Oct_18,17,001,1,recog,90,BEGAN,HF,target,right,yellow,imageability,liberal,no,z,1,1.13350898585,3,287
2019_Oct_18,17,001,1,recog,91,EIGHT,HF,lure,-,-,-,liberal,no,m,1,0.80026424864,1,288
2019_Oct_18,17,001,1,recog,92,MILES,HF,lure,-,-,-,conservative,no,m,1,0.666906670519,3,291
2019_Oct_18,17,001,1,recog,93,BLOOD,HF,target,left,aqua,pleasantness,liberal,no,z,1,1.08355763429,3,294
2019_Oct_18,17,001,1,recog,94,PUBLIC,HF,target,left,aqua,pleasantness,liberal,no,z,1,2.00013087786,3,297
2019_Oct_18,17,001,1,recog,95,HAPPEN,HF,target,left,aqua,pleasantness,conservative,no,z,1,1.05028826125,1,298
2019_Oct_18,17,001,2,source,0,OBTAINS,LF,target,left,aqua,pleasantness,liberal,no,1,1,3.05007783017,-,-
2019_Oct_18,17,001,2,source,1,FAMILY,HF,target,right,yellow,imageability,liberal,no,8,1,3.51671423973,-,-
2019_Oct_18,17,001,2,source,2,POUNDS,HF,target,right,yellow,imageability,conservative,no,8,1,0.866952936027,-,-
2019_Oct_18,17,001,2,source,3,NUANCE,LF,target,right,yellow,imageability,conservative,no,8,1,3.03324151109,-,-
2019_Oct_18,17,001,2,source,4,SMOCK,LF,target,left,aqua,pleasantness,conservative,no,2,1,2.80008681198,-,-
2019_Oct_18,17,001,2,source,5,SEGMENTED,LF,target,right,yellow,imageability,liberal,no,8,1,1.0834564514,-,-
2019_Oct_18,17,001,2,source,6,SUPPORT,HF,target,left,aqua,pleasantness,conservative,no,2,1,4.79998892854,-,-
2019_Oct_18,17,001,2,source,7,HINDERED,LF,target,left,aqua,pleasantness,liberal,no,8,0,3.01683375285,-,-
2019_Oct_18,17,001,2,source,8,ROUND,HF,target,right,yellow,imageability,conservative,yes,2,0,1.38352749938,-,-
2019_Oct_18,17,001,2,source,9,DRAFTING,LF,target,right,yellow,imageability,conservative,no,8,1,2.95018099272,-,-
2019_Oct_18,17,001,2,source,10,LAPELS,LF,target,left,aqua,pleasantness,liberal,no,2,1,1.25022234573,-,-
2019_Oct_18,17,001,2,source,11,RUMBLED,LF,target,left,aqua,pleasantness,conservative,no,1,1,1.75015452386,-,-
2019_Oct_18,17,001,2,source,12,ARPEGGIO,LF,target,right,yellow,imageability,conservative,no,9,1,1.116848637,-,-
2019_Oct_18,17,001,2,source,13,SAWDUST,LF,target,right,yellow,imageability,liberal,no,9,1,0.833619773775,-,-
2019_Oct_18,17,001,2,source,14,ANYONE,HF,target,left,aqua,pleasantness,conservative,no,1,1,2.00017230419,-,-
2019_Oct_18,17,001,2,source,15,RUGGER,LF,target,right,yellow,imageability,liberal,no,8,1,1.28355147533,-,-
2019_Oct_18,17,001,2,source,16,KNEAD,LF,target,left,aqua,pleasantness,liberal,no,1,1,1.01690597397,-,-
2019_Oct_18,17,001,2,source,17,SUBJECT,HF,target,left,aqua,pleasantness,conservative,no,1,1,2.84989445452,-,-
2019_Oct_18,17,001,2,source,18,THANK,HF,target,right,yellow,imageability,liberal,no,8,1,1.5166805121,-,-
2019_Oct_18,17,001,2,source,19,ADDED,HF,target,left,aqua,pleasantness,liberal,yes,8,0,1.06668538794,-,-
2019_Oct_18,17,001,2,source,20,SKETCHY,LF,target,right,yellow,imageability,liberal,no,9,1,3.11670016211,-,-
2019_Oct_18,17,001,2,source,21,ABOVE,HF,target,left,aqua,pleasantness,liberal,no,9,0,1.68347646801,-,-
2019_Oct_18,17,001,2,source,22,TYRANTS,LF,target,right,yellow,imageability,conservative,no,9,1,0.833523723354,-,-
2019_Oct_18,17,001,2,source,23,PROBABLY,HF,target,left,aqua,pleasantness,liberal,no,1,1,1.78335974109,-,-
2019_Oct_18,17,001,2,source,24,LANGUAGE,HF,target,right,yellow,imageability,liberal,no,8,1,1.33355598456,-,-
2019_Oct_18,17,001,2,source,25,ENERGY,HF,target,right,yellow,imageability,conservative,no,9,1,3.78340520007,-,-
2019_Oct_18,17,001,2,source,26,PEPPERED,LF,target,right,yellow,imageability,conservative,yes,9,1,0.533478704302,-,-
2019_Oct_18,17,001,2,source,27,CRACKLE,LF,target,left,aqua,pleasantness,conservative,no,1,1,2.00013161107,-,-
2019_Oct_18,17,001,2,source,28,CHURCH,HF,target,right,yellow,imageability,conservative,no,1,0,1.61692892342,-,-
2019_Oct_18,17,001,2,source,29,SLEEP,HF,target,left,aqua,pleasantness,liberal,no,1,1,0.700246431653,-,-
2019_Oct_18,17,001,2,source,30,REACHED,HF,target,left,aqua,pleasantness,conservative,no,1,1,1.28351114881,-,-
2019_Oct_18,17,001,2,source,31,HYDRAULIC,LF,target,right,yellow,imageability,conservative,no,8,1,2.549938887,-,-
2019_Oct_18,17,001,2,source,32,RANGE,HF,target,left,aqua,pleasantness,conservative,no,1,1,1.43326768666,-,-
2019_Oct_18,17,001,2,source,33,TOTAL,HF,target,left,aqua,pleasantness,conservative,no,1,1,1.43362329318,-,-
2019_Oct_18,17,001,2,source,34,UNION,HF,target,right,yellow,imageability,liberal,yes,8,1,0.533609215561,-,-
2019_Oct_18,17,001,2,source,35,AUDACIOUS,LF,target,left,aqua,pleasantness,conservative,no,1,1,2.13348075729,-,-
2019_Oct_18,17,001,2,source,36,OLDER,HF,target,right,yellow,imageability,liberal,no,9,1,1.03339731807,-,-
2019_Oct_18,17,001,2,source,37,UNDER,HF,target,right,yellow,imageability,conservative,no,9,1,0.916897322099,-,-
2019_Oct_18,17,001,2,source,38,JUNCTURE,LF,target,right,yellow,imageability,liberal,no,2,0,2.76656888098,-,-
2019_Oct_18,17,001,2,source,39,EASILY,HF,target,right,yellow,imageability,liberal,no,1,0,1.83361757415,-,-
2019_Oct_18,17,001,2,source,40,LOCAL,HF,target,left,aqua,pleasantness,liberal,no,8,0,1.70016504542,-,-
2019_Oct_18,17,001,2,source,41,BAWLED,LF,target,left,aqua,pleasantness,conservative,no,1,1,2.25015965633,-,-
2019_Oct_18,17,001,2,source,42,VOYAGES,LF,target,left,aqua,pleasantness,conservative,no,1,1,3.43343155894,-,-
2019_Oct_18,17,001,2,source,43,CUCKOO,LF,target,left,aqua,pleasantness,liberal,no,7,0,4.2000140043,-,-
2019_Oct_18,17,001,2,source,44,MARKET,HF,target,right,yellow,imageability,conservative,no,3,0,2.55024426869,-,-
2019_Oct_18,17,001,2,source,45,PELTED,LF,target,right,yellow,imageability,liberal,no,8,1,1.76681010685,-,-
2019_Oct_18,17,001,2,source,46,HAIRDO,LF,target,left,aqua,pleasantness,liberal,no,1,1,1.10020148592,-,-
2019_Oct_18,17,001,2,source,47,ALREADY,HF,target,left,aqua,pleasantness,liberal,no,2,1,1.45015862984,-,-
2019_Oct_18,17,001,2,recog,0,EASILY,HF,target,right,yellow,imageability,liberal,no,z,1,2.06662196534,3,301
2019_Oct_18,17,001,2,recog,1,NATIONAL,HF,lure,-,-,-,conservative,no,m,1,5.23334093427,3,304
2019_Oct_18,17,001,2,recog,2,FOUND,HF,lure,-,-,-,liberal,no,m,1,2.78347118891,1,305
2019_Oct_18,17,001,2,recog,3,CRACKLE,LF,target,left,aqua,pleasantness,conservative,no,z,1,0.883553161709,1,306
2019_Oct_18,17,001,2,recog,4,ABOVE,HF,target,left,aqua,pleasantness,liberal,no,z,1,0.983397941294,3,309
2019_Oct_18,17,001,2,recog,5,ROUND,HF,target,right,yellow,imageability,conservative,no,z,1,2.0501192565,1,310
2019_Oct_18,17,001,2,recog,6,SKETCHY,LF,target,right,yellow,imageability,liberal,no,z,1,1.85017490708,3,313
2019_Oct_18,17,001,2,recog,7,JUNCTURE,LF,target,right,yellow,imageability,liberal,no,z,1,0.616917192072,3,316
2019_Oct_18,17,001,2,recog,8,SLEEP,HF,target,left,aqua,pleasantness,liberal,no,z,1,0.800236386686,3,319
2019_Oct_18,17,001,2,recog,9,THANK,HF,target,right,yellow,imageability,liberal,no,z,1,0.616866967234,3,322
2019_Oct_18,17,001,2,recog,10,KNEAD,LF,target,left,aqua,pleasantness,liberal,no,z,1,0.85023832969,3,325
2019_Oct_18,17,001,2,recog,11,SUBJECT,HF,target,left,aqua,pleasantness,conservative,no,z,1,1.05030732469,1,326
2019_Oct_18,17,001,2,recog,12,CHAIR,HF,lure,-,-,-,conservative,no,m,1,1.49998240298,3,329
2019_Oct_18,17,001,2,recog,13,ALREADY,HF,target,left,aqua,pleasantness,liberal,no,z,1,1.81683734558,3,332
2019_Oct_18,17,001,2,recog,14,TYRANTS,LF,target,right,yellow,imageability,conservative,no,z,1,1.0835898955,1,333
2019_Oct_18,17,001,2,recog,15,SUPPORT,HF,target,left,aqua,pleasantness,conservative,no,z,1,2.11678301477,1,334
2019_Oct_18,17,001,2,recog,16,QUICKLY,HF,lure,-,-,-,conservative,no,z,0,2.73346961251,-3,331
2019_Oct_18,17,001,2,recog,17,RANGE,HF,target,left,aqua,pleasantness,conservative,no,z,1,1.11687356612,1,332
2019_Oct_18,17,001,2,recog,18,SIMILAR,HF,lure,-,-,-,conservative,no,m,1,1.14996476929,3,335
2019_Oct_18,17,001,2,recog,19,OLDER,HF,target,right,yellow,imageability,liberal,no,z,1,1.53356778923,3,338
2019_Oct_18,17,001,2,recog,20,LIVED,HF,lure,-,-,-,conservative,no,m,1,2.63329158928,3,341
2019_Oct_18,17,001,2,recog,21,HAIRDO,LF,target,left,aqua,pleasantness,liberal,no,z,1,1.21688551743,3,344
2019_Oct_18,17,001,2,recog,22,HAVING,HF,lure,-,-,-,liberal,no,m,1,1.31684467767,1,345
2019_Oct_18,17,001,2,recog,23,FIELD,HF,lure,-,-,-,liberal,no,m,1,1.98348152716,1,346
2019_Oct_18,17,001,2,recog,24,PEWTER,LF,lure,-,-,-,conservative,no,m,1,1.16689053991,3,349
2019_Oct_18,17,001,2,recog,25,EPIDEMICS,LF,lure,-,-,-,conservative,no,m,1,0.866897212118,3,352
2019_Oct_18,17,001,2,recog,26,PROBABLY,HF,target,left,aqua,pleasantness,liberal,no,z,1,1.7335242366,3,355
2019_Oct_18,17,001,2,recog,27,DRAFTING,LF,target,right,yellow,imageability,conservative,no,z,1,1.06688885353,1,356
2019_Oct_18,17,001,2,recog,28,NUANCE,LF,target,right,yellow,imageability,conservative,yes,m,0,1.18333202578,-1,355
2019_Oct_18,17,001,2,recog,29,FEVERS,LF,lure,-,-,-,liberal,no,m,1,2.73342232051,1,356
2019_Oct_18,17,001,2,recog,30,MARKET,HF,target,right,yellow,imageability,conservative,no,z,1,1.03360811575,1,357
2019_Oct_18,17,001,2,recog,31,SEGMENTED,LF,target,right,yellow,imageability,liberal,no,z,1,2.21692437752,3,360
2019_Oct_18,17,001,2,recog,32,ENERGY,HF,target,right,yellow,imageability,conservative,no,z,1,1.20019767323,1,361
2019_Oct_18,17,001,2,recog,33,SECOND,HF,lure,-,-,-,conservative,no,m,1,0.866888413607,3,364
2019_Oct_18,17,001,2,recog,34,GORGED,LF,lure,-,-,-,conservative,no,z,0,1.66687294289,-3,361
2019_Oct_18,17,001,2,recog,35,LOCAL,HF,target,left,aqua,pleasantness,liberal,no,z,1,1.43352687615,3,364
2019_Oct_18,17,001,2,recog,36,LANGUAGE,HF,target,right,yellow,imageability,liberal,no,z,1,1.81661225031,3,367
2019_Oct_18,17,001,2,recog,37,PULSAR,LF,lure,-,-,-,conservative,no,z,0,1.08356313335,-3,364
2019_Oct_18,17,001,2,recog,38,FATHER,HF,lure,-,-,-,liberal,no,m,1,1.60020405215,1,365
2019_Oct_18,17,001,2,recog,39,PELTED,LF,target,right,yellow,imageability,liberal,no,z,1,0.900061736225,3,368
2019_Oct_18,17,001,2,recog,40,BELIEVE,HF,lure,-,-,-,conservative,no,m,1,1.68352339341,3,371
2019_Oct_18,17,001,2,recog,41,FUTURE,HF,lure,-,-,-,conservative,no,z,0,4.41675397968,-3,368
2019_Oct_18,17,001,2,recog,42,BAGGY,LF,lure,-,-,-,conservative,no,m,1,1.1835541882,3,371
2019_Oct_18,17,001,2,recog,43,NORTH,HF,lure,-,-,-,liberal,no,m,1,1.06686575744,1,372
2019_Oct_18,17,001,2,recog,44,AUDACIOUS,LF,target,left,aqua,pleasantness,conservative,no,z,1,0.800192760731,1,373
2019_Oct_18,17,001,2,recog,45,LAPELS,LF,target,left,aqua,pleasantness,liberal,no,z,1,1.01689680885,3,376
2019_Oct_18,17,001,2,recog,46,SAWDUST,LF,target,right,yellow,imageability,liberal,no,z,1,0.950246981561,3,379
2019_Oct_18,17,001,2,recog,47,SUGARY,LF,lure,-,-,-,conservative,no,m,1,1.70020793816,3,382
2019_Oct_18,17,001,2,recog,48,DECIDED,HF,lure,-,-,-,conservative,no,m,1,1.15024962111,3,385
2019_Oct_18,17,001,2,recog,49,GAPED,LF,lure,-,-,-,liberal,no,m,1,1.13331065272,1,386
2019_Oct_18,17,001,2,recog,50,UNDER,HF,target,right,yellow,imageability,conservative,no,z,1,1.08356313336,1,387
2019_Oct_18,17,001,2,recog,51,RIDDLES,LF,lure,-,-,-,liberal,no,m,1,1.01694336764,1,388
2019_Oct_18,17,001,2,recog,52,OBTAINS,LF,target,left,aqua,pleasantness,liberal,no,m,0,1.116675233,-3,385
2019_Oct_18,17,001,2,recog,53,EVENING,HF,lure,-,-,-,liberal,no,m,1,1.66681025349,1,386
2019_Oct_18,17,001,2,recog,54,POUNDS,HF,target,right,yellow,imageability,conservative,no,z,1,2.75014755838,1,387
2019_Oct_18,17,001,2,recog,55,HYDRAULIC,LF,target,right,yellow,imageability,conservative,no,z,1,1.533628279,1,388
2019_Oct_18,17,001,2,recog,56,RUGGER,LF,target,right,yellow,imageability,liberal,no,z,1,2.7165922337,3,391
2019_Oct_18,17,001,2,recog,57,UNMADE,LF,lure,-,-,-,liberal,no,m,1,1.76685556583,1,392
2019_Oct_18,17,001,2,recog,58,PEPPERED,LF,target,right,yellow,imageability,conservative,no,z,1,1.21686205473,1,393
2019_Oct_18,17,001,2,recog,59,ASHEN,LF,lure,-,-,-,conservative,no,m,1,1.2501732207,3,396
2019_Oct_18,17,001,2,recog,60,FUELLED,LF,lure,-,-,-,liberal,no,m,1,1.16692243452,1,397
2019_Oct_18,17,001,2,recog,61,ALTHOUGH,HF,lure,-,-,-,liberal,no,m,1,0.850190671084,1,398
2019_Oct_18,17,001,2,recog,62,ADDED,HF,target,left,aqua,pleasantness,liberal,no,z,1,1.5335333284,3,401
2019_Oct_18,17,001,2,recog,63,POINT,HF,lure,-,-,-,liberal,no,m,1,2.36677146672,1,402
2019_Oct_18,17,001,2,recog,64,WEEKS,HF,lure,-,-,-,liberal,no,z,0,4.39983114189,-1,401
2019_Oct_18,17,001,2,recog,65,RUMBLED,LF,target,left,aqua,pleasantness,conservative,no,z,1,1.81681314967,1,402
2019_Oct_18,17,001,2,recog,66,MEMBERS,HF,lure,-,-,-,liberal,no,z,0,2.38348094059,-1,401
2019_Oct_18,17,001,2,recog,67,RATHER,HF,lure,-,-,-,conservative,no,m,1,0.766912022947,3,404
2019_Oct_18,17,001,2,recog,68,SMOCK,LF,target,left,aqua,pleasantness,conservative,no,z,1,0.783581170304,1,405
2019_Oct_18,17,001,2,recog,69,ABSENCES,LF,lure,-,-,-,conservative,no,m,1,1.15026575172,3,408
2019_Oct_18,17,001,2,recog,70,REACHED,HF,target,left,aqua,pleasantness,conservative,no,m,0,3.56672974711,-1,407
2019_Oct_18,17,001,2,recog,71,VOYAGES,LF,target,left,aqua,pleasantness,conservative,no,z,1,0.983543116741,1,408
2019_Oct_18,17,001,2,recog,72,INCLUDING,HF,lure,-,-,-,conservative,no,m,1,1.33354571963,3,411
2019_Oct_18,17,001,2,recog,73,FAMILY,HF,target,right,yellow,imageability,liberal,no,z,1,1.75014645856,3,414
2019_Oct_18,17,001,2,recog,74,ARPEGGIO,LF,target,right,yellow,imageability,conservative,no,z,1,1.06688078823,1,415
2019_Oct_18,17,001,2,recog,75,UNION,HF,target,right,yellow,imageability,liberal,no,z,1,1.0002672548,3,418
2019_Oct_18,17,001,2,recog,76,INNATELY,LF,lure,-,-,-,liberal,no,m,1,1.20025119751,1,419
2019_Oct_18,17,001,2,recog,77,BREAK,HF,lure,-,-,-,liberal,yes,z,0,1.3668719164,-1,418
2019_Oct_18,17,001,2,recog,78,HINDERED,LF,target,left,aqua,pleasantness,liberal,no,z,1,2.61685853533,3,421
2019_Oct_18,17,001,2,recog,79,EVADING,LF,lure,-,-,-,conservative,no,m,1,1.00022582847,3,424
2019_Oct_18,17,001,2,recog,80,ELICIT,LF,lure,-,-,-,liberal,no,m,1,1.48358124363,1,425
2019_Oct_18,17,001,2,recog,81,BONANZA,LF,lure,-,-,-,liberal,no,m,1,0.88349670459,1,426
2019_Oct_18,17,001,2,recog,82,AUSPICES,LF,lure,-,-,-,liberal,no,m,1,2.48318201115,1,427
2019_Oct_18,17,001,2,recog,83,SLUGS,LF,lure,-,-,-,liberal,no,m,1,0.800197893196,1,428
2019_Oct_18,17,001,2,recog,84,USUAL,HF,lure,-,-,-,conservative,no,m,1,2.23350260693,3,431
2019_Oct_18,17,001,2,recog,85,FELLS,LF,lure,-,-,-,liberal,no,m,1,1.50020786484,1,432
2019_Oct_18,17,001,2,recog,86,BAWLED,LF,target,left,aqua,pleasantness,conservative,no,z,1,1.93346235373,1,433
2019_Oct_18,17,001,2,recog,87,CHURCH,HF,target,right,yellow,imageability,conservative,no,z,1,1.03351353174,1,434
2019_Oct_18,17,001,2,recog,88,TOTAL,HF,target,left,aqua,pleasantness,conservative,yes,m,0,1.41683316628,-1,433
2019_Oct_18,17,001,2,recog,89,ULCER,LF,lure,-,-,-,liberal,no,m,1,1.51681908866,1,434
2019_Oct_18,17,001,2,recog,90,BUOYANCY,LF,lure,-,-,-,conservative,yes,m,1,0.966849773476,3,437
2019_Oct_18,17,001,2,recog,91,CUCKOO,LF,target,left,aqua,pleasantness,liberal,no,z,1,1.03358941891,3,440
2019_Oct_18,17,001,2,recog,92,ANYONE,HF,target,left,aqua,pleasantness,conservative,no,z,1,0.966904764175,1,441
2019_Oct_18,17,001,2,recog,93,NERVY,LF,lure,-,-,-,conservative,no,m,1,1.1836172442,3,444
2019_Oct_18,17,001,2,recog,94,PRIVATE,HF,lure,-,-,-,liberal,no,m,1,2.88348863929,1,445
2019_Oct_18,17,001,2,recog,95,COOING,LF,lure,-,-,-,conservative,no,m,1,1.06692661381,3,448
2019_Oct_18,17,001,3,source,0,MIDDLE,HF,target,right,yellow,imageability,liberal,no,9,1,2.28325415895,-,-
2019_Oct_18,17,001,3,source,1,NIMBLE,LF,target,right,yellow,imageability,liberal,no,9,1,0.816901501393,-,-
2019_Oct_18,17,001,3,source,2,ARDENTLY,LF,target,right,yellow,imageability,liberal,no,8,1,2.11667156695,-,-
2019_Oct_18,17,001,3,source,3,AGILITY,LF,target,right,yellow,imageability,conservative,no,8,1,1.88350257026,-,-
2019_Oct_18,17,001,3,source,4,LEECH,LF,target,left,aqua,pleasantness,conservative,no,2,1,2.38348314022,-,-
2019_Oct_18,17,001,3,source,5,BECAME,HF,target,right,yellow,imageability,liberal,yes,2,0,0.900025442364,-,-
2019_Oct_18,17,001,3,source,6,DIABETIC,LF,target,left,aqua,pleasantness,liberal,no,1,1,1.23356859577,-,-
2019_Oct_18,17,001,3,source,7,SOVIET,HF,target,left,aqua,pleasantness,liberal,yes,1,1,0.516727070895,-,-
2019_Oct_18,17,001,3,source,8,DODGED,LF,target,left,aqua,pleasantness,conservative,no,1,1,1.2001712777,-,-
2019_Oct_18,17,001,3,source,9,DOING,HF,target,left,aqua,pleasantness,conservative,no,1,1,1.91681043679,-,-
2019_Oct_18,17,001,3,source,10,NOBLEMAN,LF,target,left,aqua,pleasantness,conservative,no,1,1,0.800202292452,-,-
2019_Oct_18,17,001,3,source,11,NIPPED,LF,target,right,yellow,imageability,conservative,no,9,1,0.833602176752,-,-
2019_Oct_18,17,001,3,source,12,MAILBOX,LF,target,left,aqua,pleasantness,conservative,no,1,1,1.03356925565,-,-
2019_Oct_18,17,001,3,source,13,BOOKS,HF,target,right,yellow,imageability,conservative,yes,1,0,0.750243975403,-,-
2019_Oct_18,17,001,3,source,14,LONGER,HF,target,right,yellow,imageability,conservative,no,8,1,2.78342243049,-,-
2019_Oct_18,17,001,3,source,15,CANNOT,HF,target,right,yellow,imageability,conservative,no,8,1,1.26681450611,-,-
2019_Oct_18,17,001,3,source,16,STUDENT,HF,target,left,aqua,pleasantness,conservative,no,1,1,1.4502583463,-,-
2019_Oct_18,17,001,3,source,17,TRADE,HF,target,right,yellow,imageability,liberal,no,9,1,1.9835240533,-,-
2019_Oct_18,17,001,3,source,18,WAFER,LF,target,right,yellow,imageability,liberal,yes,8,1,0.600310734111,-,-
2019_Oct_18,17,001,3,source,19,SLOWLY,HF,target,left,aqua,pleasantness,liberal,no,2,1,2.78342206388,-,-
2019_Oct_18,17,001,3,source,20,KNOWLEDGE,HF,target,left,aqua,pleasantness,conservative,no,1,1,1.96680798054,-,-
2019_Oct_18,17,001,3,source,21,OBVIOUSLY,HF,target,right,yellow,imageability,conservative,no,8,1,2.01662992066,-,-
2019_Oct_18,17,001,3,source,22,UNVEILED,LF,target,right,yellow,imageability,liberal,no,9,1,1.28349685123,-,-
2019_Oct_18,17,001,3,source,23,ENFORCING,LF,target,right,yellow,imageability,conservative,no,1,0,3.48348409339,-,-
2019_Oct_18,17,001,3,source,24,FLUFF,LF,target,right,yellow,imageability,liberal,no,9,1,1.1502015959,-,-
2019_Oct_18,17,001,3,source,25,BANALITY,LF,target,right,yellow,imageability,conservative,no,8,1,3.00010668196,-,-
2019_Oct_18,17,001,3,source,26,TROUBLE,HF,target,right,yellow,imageability,conservative,no,8,1,1.2668845276,-,-
2019_Oct_18,17,001,3,source,27,SERIOUS,HF,target,right,yellow,imageability,liberal,no,8,1,3.41655198051,-,-
2019_Oct_18,17,001,3,source,28,SIGNPOST,LF,target,left,aqua,pleasantness,liberal,no,1,1,1.10027993932,-,-
2019_Oct_18,17,001,3,source,29,COGENT,LF,target,left,aqua,pleasantness,liberal,no,3,1,1.8001429025,-,-
2019_Oct_18,17,001,3,source,30,USING,HF,target,right,yellow,imageability,liberal,no,1,0,1.85017344067,-,-
2019_Oct_18,17,001,3,source,31,OUSTED,LF,target,left,aqua,pleasantness,liberal,no,1,1,1.91660293856,-,-
2019_Oct_18,17,001,3,source,32,FENCED,LF,target,left,aqua,pleasantness,liberal,no,1,1,1.13354931236,-,-
2019_Oct_18,17,001,3,source,33,INSIDE,HF,target,right,yellow,imageability,conservative,no,8,1,1.6002627089,-,-
2019_Oct_18,17,001,3,source,34,CARRIED,HF,target,left,aqua,pleasantness,conservative,no,1,1,1.41686102824,-,-
2019_Oct_18,17,001,3,source,35,PATCHY,LF,target,left,aqua,pleasantness,conservative,no,1,1,0.966718162402,-,-
2019_Oct_18,17,001,3,source,36,COMES,HF,target,left,aqua,pleasantness,liberal,no,1,1,2.46677461952,-,-
2019_Oct_18,17,001,3,source,37,GNOMES,LF,target,left,aqua,pleasantness,liberal,no,1,1,1.28354267682,-,-
2019_Oct_18,17,001,3,source,38,YOUNG,HF,target,left,aqua,pleasantness,liberal,no,1,1,0.950218753002,-,-
2019_Oct_18,17,001,3,source,39,INTEREST,HF,target,left,aqua,pleasantness,liberal,no,8,0,1.41686102824,-,-
2019_Oct_18,17,001,3,source,40,ESTRANGED,LF,target,right,yellow,imageability,liberal,no,8,1,1.58339889447,-,-
2019_Oct_18,17,001,3,source,41,TELEPHONE,HF,target,left,aqua,pleasantness,conservative,no,1,1,3.13343273208,-,-
2019_Oct_18,17,001,3,source,42,EMBATTLED,LF,target,left,aqua,pleasantness,conservative,no,1,1,1.71691337938,-,-
2019_Oct_18,17,001,3,source,43,PIZZA,LF,target,right,yellow,imageability,conservative,no,9,1,2.61686696723,-,-
2019_Oct_18,17,001,3,source,44,FRIEND,HF,target,right,yellow,imageability,liberal,no,9,1,1.91679687242,-,-
2019_Oct_18,17,001,3,source,45,NUMBER,HF,target,left,aqua,pleasantness,conservative,no,1,1,1.88345967752,-,-
2019_Oct_18,17,001,3,source,46,GIMMICKS,LF,target,right,yellow,imageability,conservative,no,1,0,1.65016273581,-,-
2019_Oct_18,17,001,3,source,47,ANIMAL,HF,target,left,aqua,pleasantness,liberal,no,1,1,0.866895745699,-,-
2019_Oct_18,17,001,3,recog,0,AGILITY,LF,target,right,yellow,imageability,conservative,no,z,1,1.88346920924,1,449
2019_Oct_18,17,001,3,recog,1,YOGHURT,LF,lure,-,-,-,liberal,no,m,1,1.50024635833,1,450
2019_Oct_18,17,001,3,recog,2,WRONG,HF,lure,-,-,-,liberal,no,m,1,1.08353967066,1,451
2019_Oct_18,17,001,3,recog,3,MONEY,HF,lure,-,-,-,conservative,no,m,1,1.63352365003,3,454
2019_Oct_18,17,001,3,recog,4,OBVIOUSLY,HF,target,right,yellow,imageability,conservative,no,z,1,0.783569438955,1,455
2019_Oct_18,17,001,3,recog,5,PICTURE,HF,lure,-,-,-,conservative,no,m,1,0.81669363655,3,458
2019_Oct_18,17,001,3,recog,6,INHABITS,LF,lure,-,-,-,liberal,no,m,1,1.96681861208,1,459
2019_Oct_18,17,001,3,recog,7,LIGHT,HF,lure,-,-,-,conservative,no,m,1,0.716865354174,3,462
2019_Oct_18,17,001,3,recog,8,FENCED,LF,target,left,aqua,pleasantness,liberal,no,z,1,0.71686278794,3,465
2019_Oct_18,17,001,3,recog,9,BECAME,HF,target,right,yellow,imageability,liberal,no,z,1,1.0836533181,3,468
2019_Oct_18,17,001,3,recog,10,BOOKS,HF,target,right,yellow,imageability,conservative,no,z,1,0.96687066994,1,469
2019_Oct_18,17,001,3,recog,11,SOVIET,HF,target,left,aqua,pleasantness,liberal,no,z,1,0.666907037124,3,472
2019_Oct_18,17,001,3,recog,12,ARMAMENT,LF,lure,-,-,-,liberal,no,m,1,0.916927750287,1,473
2019_Oct_18,17,001,3,recog,13,NOBLEMAN,LF,target,left,aqua,pleasantness,conservative,no,z,1,0.700300689144,1,474
2019_Oct_18,17,001,3,recog,14,ARDENTLY,LF,target,right,yellow,imageability,liberal,no,z,1,1.11684020509,3,477
2019_Oct_18,17,001,3,recog,15,JUMBO,LF,lure,-,-,-,liberal,no,m,1,0.733564929718,1,478
2019_Oct_18,17,001,3,recog,16,WAFER,LF,target,right,yellow,imageability,liberal,no,z,1,0.75023041103,3,481
2019_Oct_18,17,001,3,recog,17,SYSTEM,HF,lure,-,-,-,conservative,no,m,1,0.800238219709,3,484
2019_Oct_18,17,001,3,recog,18,GIMMICKS,LF,target,right,yellow,imageability,conservative,no,z,1,1.31684797711,1,485
2019_Oct_18,17,001,3,recog,19,SUCCESS,HF,lure,-,-,-,conservative,no,m,1,1.33354608624,3,488
2019_Oct_18,17,001,3,recog,20,BANALITY,LF,target,right,yellow,imageability,conservative,no,z,1,1.28350454993,1,489
2019_Oct_18,17,001,3,recog,21,OXIDE,LF,lure,-,-,-,liberal,no,m,1,1.63336601003,1,490
2019_Oct_18,17,001,3,recog,22,RIVER,HF,lure,-,-,-,conservative,no,m,1,2.15011727683,3,493
2019_Oct_18,17,001,3,recog,23,HOODLUMS,LF,lure,-,-,-,conservative,no,m,1,0.716961771199,3,496
2019_Oct_18,17,001,3,recog,24,OUTSIDE,HF,lure,-,-,-,conservative,no,m,1,1.0336198471,3,499
2019_Oct_18,17,001,3,recog,25,DOING,HF,target,left,aqua,pleasantness,conservative,yes,m,0,0.516897542063,-1,498
2019_Oct_18,17,001,3,recog,26,JOCKEYS,LF,lure,-,-,-,conservative,no,m,1,0.700218936304,3,501
2019_Oct_18,17,001,3,recog,27,FLUFF,LF,target,right,yellow,imageability,liberal,no,z,1,0.600242912248,3,504
2019_Oct_18,17,001,3,recog,28,PARENTS,HF,lure,-,-,-,conservative,no,m,1,0.716943074362,3,507
2019_Oct_18,17,001,3,recog,29,CARRIED,HF,target,left,aqua,pleasantness,conservative,no,z,1,0.750238109727,1,508
2019_Oct_18,17,001,3,recog,30,PONCE,LF,lure,-,-,-,liberal,no,m,1,0.850186638433,1,509
2019_Oct_18,17,001,3,recog,31,DENIALS,LF,lure,-,-,-,liberal,no,m,1,2.2333193046,1,510
2019_Oct_18,17,001,3,recog,32,GREATER,HF,lure,-,-,-,conservative,no,m,1,3.01675163341,3,513
2019_Oct_18,17,001,3,recog,33,HUMAN,HF,lure,-,-,-,liberal,no,m,1,1.20020243909,1,514
2019_Oct_18,17,001,3,recog,34,INTEREST,HF,target,left,aqua,pleasantness,liberal,no,m,0,1.10022274899,-3,511
2019_Oct_18,17,001,3,recog,35,ESTRANGED,LF,target,right,yellow,imageability,liberal,no,z,1,1.06689178637,3,514
2019_Oct_18,17,001,3,recog,36,SIGNPOST,LF,target,left,aqua,pleasantness,liberal,no,z,1,0.850229164575,3,517
2019_Oct_18,17,001,3,recog,37,COMES,HF,target,left,aqua,pleasantness,liberal,no,z,1,1.06692148135,3,520
2019_Oct_18,17,001,3,recog,38,ANIMAL,HF,target,left,aqua,pleasantness,liberal,no,z,1,0.600204052154,3,523
2019_Oct_18,17,001,3,recog,39,RETURN,HF,lure,-,-,-,liberal,no,m,1,0.91690208796,1,524
2019_Oct_18,17,001,3,recog,40,MERELY,HF,lure,-,-,-,liberal,no,m,1,0.700349080958,1,525
2019_Oct_18,17,001,3,recog,41,CANNOT,HF,target,right,yellow,imageability,conservative,no,z,1,1.46687323617,1,526
2019_Oct_18,17,001,3,recog,42,SYMBOLIZE,LF,lure,-,-,-,conservative,no,m,1,0.833522256936,3,529
2019_Oct_18,17,001,3,recog,43,IDEAS,HF,lure,-,-,-,conservative,no,m,1,0.88362721585,3,532
2019_Oct_18,17,001,3,recog,44,COGENT,LF,target,left,aqua,pleasantness,liberal,no,z,1,0.766902491226,3,535
2019_Oct_18,17,001,3,recog,45,TROUBLE,HF,target,right,yellow,imageability,conservative,no,z,1,1.45015716342,1,536
2019_Oct_18,17,001,3,recog,46,EMBATTLED,LF,target,left,aqua,pleasantness,conservative,no,z,1,0.666831149958,1,537
2019_Oct_18,17,001,3,recog,47,NIMBLE,LF,target,right,yellow,imageability,liberal,no,z,1,0.766909090109,3,540
2019_Oct_18,17,001,3,recog,48,GLASS,HF,lure,-,-,-,liberal,no,m,1,0.866893546071,1,541
2019_Oct_18,17,001,3,recog,49,INSIDE,HF,target,right,yellow,imageability,conservative,no,z,1,0.766958215134,1,542
2019_Oct_18,17,001,3,recog,50,PIZZA,LF,target,right,yellow,imageability,conservative,no,z,1,0.833574314798,1,543
2019_Oct_18,17,001,3,recog,51,HARDLY,HF,lure,-,-,-,liberal,no,m,1,0.966856005754,1,544
2019_Oct_18,17,001,3,recog,52,USING,HF,target,right,yellow,imageability,liberal,no,z,1,0.783569438955,3,547
2019_Oct_18,17,001,3,recog,53,OUSTED,LF,target,left,aqua,pleasantness,liberal,no,z,1,0.800239319523,3,550
2019_Oct_18,17,001,3,recog,54,PEOPLED,LF,lure,-,-,-,conservative,yes,z,0,0.750200716052,-3,547
2019_Oct_18,17,001,3,recog,55,TOFFEE,LF,lure,-,-,-,conservative,no,m,1,2.30012640529,3,550
2019_Oct_18,17,001,3,recog,56,TRADE,HF,target,right,yellow,imageability,liberal,yes,m,0,0.533557890909,-3,547
2019_Oct_18,17,001,3,recog,57,STUDENT,HF,target,left,aqua,pleasantness,conservative,no,z,1,2.70015074784,1,548
2019_Oct_18,17,001,3,recog,58,MIDDLE,HF,target,right,yellow,imageability,liberal,no,z,1,0.650247421487,3,551
2019_Oct_18,17,001,3,recog,59,SCUFFED,LF,lure,-,-,-,conservative,no,z,0,0.983645032838,-3,548
2019_Oct_18,17,001,3,recog,60,AHEAD,HF,lure,-,-,-,liberal,no,z,0,0.850221099271,-1,547
2019_Oct_18,17,001,3,recog,61,ENCLOSE,LF,lure,-,-,-,conservative,no,z,0,0.750244708611,-3,544
2019_Oct_18,17,001,3,recog,62,SERIOUS,HF,target,right,yellow,imageability,liberal,no,z,1,2.35014557871,3,547
2019_Oct_18,17,001,3,recog,63,SIZZLING,LF,lure,-,-,-,conservative,no,m,1,0.83358861238,3,550
2019_Oct_18,17,001,3,recog,64,DRINK,HF,lure,-,-,-,liberal,no,z,0,0.75024140917,-1,549
2019_Oct_18,17,001,3,recog,65,JINGLE,LF,lure,-,-,-,liberal,no,m,1,0.966921261384,1,550
2019_Oct_18,17,001,3,recog,66,LOITERING,LF,lure,-,-,-,liberal,no,m,1,1.15024448865,1,551
2019_Oct_18,17,001,3,recog,67,WALKED,HF,lure,-,-,-,liberal,no,m,1,1.01692687044,1,552
2019_Oct_18,17,001,3,recog,68,LOOKED,HF,lure,-,-,-,liberal,no,m,1,0.866896845513,1,553
2019_Oct_18,17,001,3,recog,69,DIMMED,LF,lure,-,-,-,conservative,no,m,1,1.81695429246,3,556
2019_Oct_18,17,001,3,recog,70,INUNDATED,LF,lure,-,-,-,conservative,no,m,1,1.30025838296,3,559
2019_Oct_18,17,001,3,recog,71,ENFORCING,LF,target,right,yellow,imageability,conservative,no,z,1,2.63321166947,1,560
2019_Oct_18,17,001,3,recog,72,ECHELONS,LF,lure,-,-,-,liberal,no,m,1,0.850240895924,1,561
2019_Oct_18,17,001,3,recog,73,DODGED,LF,target,left,aqua,pleasantness,conservative,no,z,1,0.833593744845,1,562
2019_Oct_18,17,001,3,recog,74,FRUGAL,LF,lure,-,-,-,liberal,yes,m,1,0.767115488534,1,563
2019_Oct_18,17,001,3,recog,75,TURNED,HF,lure,-,-,-,conservative,no,m,1,3.20006056309,3,566
2019_Oct_18,17,001,3,recog,76,PATCHY,LF,target,left,aqua,pleasantness,conservative,no,z,1,0.716933176035,1,567
2019_Oct_18,17,001,3,recog,77,LONGER,HF,target,right,yellow,imageability,conservative,no,z,1,0.733578127486,1,568
2019_Oct_18,17,001,3,recog,78,TIRADE,LF,lure,-,-,-,conservative,no,z,0,1.58356753261,-3,565
2019_Oct_18,17,001,3,recog,79,GNOMES,LF,target,left,aqua,pleasantness,liberal,no,z,1,1.10025940946,3,568
2019_Oct_18,17,001,3,recog,80,UNJUSTLY,LF,lure,-,-,-,conservative,no,m,1,0.966824477753,3,571
2019_Oct_18,17,001,3,recog,81,KNOWLEDGE,HF,target,left,aqua,pleasantness,conservative,no,z,1,0.683524126619,1,572
2019_Oct_18,17,001,3,recog,82,YOUNG,HF,target,left,aqua,pleasantness,liberal,no,z,1,0.616962651051,3,575
2019_Oct_18,17,001,3,recog,83,MAILBOX,LF,target,left,aqua,pleasantness,conservative,no,z,1,0.683578750713,1,576
2019_Oct_18,17,001,3,recog,84,TELEPHONE,HF,target,left,aqua,pleasantness,conservative,no,z,1,2.98340710641,1,577
2019_Oct_18,17,001,3,recog,85,TODAY,HF,lure,-,-,-,liberal,no,m,1,2.20011958644,1,578
2019_Oct_18,17,001,3,recog,86,HOURS,HF,lure,-,-,-,conservative,no,m,1,0.850280855831,3,581
2019_Oct_18,17,001,3,recog,87,LINEAGE,LF,lure,-,-,-,liberal,no,m,1,1.23349637465,1,582
2019_Oct_18,17,001,3,recog,88,FRIEND,HF,target,right,yellow,imageability,liberal,no,z,1,0.750253507123,3,585
2019_Oct_18,17,001,3,recog,89,SLOWLY,HF,target,left,aqua,pleasantness,liberal,no,z,1,0.800244085383,3,588
2019_Oct_18,17,001,3,recog,90,NIPPED,LF,target,right,yellow,imageability,conservative,no,z,1,1.31688280456,1,589
2019_Oct_18,17,001,3,recog,91,DIABETIC,LF,target,left,aqua,pleasantness,liberal,no,z,1,0.650289214417,3,592
2019_Oct_18,17,001,3,recog,92,LEECH,LF,target,left,aqua,pleasantness,conservative,no,z,1,0.750215013634,1,593
2019_Oct_18,17,001,3,recog,93,NUMBER,HF,target,left,aqua,pleasantness,conservative,no,z,1,1.866888047,1,594
2019_Oct_18,17,001,3,recog,94,DEGREE,HF,lure,-,-,-,liberal,no,m,1,0.916833166283,1,595
2019_Oct_18,17,001,3,recog,95,UNVEILED,LF,target,right,yellow,imageability,liberal,no,z,1,0.766859231876,3,598
2019_Oct_18,17,001,4,source,0,CHIEF,HF,target,left,aqua,pleasantness,liberal,no,1,1,2.09995696061,-,-
2019_Oct_18,17,001,4,source,1,ALLOWED,HF,target,right,yellow,imageability,liberal,no,9,1,1.73349197539,-,-
2019_Oct_18,17,001,4,source,2,EXCEPT,HF,target,left,aqua,pleasantness,conservative,no,8,0,1.65014110613,-,-
2019_Oct_18,17,001,4,source,3,WINDOW,HF,target,right,yellow,imageability,conservative,no,8,1,1.16687257628,-,-
2019_Oct_18,17,001,4,source,4,POWER,HF,target,left,aqua,pleasantness,liberal,no,8,0,0.600205518573,-,-
2019_Oct_18,17,001,4,source,5,TOUSLED,LF,target,right,yellow,imageability,conservative,no,2,0,2.51681212318,-,-
2019_Oct_18,17,001,4,source,6,BOILERS,LF,target,left,aqua,pleasantness,liberal,no,8,0,1.31683551255,-,-
2019_Oct_18,17,001,4,source,7,LEVEL,HF,target,left,aqua,pleasantness,conservative,no,2,1,1.71664355835,-,-
2019_Oct_18,17,001,4,source,8,NEITHER,HF,target,right,yellow,imageability,conservative,no,2,0,1.23348794274,-,-
2019_Oct_18,17,001,4,source,9,QUALITY,HF,target,left,aqua,pleasantness,conservative,no,2,1,2.16676039526,-,-
2019_Oct_18,17,001,4,source,10,KIPPERS,LF,target,right,yellow,imageability,conservative,no,8,1,1.0335175644,-,-
2019_Oct_18,17,001,4,source,11,CUBED,LF,target,right,yellow,imageability,liberal,no,9,1,1.81667640613,-,-
2019_Oct_18,17,001,4,source,12,HYPNOSIS,LF,target,left,aqua,pleasantness,liberal,no,1,1,0.833503926702,-,-
2019_Oct_18,17,001,4,source,13,MOGUL,LF,target,right,yellow,imageability,conservative,yes,2,0,0.866712076764,-,-
2019_Oct_18,17,001,4,source,14,GROUND,HF,target,right,yellow,imageability,conservative,no,9,1,2.78344662639,-,-
2019_Oct_18,17,001,4,source,15,WHOLE,HF,target,left,aqua,pleasantness,liberal,no,8,0,2.56660546813,-,-
2019_Oct_18,17,001,4,source,16,DAWDLING,LF,target,right,yellow,imageability,conservative,no,8,1,1.76680534099,-,-
2019_Oct_18,17,001,4,source,17,UNLESS,HF,target,right,yellow,imageability,liberal,no,8,1,3.2332723792,-,-
2019_Oct_18,17,001,4,source,18,NARRATOR,LF,target,left,aqua,pleasantness,liberal,no,2,1,2.24994922525,-,-
2019_Oct_18,17,001,4,source,19,SAYING,HF,target,right,yellow,imageability,liberal,no,1,0,4.28333077932,-,-
2019_Oct_18,17,001,4,source,20,OVARIES,LF,target,left,aqua,pleasantness,liberal,no,1,1,0.700261829049,-,-
2019_Oct_18,17,001,4,source,21,UPLIFT,LF,target,right,yellow,imageability,liberal,no,8,1,0.800416022969,-,-
2019_Oct_18,17,001,4,source,22,GOVERNS,LF,target,right,yellow,imageability,liberal,no,2,0,2.21683162654,-,-
2019_Oct_18,17,001,4,source,23,ENROLMENT,LF,target,left,aqua,pleasantness,liberal,no,2,1,3.69982227006,-,-
2019_Oct_18,17,001,4,source,24,AILMENT,LF,target,left,aqua,pleasantness,conservative,no,2,1,1.48341883776,-,-
2019_Oct_18,17,001,4,source,25,SITTING,HF,target,right,yellow,imageability,conservative,no,9,1,2.71676050524,-,-
2019_Oct_18,17,001,4,source,26,BARBARIAN,LF,target,left,aqua,pleasantness,conservative,yes,9,0,0.600308167878,-,-
2019_Oct_18,17,001,4,source,27,HERSELF,HF,target,left,aqua,pleasantness,liberal,no,1,1,1.16692610057,-,-
2019_Oct_18,17,001,4,source,28,TOWARDS,HF,target,right,yellow,imageability,liberal,no,8,1,1.33353948735,-,-
2019_Oct_18,17,001,4,source,29,PHYSICAL,HF,target,left,aqua,pleasantness,liberal,no,1,1,0.716698182448,-,-
2019_Oct_18,17,001,4,source,30,FLECKED,LF,target,right,yellow,imageability,liberal,no,9,1,1.55019477706,-,-
2019_Oct_18,17,001,4,source,31,JEOPARDY,LF,target,right,yellow,imageability,liberal,no,1,0,1.31688317116,-,-
2019_Oct_18,17,001,4,source,32,BUSINESS,HF,target,left,aqua,pleasantness,conservative,no,1,1,1.93325302247,-,-
2019_Oct_18,17,001,4,source,33,OOZED,LF,target,left,aqua,pleasantness,conservative,no,9,0,2.9334597875,-,-
2019_Oct_18,17,001,4,source,34,BUILDING,HF,target,right,yellow,imageability,conservative,no,9,1,0.833359484466,-,-
2019_Oct_18,17,001,4,source,35,MAKES,HF,target,left,aqua,pleasantness,liberal,no,2,1,1.03335955779,-,-
2019_Oct_18,17,001,4,source,36,LATER,HF,target,left,aqua,pleasantness,conservative,no,1,1,1.68348746615,-,-
2019_Oct_18,17,001,4,source,37,GOUGED,LF,target,left,aqua,pleasantness,liberal,no,1,1,1.0835037434,-,-
2019_Oct_18,17,001,4,source,38,TABLE,HF,target,right,yellow,imageability,conservative,no,8,1,1.88346261036,-,-
2019_Oct_18,17,001,4,source,39,STYLED,LF,target,left,aqua,pleasantness,conservative,no,2,1,0.90023587344,-,-
2019_Oct_18,17,001,4,source,40,DIGESTING,LF,target,right,yellow,imageability,conservative,no,1,0,1.31687180642,-,-
2019_Oct_18,17,001,4,source,41,VACATED,LF,target,left,aqua,pleasantness,conservative,no,1,1,2.60009517057,-,-
2019_Oct_18,17,001,4,source,42,SINCE,HF,target,right,yellow,imageability,liberal,no,1,0,0.866710610345,-,-
2019_Oct_18,17,001,4,source,43,TEMERITY,LF,target,right,yellow,imageability,liberal,no,8,1,1.13350421999,-,-
2019_Oct_18,17,001,4,source,44,BAOBAB,LF,target,left,aqua,pleasantness,conservative,no,1,1,0.800196060173,-,-
2019_Oct_18,17,001,4,source,45,OMELETTE,LF,target,right,yellow,imageability,conservative,no,9,1,1.75018201921,-,-
2019_Oct_18,17,001,4,source,46,RESEARCH,HF,target,right,yellow,imageability,liberal,yes,9,1,0.566775206086,-,-
2019_Oct_18,17,001,4,source,47,MOMENT,HF,target,left,aqua,pleasantness,conservative,yes,9,0,0.400294530185,-,-
2019_Oct_18,17,001,4,recog,0,VACATED,LF,target,left,aqua,pleasantness,conservative,no,z,1,0.866756802533,1,599
2019_Oct_18,17,001,4,recog,1,TOUSLED,LF,target,right,yellow,imageability,conservative,no,z,1,1.08341575828,1,600
2019_Oct_18,17,001,4,recog,2,VIBRATE,LF,lure,-,-,-,conservative,no,m,1,0.750249841077,3,603
2019_Oct_18,17,001,4,recog,3,HUNDRED,HF,lure,-,-,-,conservative,no,m,1,2.45012893486,3,606
2019_Oct_18,17,001,4,recog,4,AREAS,HF,lure,-,-,-,liberal,no,m,1,0.566889220137,1,607
2019_Oct_18,17,001,4,recog,5,ALLOWED,HF,target,right,yellow,imageability,liberal,no,z,1,0.783528012629,3,610
2019_Oct_18,17,001,4,recog,6,WHITE,HF,lure,-,-,-,liberal,no,m,1,0.716907880314,1,611
2019_Oct_18,17,001,4,recog,7,DOODLE,LF,lure,-,-,-,conservative,no,m,1,0.800264981849,3,614
2019_Oct_18,17,001,4,recog,8,STYLED,LF,target,left,aqua,pleasantness,conservative,no,z,1,1.01668747759,1,615
2019_Oct_18,17,001,4,recog,9,ADENOIDS,LF,lure,-,-,-,conservative,no,m,1,0.750191184331,3,618
2019_Oct_18,17,001,4,recog,10,BEYOND,HF,lure,-,-,-,liberal,no,m,1,0.900232940601,1,619
2019_Oct_18,17,001,4,recog,11,NARRATOR,LF,target,left,aqua,pleasantness,liberal,no,z,1,0.683570685412,3,622
2019_Oct_18,17,001,4,recog,12,INVOLVED,HF,lure,-,-,-,liberal,no,m,1,1.40015668683,1,623
2019_Oct_18,17,001,4,recog,13,AGELESS,LF,lure,-,-,-,conservative,no,m,1,0.750292000614,3,626
2019_Oct_18,17,001,4,recog,14,GROUND,HF,target,right,yellow,imageability,conservative,no,z,1,0.883520900498,1,627
2019_Oct_18,17,001,4,recog,15,PAPER,HF,lure,-,-,-,conservative,no,m,1,0.833556351169,3,630
2019_Oct_18,17,001,4,recog,16,MUSIC,HF,lure,-,-,-,conservative,no,m,1,1.65019059776,3,633
2019_Oct_18,17,001,4,recog,17,RECENT,HF,lure,-,-,-,conservative,no,z,0,1.41684783047,-3,630
2019_Oct_18,17,001,4,recog,18,HOIST,LF,lure,-,-,-,conservative,yes,m,1,0.566951909534,3,633
2019_Oct_18,17,001,4,recog,19,GOVERNS,LF,target,right,yellow,imageability,liberal,no,z,1,0.983539450694,3,636
2019_Oct_18,17,001,4,recog,20,RESEARCH,HF,target,right,yellow,imageability,liberal,no,m,0,0.867035055471,-3,633
2019_Oct_18,17,001,4,recog,21,BUSINESS,HF,target,left,aqua,pleasantness,conservative,no,z,1,1.70022296896,1,634
2019_Oct_18,17,001,4,recog,22,QUALITY,HF,target,left,aqua,pleasantness,conservative,no,z,1,1.4335067129,1,635
2019_Oct_18,17,001,4,recog,23,UNABATED,LF,lure,-,-,-,liberal,no,m,1,1.0002122641,1,636
2019_Oct_18,17,001,4,recog,24,CHIEF,HF,target,left,aqua,pleasantness,liberal,no,z,1,0.63360833571,3,639
2019_Oct_18,17,001,4,recog,25,CUBED,LF,target,right,yellow,imageability,liberal,no,z,1,0.833569915541,3,642
2019_Oct_18,17,001,4,recog,26,WINDOW,HF,target,right,yellow,imageability,conservative,no,z,1,0.633604303059,1,643
2019_Oct_18,17,001,4,recog,27,ENROLMENT,LF,target,left,aqua,pleasantness,liberal,no,z,1,0.800251050872,3,646
2019_Oct_18,17,001,4,recog,28,DAWDLING,LF,target,right,yellow,imageability,conservative,no,z,1,0.950282175608,1,647
2019_Oct_18,17,001,4,recog,29,LIKELY,HF,lure,-,-,-,liberal,no,m,1,1.43357233513,1,648
2019_Oct_18,17,001,4,recog,30,BUILDING,HF,target,right,yellow,imageability,conservative,no,z,1,0.966888633569,1,649
2019_Oct_18,17,001,4,recog,31,SITTING,HF,target,right,yellow,imageability,conservative,no,z,1,1.78352068053,1,650
2019_Oct_18,17,001,4,recog,32,MOMENT,HF,target,left,aqua,pleasantness,conservative,no,z,1,1.51678609424,1,651
2019_Oct_18,17,001,4,recog,33,LEVEL,HF,target,left,aqua,pleasantness,conservative,no,z,1,3.25008340256,1,652
2019_Oct_18,17,001,4,recog,34,SNUBBED,LF,lure,-,-,-,liberal,no,m,1,0.900194813717,1,653
2019_Oct_18,17,001,4,recog,35,DITTO,LF,lure,-,-,-,liberal,no,m,1,0.816934129208,1,654
2019_Oct_18,17,001,4,recog,36,OVARIES,LF,target,left,aqua,pleasantness,liberal,no,z,1,0.65019902967,3,657
2019_Oct_18,17,001,4,recog,37,ARBITER,LF,lure,-,-,-,liberal,no,z,0,1.01683668569,-1,656
2019_Oct_18,17,001,4,recog,38,HOARD,LF,lure,-,-,-,liberal,no,m,1,2.11683837207,1,657
2019_Oct_18,17,001,4,recog,39,ROCKER,LF,lure,-,-,-,liberal,no,m,1,0.833600710333,1,658
2019_Oct_18,17,001,4,recog,40,SHUNNED,LF,lure,-,-,-,liberal,no,m,1,1.1169113264,1,659
2019_Oct_18,17,001,4,recog,41,OMELETTE,LF,target,right,yellow,imageability,conservative,no,z,1,0.766969213274,1,660
2019_Oct_18,17,001,4,recog,42,POSITION,HF,lure,-,-,-,liberal,no,m,1,1.10030743467,1,661
2019_Oct_18,17,001,4,recog,43,UPLIFT,LF,target,right,yellow,imageability,liberal,no,z,1,1.46696012148,3,664
2019_Oct_18,17,001,4,recog,44,CLOSE,HF,lure,-,-,-,conservative,no,m,1,1.21683162654,3,667
2019_Oct_18,17,001,4,recog,45,HIVES,LF,lure,-,-,-,liberal,no,m,1,1.15031267712,1,668
2019_Oct_18,17,001,4,recog,46,PIECE,HF,lure,-,-,-,liberal,no,m,1,1.48359847404,1,669
2019_Oct_18,17,001,4,recog,47,CAMPANILE,LF,lure,-,-,-,liberal,no,m,1,1.60004457913,1,670
2019_Oct_18,17,001,4,recog,48,EXCEPT,HF,target,left,aqua,pleasantness,conservative,no,z,1,1.03351536477,1,671
2019_Oct_18,17,001,4,recog,49,FEELING,HF,lure,-,-,-,liberal,no,z,0,1.13366369301,-1,670
2019_Oct_18,17,001,4,recog,50,INEDIBLE,LF,lure,-,-,-,conservative,no,m,1,1.16693233285,3,673
2019_Oct_18,17,001,4,recog,51,SWIFTNESS,LF,lure,-,-,-,liberal,no,m,1,0.950086408719,1,674
2019_Oct_18,17,001,4,recog,52,YANKED,LF,lure,-,-,-,liberal,no,m,1,0.616853402861,1,675
2019_Oct_18,17,001,4,recog,53,BAOBAB,LF,target,left,aqua,pleasantness,conservative,no,z,1,0.733390059295,1,676
2019_Oct_18,17,001,4,recog,54,KIPPERS,LF,target,right,yellow,imageability,conservative,no,m,0,0.883630148687,-1,675
2019_Oct_18,17,001,4,recog,55,HERSELF,HF,target,left,aqua,pleasantness,liberal,no,z,1,1.24999761707,3,678
2019_Oct_18,17,001,4,recog,56,WHETHER,HF,lure,-,-,-,conservative,no,m,1,1.50018000289,3,681
2019_Oct_18,17,001,4,recog,57,OOZED,LF,target,left,aqua,pleasantness,conservative,no,z,1,0.666901538053,1,682
2019_Oct_18,17,001,4,recog,58,TEMERITY,LF,target,right,yellow,imageability,liberal,no,z,1,1.116880165,3,685
2019_Oct_18,17,001,4,recog,59,WHOLE,HF,target,left,aqua,pleasantness,liberal,no,z,1,0.683577284295,3,688
2019_Oct_18,17,001,4,recog,60,ZENITH,LF,lure,-,-,-,conservative,no,m,1,1.25020768154,3,691
2019_Oct_18,17,001,4,recog,61,SINCE,HF,target,right,yellow,imageability,liberal,no,z,1,3.98314278445,3,694
2019_Oct_18,17,001,4,recog,62,TOWARDS,HF,target,right,yellow,imageability,liberal,no,m,0,1.93350487987,-3,691
2019_Oct_18,17,001,4,recog,63,FOLLOWED,HF,lure,-,-,-,conservative,yes,m,1,1.39999281455,3,694
2019_Oct_18,17,001,4,recog,64,NECESSARY,HF,lure,-,-,-,conservative,yes,m,1,0.533615081235,3,697
2019_Oct_18,17,001,4,recog,65,SAYING,HF,target,right,yellow,imageability,liberal,no,z,1,2.06684339455,3,700
2019_Oct_18,17,001,4,recog,66,BARBARIAN,LF,target,left,aqua,pleasantness,conservative,no,z,1,0.966949489943,1,701
2019_Oct_18,17,001,4,recog,67,JEOPARDY,LF,target,right,yellow,imageability,liberal,no,z,1,1.86689097984,3,704
2019_Oct_18,17,001,4,recog,68,EFFECT,HF,lure,-,-,-,conservative,no,m,1,0.950201522583,3,707
2019_Oct_18,17,001,4,recog,69,JOVIAL,LF,lure,-,-,-,conservative,no,m,1,1.10025134416,3,710
2019_Oct_18,17,001,4,recog,70,CRUCIALLY,LF,lure,-,-,-,conservative,no,m,1,0.883521267103,3,713
2019_Oct_18,17,001,4,recog,71,UNLESS,HF,target,right,yellow,imageability,liberal,no,z,1,1.36690564402,3,716
2019_Oct_18,17,001,4,recog,72,DREADING,LF,lure,-,-,-,conservative,no,m,1,1.00022436205,3,719
2019_Oct_18,17,001,4,recog,73,MAKES,HF,target,left,aqua,pleasantness,liberal,no,z,1,1.21687598571,3,722
2019_Oct_18,17,001,4,recog,74,FLOOR,HF,lure,-,-,-,conservative,no,z,0,0.816824881019,-3,719
2019_Oct_18,17,001,4,recog,75,PERHAPS,HF,lure,-,-,-,liberal,no,m,1,2.20016724505,1,720
2019_Oct_18,17,001,4,recog,76,TOMBSTONE,LF,lure,-,-,-,liberal,no,z,0,0.866885847374,-1,719
2019_Oct_18,17,001,4,recog,77,METABOLIC,LF,lure,-,-,-,conservative,no,z,0,1.46691832855,-3,716
2019_Oct_18,17,001,4,recog,78,NEITHER,HF,target,right,yellow,imageability,conservative,no,z,1,1.93330068108,1,717
2019_Oct_18,17,001,4,recog,79,HYPNOSIS,LF,target,left,aqua,pleasantness,liberal,no,z,1,0.866897212119,3,720
2019_Oct_18,17,001,4,recog,80,BOILERS,LF,target,left,aqua,pleasantness,liberal,no,z,1,0.766829170293,3,723
2019_Oct_18,17,001,4,recog,81,WRITE,HF,lure,-,-,-,liberal,no,m,1,0.833601076937,1,724
2019_Oct_18,17,001,4,recog,82,ORDER,HF,lure,-,-,-,liberal,no,m,1,1.2835412104,1,725
2019_Oct_18,17,001,4,recog,83,POWER,HF,target,left,aqua,pleasantness,liberal,no,z,1,1.28349978407,3,728
2019_Oct_18,17,001,4,recog,84,FLECKED,LF,target,right,yellow,imageability,liberal,no,z,1,0.916929216705,3,731
2019_Oct_18,17,001,4,recog,85,AILMENT,LF,target,left,aqua,pleasantness,conservative,no,z,1,0.850218899644,1,732
2019_Oct_18,17,001,4,recog,86,DIGESTING,LF,target,right,yellow,imageability,conservative,no,z,1,0.666909603356,1,733
2019_Oct_18,17,001,4,recog,87,TABLE,HF,target,right,yellow,imageability,conservative,no,z,1,4.13343493171,1,734
2019_Oct_18,17,001,4,recog,88,LATER,HF,target,left,aqua,pleasantness,conservative,no,z,1,1.10008013978,1,735
2019_Oct_18,17,001,4,recog,89,MOGUL,LF,target,right,yellow,imageability,conservative,no,z,1,0.833560750425,1,736
2019_Oct_18,17,001,4,recog,90,PHYSICAL,HF,target,left,aqua,pleasantness,liberal,no,z,1,0.733580693719,3,739
2019_Oct_18,17,001,4,recog,91,GOUGED,LF,target,left,aqua,pleasantness,liberal,yes,z,1,0.800264981849,3,742
2019_Oct_18,17,001,4,recog,92,DEVELOPED,HF,lure,-,-,-,conservative,no,m,1,1.98347822772,3,745
2019_Oct_18,17,001,4,recog,93,NURTURING,LF,lure,-,-,-,conservative,no,m,1,1.28350161709,3,748
2019_Oct_18,17,001,4,recog,94,SENSE,HF,lure,-,-,-,liberal,no,z,0,0.70018484207,-1,747
2019_Oct_18,17,001,4,recog,95,AFTERNOON,HF,lure,-,-,-,conservative,no,m,1,1.53332546355,3,750
