date,subj,session,cycle,task,trial,item,wf,type,source,colour,encoding,bias,null,response,corr,rt,points,total
2019_Oct_21,18,001,0,source,0,AREAS,HF,target,left,yellow,pleasantness,conservative,no,2,1,3.65010572917,-,-
2019_Oct_21,18,001,0,source,1,WHOLE,HF,target,left,yellow,pleasantness,liberal,no,3,1,2.5167564607,-,-
2019_Oct_21,18,001,0,source,2,SHIELDING,LF,target,right,aqua,imageability,liberal,no,8,1,3.53338937517,-,-
2019_Oct_21,18,001,0,source,3,FRIEND,HF,target,right,aqua,imageability,liberal,no,1,0,2.93342178314,-,-
2019_Oct_21,18,001,0,source,4,LONGER,HF,target,right,aqua,imageability,conservative,yes,3,0,2.28349055843,-,-
2019_Oct_21,18,001,0,source,5,TRIED,HF,target,left,yellow,pleasantness,liberal,no,8,0,1.98350896205,-,-
2019_Oct_21,18,001,0,source,6,AFIELD,LF,target,left,yellow,pleasantness,conservative,no,1,1,2.53350742231,-,-
2019_Oct_21,18,001,0,source,7,ADULATION,LF,target,right,aqua,imageability,conservative,no,3,0,2.28349202485,-,-
2019_Oct_21,18,001,0,source,8,WOMAN,HF,target,right,aqua,imageability,liberal,no,7,1,2.08350771559,-,-
2019_Oct_21,18,001,0,source,9,GODMOTHER,LF,target,right,aqua,imageability,liberal,no,8,1,2.06684143997,-,-
2019_Oct_21,18,001,0,source,10,THRASH,LF,target,right,aqua,imageability,conservative,no,8,1,1.95017897705,-,-
2019_Oct_21,18,001,0,source,11,LUNACY,LF,target,left,yellow,pleasantness,conservative,no,2,1,2.23345653739,-,-
2019_Oct_21,18,001,0,source,12,UNPACK,LF,target,left,yellow,pleasantness,liberal,no,2,1,1.60025501114,-,-
2019_Oct_21,18,001,0,source,13,PASSED,HF,target,right,aqua,imageability,conservative,no,7,1,1.88345301797,-,-
2019_Oct_21,18,001,0,source,14,ENSCONCED,LF,target,right,aqua,imageability,conservative,no,7,1,1.76686424286,-,-
2019_Oct_21,18,001,0,source,15,RIVER,HF,target,left,yellow,pleasantness,conservative,no,2,1,1.48354122338,-,-
2019_Oct_21,18,001,0,source,16,GROUND,HF,target,left,yellow,pleasantness,liberal,no,8,0,1.80018396289,-,-
2019_Oct_21,18,001,0,source,17,GEARING,LF,target,left,yellow,pleasantness,liberal,no,2,1,1.23362004367,-,-
2019_Oct_21,18,001,0,source,18,CANNOT,HF,target,right,aqua,imageability,conservative,no,2,0,1.55000432595,-,-
2019_Oct_21,18,001,0,source,19,PUPPETS,LF,target,right,aqua,imageability,liberal,no,7,1,2.16692121344,-,-
2019_Oct_21,18,001,0,source,20,RUINOUS,LF,target,right,aqua,imageability,conservative,no,1,0,1.5002016333,-,-
2019_Oct_21,18,001,0,source,21,DOUBT,HF,target,right,aqua,imageability,liberal,no,7,1,1.66688198659,-,-
2019_Oct_21,18,001,0,source,22,SLEEP,HF,target,right,aqua,imageability,conservative,no,2,0,1.45016614584,-,-
2019_Oct_21,18,001,0,source,23,OFFER,HF,target,left,yellow,pleasantness,conservative,no,3,1,1.46685515103,-,-
2019_Oct_21,18,001,0,source,24,ERADICATE,LF,target,right,aqua,imageability,liberal,no,2,0,1.63353037184,-,-
2019_Oct_21,18,001,0,source,25,FENCED,LF,target,left,yellow,pleasantness,liberal,no,7,0,1.6335952611,-,-
2019_Oct_21,18,001,0,source,26,TOADS,LF,target,right,aqua,imageability,liberal,no,9,1,2.03355691412,-,-
2019_Oct_21,18,001,0,source,27,PRIVATE,HF,target,left,yellow,pleasantness,liberal,no,8,0,1.88351204154,-,-
2019_Oct_21,18,001,0,source,28,FRUGAL,LF,target,left,yellow,pleasantness,conservative,no,1,1,1.40022450952,-,-
2019_Oct_21,18,001,0,source,29,OPENED,HF,target,right,aqua,imageability,conservative,no,8,1,2.25011878035,-,-
2019_Oct_21,18,001,0,source,30,ABOVE,HF,target,left,yellow,pleasantness,conservative,yes,2,1,1.7333168605,-,-
2019_Oct_21,18,001,0,source,31,FORCE,HF,target,right,aqua,imageability,liberal,no,7,1,1.65019041516,-,-
2019_Oct_21,18,001,0,source,32,ANCHORAGE,LF,target,right,aqua,imageability,liberal,no,2,0,1.56681944361,-,-
2019_Oct_21,18,001,0,source,33,ALCHEMIST,LF,target,right,aqua,imageability,conservative,yes,3,0,1.98330696214,-,-
2019_Oct_21,18,001,0,source,34,BECAME,HF,target,left,yellow,pleasantness,conservative,no,7,0,1.50034277662,-,-
2019_Oct_21,18,001,0,source,35,TETHER,LF,target,left,yellow,pleasantness,conservative,no,3,1,1.73347596751,-,-
2019_Oct_21,18,001,0,source,36,INCLUDING,HF,target,right,aqua,imageability,conservative,no,3,0,1.70016614584,-,-
2019_Oct_21,18,001,0,source,37,WEEKS,HF,target,left,yellow,pleasantness,liberal,no,3,1,2.08346958857,-,-
2019_Oct_21,18,001,0,source,38,GENERAL,HF,target,right,aqua,imageability,liberal,no,7,1,1.60022018357,-,-
2019_Oct_21,18,001,0,source,39,SAFARI,LF,target,left,yellow,pleasantness,conservative,no,2,1,2.23326406924,-,-
2019_Oct_21,18,001,0,source,40,ARMAMENT,LF,target,left,yellow,pleasantness,liberal,yes,8,0,2.08347912032,-,-
2019_Oct_21,18,001,0,source,41,FISHY,LF,target,right,aqua,imageability,conservative,no,2,0,1.64985240442,-,-
2019_Oct_21,18,001,0,source,42,USHERS,LF,target,left,yellow,pleasantness,conservative,no,2,1,1.51692326643,-,-
2019_Oct_21,18,001,0,source,43,POSITION,HF,target,left,yellow,pleasantness,liberal,no,7,0,2.30016819884,-,-
2019_Oct_21,18,001,0,source,44,BYPASS,LF,target,left,yellow,pleasantness,liberal,no,2,1,1.55015683405,-,-
2019_Oct_21,18,001,0,source,45,NIGHT,HF,target,right,aqua,imageability,liberal,no,7,1,1.76686314305,-,-
2019_Oct_21,18,001,0,source,46,FANATICS,LF,target,left,yellow,pleasantness,liberal,no,7,0,2.56665667054,-,-
2019_Oct_21,18,001,0,source,47,FRONT,HF,target,left,yellow,pleasantness,conservative,no,3,1,2.06680917864,-,-
2019_Oct_21,18,001,0,recog,0,INCLUDING,HF,target,right,aqua,imageability,conservative,no,m,0,3.25007698726,-1,-1
2019_Oct_21,18,001,0,recog,1,RAKING,LF,lure,-,-,-,conservative,no,m,1,3.41686072345,3,2
2019_Oct_21,18,001,0,recog,2,ALONE,HF,lure,-,-,-,conservative,no,m,1,1.45017091172,3,5
2019_Oct_21,18,001,0,recog,3,ANCHORAGE,LF,target,right,aqua,imageability,liberal,no,z,1,3.26687707407,3,8
2019_Oct_21,18,001,0,recog,4,TWENTY,HF,lure,-,-,-,conservative,no,m,1,2.10012669904,3,11
2019_Oct_21,18,001,0,recog,5,RUINOUS,LF,target,right,aqua,imageability,conservative,no,z,1,1.50020896542,1,12
2019_Oct_21,18,001,0,recog,6,HOURS,HF,lure,-,-,-,conservative,no,m,1,1.6500401067,3,15
2019_Oct_21,18,001,0,recog,7,LOLLED,LF,lure,-,-,-,liberal,no,z,0,2.31680367955,-1,14
2019_Oct_21,18,001,0,recog,8,ENSCONCED,LF,target,right,aqua,imageability,conservative,no,m,0,2.90012845874,-1,13
2019_Oct_21,18,001,0,recog,9,FANATICS,LF,target,left,yellow,pleasantness,liberal,no,z,1,2.0002749545,3,16
2019_Oct_21,18,001,0,recog,10,DOUBT,HF,target,right,aqua,imageability,liberal,no,z,1,1.31678718228,3,19
2019_Oct_21,18,001,0,recog,11,FRUGAL,LF,target,left,yellow,pleasantness,conservative,no,z,1,1.28358697581,1,20
2019_Oct_21,18,001,0,recog,12,ALIAS,LF,lure,-,-,-,conservative,no,m,1,1.35025721077,3,23
2019_Oct_21,18,001,0,recog,13,OFFER,HF,target,left,yellow,pleasantness,conservative,no,z,1,1.46692480618,1,24
2019_Oct_21,18,001,0,recog,14,WEEKS,HF,target,left,yellow,pleasantness,liberal,no,z,1,1.90024467285,3,27
2019_Oct_21,18,001,0,recog,15,ERADICATE,LF,target,right,aqua,imageability,liberal,no,z,1,0.950244966133,3,30
2019_Oct_21,18,001,0,recog,16,POWER,HF,lure,-,-,-,conservative,no,m,1,1.21668431264,3,33
2019_Oct_21,18,001,0,recog,17,SLEEP,HF,target,right,aqua,imageability,conservative,no,z,1,2.00013234477,1,34
2019_Oct_21,18,001,0,recog,18,GENERAL,HF,target,right,aqua,imageability,liberal,yes,z,1,1.74996370601,3,37
2019_Oct_21,18,001,0,recog,19,PHYSICAL,HF,lure,-,-,-,conservative,no,m,1,1.20021307141,3,40
2019_Oct_21,18,001,0,recog,20,HISTORY,HF,lure,-,-,-,liberal,no,m,1,2.15017098504,1,41
2019_Oct_21,18,001,0,recog,21,PUPPETS,LF,target,right,aqua,imageability,liberal,no,z,1,1.38349334463,3,44
2019_Oct_21,18,001,0,recog,22,RUNNING,HF,lure,-,-,-,liberal,no,m,1,1.13361579104,1,45
2019_Oct_21,18,001,0,recog,23,COGENT,LF,lure,-,-,-,liberal,no,m,1,1.60016042679,1,46
2019_Oct_21,18,001,0,recog,24,LODGERS,LF,lure,-,-,-,liberal,no,m,1,1.7167495685,1,47
2019_Oct_21,18,001,0,recog,25,SUMMER,HF,lure,-,-,-,conservative,no,m,1,1.0833372438,3,50
2019_Oct_21,18,001,0,recog,26,ARMAMENT,LF,target,left,yellow,pleasantness,liberal,no,m,0,1.41689225156,-3,47
2019_Oct_21,18,001,0,recog,27,MISFITS,LF,lure,-,-,-,conservative,no,m,1,1.73347046842,3,50
2019_Oct_21,18,001,0,recog,28,EFFECT,HF,lure,-,-,-,conservative,no,m,1,1.56680551258,3,53
2019_Oct_21,18,001,0,recog,29,AREAS,HF,target,left,yellow,pleasantness,conservative,no,z,1,1.08362392969,1,54
2019_Oct_21,18,001,0,recog,30,FIANCE,LF,lure,-,-,-,liberal,no,m,1,1.86680837211,1,55
2019_Oct_21,18,001,0,recog,31,OPENED,HF,target,right,aqua,imageability,conservative,no,z,1,1.81685500439,1,56
2019_Oct_21,18,001,0,recog,32,TRIED,HF,target,left,yellow,pleasantness,liberal,no,z,1,1.93360178669,3,59
2019_Oct_21,18,001,0,recog,33,LONGER,HF,target,right,aqua,imageability,conservative,no,z,1,1.40028023363,1,60
2019_Oct_21,18,001,0,recog,34,THRASH,LF,target,right,aqua,imageability,conservative,no,z,1,1.11688865882,1,61
2019_Oct_21,18,001,0,recog,35,AFIELD,LF,target,left,yellow,pleasantness,conservative,no,z,1,1.61695574772,1,62
2019_Oct_21,18,001,0,recog,36,FISHY,LF,target,right,aqua,imageability,conservative,no,z,1,0.833605965999,1,63
2019_Oct_21,18,001,0,recog,37,FEELING,HF,lure,-,-,-,liberal,no,m,1,1.06699541449,1,64
2019_Oct_21,18,001,0,recog,38,OTHERS,HF,lure,-,-,-,conservative,no,m,1,3.01674362949,3,67
2019_Oct_21,18,001,0,recog,39,ALREADY,HF,lure,-,-,-,conservative,no,m,1,1.91689848386,3,70
2019_Oct_21,18,001,0,recog,40,BICEPS,LF,lure,-,-,-,conservative,no,m,1,1.43351196822,3,73
2019_Oct_21,18,001,0,recog,41,FENCED,LF,target,left,yellow,pleasantness,liberal,no,z,1,3.16682516266,3,76
2019_Oct_21,18,001,0,recog,42,WOMAN,HF,target,right,aqua,imageability,liberal,no,z,1,0.916881619988,3,79
2019_Oct_21,18,001,0,recog,43,NIGHT,HF,target,right,aqua,imageability,liberal,no,z,1,1.10011753389,3,82
2019_Oct_21,18,001,0,recog,44,RIVER,HF,target,left,yellow,pleasantness,conservative,no,z,1,1.10022604926,1,83
2019_Oct_21,18,001,0,recog,45,NOTHING,HF,lure,-,-,-,conservative,no,m,1,1.5503676325,3,86
2019_Oct_21,18,001,0,recog,46,LUNACY,LF,target,left,yellow,pleasantness,conservative,no,z,1,1.25017670409,1,87
2019_Oct_21,18,001,0,recog,47,PASSED,HF,target,right,aqua,imageability,conservative,no,z,1,1.18365054529,1,88
2019_Oct_21,18,001,0,recog,48,PIECE,HF,lure,-,-,-,liberal,no,m,1,1.05019349465,1,89
2019_Oct_21,18,001,0,recog,49,SENSE,HF,lure,-,-,-,liberal,no,m,1,1.38358572935,1,90
2019_Oct_21,18,001,0,recog,50,FRONT,HF,target,left,yellow,pleasantness,conservative,no,z,1,1.48354342301,1,91
2019_Oct_21,18,001,0,recog,51,SHIELDING,LF,target,right,aqua,imageability,liberal,no,z,1,1.03351805388,3,94
2019_Oct_21,18,001,0,recog,52,LOTTERY,LF,lure,-,-,-,liberal,no,m,1,1.00001356442,1,95
2019_Oct_21,18,001,0,recog,53,KETCHUP,LF,lure,-,-,-,liberal,no,m,1,0.933564759484,1,96
2019_Oct_21,18,001,0,recog,54,LATER,HF,lure,-,-,-,conservative,no,m,1,1.48352252647,3,99
2019_Oct_21,18,001,0,recog,55,DEMEANOUR,LF,lure,-,-,-,conservative,no,m,1,1.08356270649,3,102
2019_Oct_21,18,001,0,recog,56,CORNER,HF,lure,-,-,-,liberal,yes,m,1,2.00007148817,1,103
2019_Oct_21,18,001,0,recog,57,FORCE,HF,target,right,aqua,imageability,liberal,no,z,1,1.83348608584,3,106
2019_Oct_21,18,001,0,recog,58,UNLESS,HF,lure,-,-,-,liberal,no,m,1,1.11688975864,1,107
2019_Oct_21,18,001,0,recog,59,GROUND,HF,target,left,yellow,pleasantness,liberal,no,m,0,2.18350316968,-3,104
2019_Oct_21,18,001,0,recog,60,GEARING,LF,target,left,yellow,pleasantness,liberal,no,z,1,2.2335181272,3,107
2019_Oct_21,18,001,0,recog,61,ADDED,HF,lure,-,-,-,liberal,no,m,1,1.13350764227,1,108
2019_Oct_21,18,001,0,recog,62,TENABLE,LF,lure,-,-,-,conservative,no,m,1,1.88357839723,3,111
2019_Oct_21,18,001,0,recog,63,REJOICED,LF,lure,-,-,-,liberal,no,m,1,1.38343138822,1,112
2019_Oct_21,18,001,0,recog,64,BECAME,HF,target,left,yellow,pleasantness,conservative,no,z,1,2.40021241152,1,113
2019_Oct_21,18,001,0,recog,65,BYPASS,LF,target,left,yellow,pleasantness,liberal,no,z,1,1.05006078328,3,116
2019_Oct_21,18,001,0,recog,66,NEPHEWS,LF,lure,-,-,-,conservative,no,m,1,1.01689173831,3,119
2019_Oct_21,18,001,0,recog,67,BINDINGS,LF,lure,-,-,-,liberal,no,m,1,1.95012875203,1,120
2019_Oct_21,18,001,0,recog,68,WIZENED,LF,lure,-,-,-,conservative,no,m,1,1.25011438107,3,123
2019_Oct_21,18,001,0,recog,69,TETHER,LF,target,left,yellow,pleasantness,conservative,no,z,1,1.35022055017,1,124
2019_Oct_21,18,001,0,recog,70,ALCHEMIST,LF,target,right,aqua,imageability,conservative,no,z,1,2.38349224482,1,125
2019_Oct_21,18,001,0,recog,71,ASKED,HF,lure,-,-,-,liberal,no,m,1,1.21689694412,1,126
2019_Oct_21,18,001,0,recog,72,BEQUEST,LF,lure,-,-,-,conservative,no,m,1,1.53361887053,3,129
2019_Oct_21,18,001,0,recog,73,UNPACK,LF,target,left,yellow,pleasantness,liberal,no,z,1,1.18349583756,3,132
2019_Oct_21,18,001,0,recog,74,ADULATION,LF,target,right,aqua,imageability,conservative,no,m,0,1.53348469273,-1,131
2019_Oct_21,18,001,0,recog,75,PAPER,HF,lure,-,-,-,liberal,no,m,1,2.65014825547,1,132
2019_Oct_21,18,001,0,recog,76,POSITION,HF,target,left,yellow,pleasantness,liberal,no,z,1,2.06683850712,3,135
2019_Oct_21,18,001,0,recog,77,SAFARI,LF,target,left,yellow,pleasantness,conservative,no,z,1,2.10016592588,1,136
2019_Oct_21,18,001,0,recog,78,CANNOT,HF,target,right,aqua,imageability,conservative,no,z,1,1.51688037353,1,137
2019_Oct_21,18,001,0,recog,79,GODMOTHER,LF,target,right,aqua,imageability,liberal,no,z,1,1.11698544281,3,140
2019_Oct_21,18,001,0,recog,80,HAVING,HF,lure,-,-,-,liberal,no,m,1,1.05019716071,1,141
2019_Oct_21,18,001,0,recog,81,REWRITE,LF,lure,-,-,-,conservative,no,m,1,1.60003394772,3,144
2019_Oct_21,18,001,0,recog,82,INFECT,LF,lure,-,-,-,liberal,no,m,1,2.95011078833,1,145
2019_Oct_21,18,001,0,recog,83,RUGGER,LF,lure,-,-,-,conservative,no,z,0,1.40021424455,-3,142
2019_Oct_21,18,001,0,recog,84,ABOVE,HF,target,left,yellow,pleasantness,conservative,no,m,0,2.1334607167,-1,141
2019_Oct_21,18,001,0,recog,85,FRIEND,HF,target,right,aqua,imageability,liberal,no,z,1,1.45013021845,3,144
2019_Oct_21,18,001,0,recog,86,TOADS,LF,target,right,aqua,imageability,liberal,no,z,1,1.0168664425,3,147
2019_Oct_21,18,001,0,recog,87,GIBBERISH,LF,lure,-,-,-,liberal,no,m,1,1.4668408534,1,148
2019_Oct_21,18,001,0,recog,88,PRIVATE,HF,target,left,yellow,pleasantness,liberal,no,z,1,1.23351556096,3,151
2019_Oct_21,18,001,0,recog,89,BELIEVE,HF,lure,-,-,-,liberal,yes,m,1,1.56682237646,1,152
2019_Oct_21,18,001,0,recog,90,WHOLE,HF,target,left,yellow,pleasantness,liberal,no,z,1,1.86690772234,3,155
2019_Oct_21,18,001,0,recog,91,EQUALLED,LF,lure,-,-,-,conservative,no,m,1,1.41694284319,3,158
2019_Oct_21,18,001,0,recog,92,INVOLVED,HF,lure,-,-,-,conservative,no,m,1,2.35017252479,3,161
2019_Oct_21,18,001,0,recog,93,TYPHOID,LF,lure,-,-,-,liberal,yes,z,0,1.13365721752,-1,160
2019_Oct_21,18,001,0,recog,94,COBALT,LF,lure,-,-,-,liberal,no,m,1,3.58342559584,1,161
2019_Oct_21,18,001,0,recog,95,USHERS,LF,target,left,yellow,pleasantness,conservative,no,z,1,1.11686959531,1,162
2019_Oct_21,18,001,1,source,0,TEETERED,LF,target,left,yellow,pleasantness,conservative,no,3,1,2.63327961333,-,-
2019_Oct_21,18,001,1,source,1,SPOKE,HF,target,right,aqua,imageability,conservative,no,9,1,1.91684532599,-,-
2019_Oct_21,18,001,1,source,2,ARPEGGIO,LF,target,right,aqua,imageability,conservative,yes,7,1,1.66686072345,-,-
2019_Oct_21,18,001,1,source,3,SIMILAR,HF,target,right,aqua,imageability,liberal,yes,3,0,0.866850531799,-,-
2019_Oct_21,18,001,1,source,4,ARBITER,LF,target,right,aqua,imageability,conservative,no,8,1,1.33360303315,-,-
2019_Oct_21,18,001,1,source,5,NESTING,LF,target,left,yellow,pleasantness,liberal,no,7,0,2.28349422449,-,-
2019_Oct_21,18,001,1,source,6,OBTAINS,LF,target,right,aqua,imageability,conservative,no,3,0,2.05014510266,-,-
2019_Oct_21,18,001,1,source,7,SUDDENLY,HF,target,right,aqua,imageability,liberal,no,7,1,1.26694123012,-,-
2019_Oct_21,18,001,1,source,8,PLACE,HF,target,left,yellow,pleasantness,liberal,no,2,1,1.983469002,-,-
2019_Oct_21,18,001,1,source,9,DRINK,HF,target,left,yellow,pleasantness,conservative,no,2,1,1.44999714047,-,-
2019_Oct_21,18,001,1,source,10,WAITING,HF,target,right,aqua,imageability,conservative,no,7,1,2.08351578092,-,-
2019_Oct_21,18,001,1,source,11,PROBABLY,HF,target,left,yellow,pleasantness,conservative,no,8,0,1.96682472274,-,-
2019_Oct_21,18,001,1,source,12,DICHOTOMY,LF,target,right,aqua,imageability,liberal,no,8,1,2.53348945861,-,-
2019_Oct_21,18,001,1,source,13,GABLE,LF,target,left,yellow,pleasantness,conservative,no,3,1,1.70019290808,-,-
2019_Oct_21,18,001,1,source,14,WANTED,HF,target,left,yellow,pleasantness,conservative,no,7,0,2.35012046673,-,-
2019_Oct_21,18,001,1,source,15,NORTH,HF,target,right,aqua,imageability,conservative,yes,2,0,1.03352208655,-,-
2019_Oct_21,18,001,1,source,16,PAINTWORK,LF,target,left,yellow,pleasantness,liberal,no,7,0,1.83350075008,-,-
2019_Oct_21,18,001,1,source,17,INDEED,HF,target,right,aqua,imageability,liberal,no,2,0,1.8835278056,-,-
2019_Oct_21,18,001,1,source,18,BLOOD,HF,target,right,aqua,imageability,conservative,no,7,1,1.05028038027,-,-
2019_Oct_21,18,001,1,source,19,BREAK,HF,target,left,yellow,pleasantness,liberal,no,2,1,1.8333130478,-,-
2019_Oct_21,18,001,1,source,20,HAMLETS,LF,target,right,aqua,imageability,liberal,no,9,1,1.31684510603,-,-
2019_Oct_21,18,001,1,source,21,YANKED,LF,target,left,yellow,pleasantness,conservative,no,3,1,1.56680257973,-,-
2019_Oct_21,18,001,1,source,22,LEVEL,HF,target,right,aqua,imageability,liberal,no,8,1,1.98353425786,-,-
2019_Oct_21,18,001,1,source,23,TOTAL,HF,target,right,aqua,imageability,conservative,no,7,1,2.06679818046,-,-
2019_Oct_21,18,001,1,source,24,ANNALS,LF,target,right,aqua,imageability,conservative,no,8,1,1.28360273987,-,-
2019_Oct_21,18,001,1,source,25,BASIC,HF,target,right,aqua,imageability,liberal,no,3,0,1.56687223487,-,-
2019_Oct_21,18,001,1,source,26,SNEAKED,LF,target,left,yellow,pleasantness,liberal,no,7,0,1.65019078177,-,-
2019_Oct_21,18,001,1,source,27,BURGH,LF,target,right,aqua,imageability,liberal,no,2,0,1.48338284958,-,-
2019_Oct_21,18,001,1,source,28,EIGHT,HF,target,right,aqua,imageability,conservative,no,8,1,1.96681702401,-,-
2019_Oct_21,18,001,1,source,29,ARDENTLY,LF,target,left,yellow,pleasantness,liberal,no,8,0,2.21666121646,-,-
2019_Oct_21,18,001,1,source,30,MOTHER,HF,target,right,aqua,imageability,liberal,no,3,0,2.55014473605,-,-
2019_Oct_21,18,001,1,source,31,BAIZE,LF,target,right,aqua,imageability,conservative,no,7,1,1.60004054662,-,-
2019_Oct_21,18,001,1,source,32,DITTO,LF,target,left,yellow,pleasantness,conservative,no,3,1,1.95019327469,-,-
2019_Oct_21,18,001,1,source,33,MAUSOLEUM,LF,target,left,yellow,pleasantness,conservative,no,8,0,1.58356014025,-,-
2019_Oct_21,18,001,1,source,34,ORDER,HF,target,left,yellow,pleasantness,liberal,no,7,0,1.61667749376,-,-
2019_Oct_21,18,001,1,source,35,LUCERNE,LF,target,right,aqua,imageability,liberal,no,7,1,2.05016489938,-,-
2019_Oct_21,18,001,1,source,36,NEURAL,LF,target,right,aqua,imageability,liberal,no,7,1,1.41688711908,-,-
2019_Oct_21,18,001,1,source,37,SIGNPOST,LF,target,left,yellow,pleasantness,liberal,no,7,0,1.40020617922,-,-
2019_Oct_21,18,001,1,source,38,PARENTS,HF,target,left,yellow,pleasantness,liberal,no,2,1,2.80013520429,-,-
2019_Oct_21,18,001,1,source,39,OFTEN,HF,target,left,yellow,pleasantness,conservative,no,7,0,1.55020192659,-,-
2019_Oct_21,18,001,1,source,40,GIRLS,HF,target,left,yellow,pleasantness,conservative,yes,2,1,1.6500401067,-,-
2019_Oct_21,18,001,1,source,41,GERANIUMS,LF,target,left,yellow,pleasantness,liberal,no,2,1,2.30016196653,-,-
2019_Oct_21,18,001,1,source,42,QUESTION,HF,target,left,yellow,pleasantness,liberal,no,7,0,1.45004003338,-,-
2019_Oct_21,18,001,1,source,43,ATONEMENT,LF,target,left,yellow,pleasantness,conservative,no,2,1,1.50013711065,-,-
2019_Oct_21,18,001,1,source,44,UNFAILING,LF,target,right,aqua,imageability,liberal,no,2,0,1.4668899786,-,-
2019_Oct_21,18,001,1,source,45,BEECHES,LF,target,right,aqua,imageability,conservative,no,7,1,2.00014187652,-,-
2019_Oct_21,18,001,1,source,46,QUALITY,HF,target,left,yellow,pleasantness,conservative,no,3,1,1.6003015701,-,-
2019_Oct_21,18,001,1,source,47,SINCE,HF,target,left,yellow,pleasantness,liberal,no,3,1,1.70019144166,-,-
2019_Oct_21,18,001,1,recog,0,MEMBERS,HF,lure,-,-,-,conservative,no,z,0,1.26684701238,-3,159
2019_Oct_21,18,001,1,recog,1,BLOOD,HF,target,right,aqua,imageability,conservative,no,z,1,1.23354488944,1,160
2019_Oct_21,18,001,1,recog,2,SPOKE,HF,target,right,aqua,imageability,conservative,no,z,1,1.48349503102,1,161
2019_Oct_21,18,001,1,recog,3,PLEASE,HF,lure,-,-,-,liberal,no,m,1,1.60016775891,1,162
2019_Oct_21,18,001,1,recog,4,AROUND,HF,lure,-,-,-,conservative,no,z,0,1.66684972527,-3,159
2019_Oct_21,18,001,1,recog,5,SHEARING,LF,lure,-,-,-,conservative,no,z,0,1.48353609089,-3,156
2019_Oct_21,18,001,1,recog,6,PROBABLY,HF,target,left,yellow,pleasantness,conservative,no,z,1,1.83369945053,1,157
2019_Oct_21,18,001,1,recog,7,JOSTLED,LF,lure,-,-,-,liberal,no,m,1,1.48349319799,1,158
2019_Oct_21,18,001,1,recog,8,FERRET,LF,lure,-,-,-,conservative,no,m,1,1.41689298477,3,161
2019_Oct_21,18,001,1,recog,9,FAILINGS,LF,lure,-,-,-,liberal,yes,m,1,1.00022033021,1,162
2019_Oct_21,18,001,1,recog,10,PICTURE,HF,lure,-,-,-,liberal,no,z,0,3.31675675398,-1,161
2019_Oct_21,18,001,1,recog,11,AUBURN,LF,lure,-,-,-,conservative,no,m,1,2.01683968026,3,164
2019_Oct_21,18,001,1,recog,12,ORDER,HF,target,left,yellow,pleasantness,liberal,no,m,0,1.00018513603,-3,161
2019_Oct_21,18,001,1,recog,13,WRONG,HF,lure,-,-,-,liberal,no,m,1,1.21693433793,1,162
2019_Oct_21,18,001,1,recog,14,SANDAL,LF,lure,-,-,-,liberal,no,m,1,0.916878320534,1,163
2019_Oct_21,18,001,1,recog,15,CELLO,LF,lure,-,-,-,liberal,no,m,1,0.833461889839,1,164
2019_Oct_21,18,001,1,recog,16,DRINK,HF,target,left,yellow,pleasantness,conservative,no,z,1,1.33349305135,1,165
2019_Oct_21,18,001,1,recog,17,GIPSY,LF,lure,-,-,-,conservative,no,m,1,1.01691410128,3,168
2019_Oct_21,18,001,1,recog,18,IRRIGATED,LF,lure,-,-,-,liberal,no,m,1,2.46667294785,1,169
2019_Oct_21,18,001,1,recog,19,TAWNY,LF,lure,-,-,-,conservative,no,m,1,1.90014935529,3,172
2019_Oct_21,18,001,1,recog,20,GIRLS,HF,target,left,yellow,pleasantness,conservative,no,z,1,2.01684517935,1,173
2019_Oct_21,18,001,1,recog,21,SEVEN,HF,lure,-,-,-,conservative,no,m,1,1.71666928179,3,176
2019_Oct_21,18,001,1,recog,22,NESTING,LF,target,left,yellow,pleasantness,liberal,no,z,1,2.23333775705,3,179
2019_Oct_21,18,001,1,recog,23,VEILING,LF,lure,-,-,-,conservative,yes,m,1,1.36687912707,3,182
2019_Oct_21,18,001,1,recog,24,SOAPY,LF,lure,-,-,-,conservative,no,m,1,1.81685610421,3,185
2019_Oct_21,18,001,1,recog,25,ANIMAL,HF,lure,-,-,-,liberal,no,z,0,2.08352531268,-1,184
2019_Oct_21,18,001,1,recog,26,SIZZLING,LF,lure,-,-,-,liberal,no,m,1,1.10025757738,1,185
2019_Oct_21,18,001,1,recog,27,OUGHT,HF,lure,-,-,-,conservative,no,m,1,1.18360581936,3,188
2019_Oct_21,18,001,1,recog,28,BREAK,HF,target,left,yellow,pleasantness,liberal,no,z,1,1.41682956194,3,191
2019_Oct_21,18,001,1,recog,29,ARDENTLY,LF,target,left,yellow,pleasantness,liberal,no,z,1,2.30016856544,3,194
2019_Oct_21,18,001,1,recog,30,TELEPHONE,HF,lure,-,-,-,conservative,no,m,1,1.83356637255,3,197
2019_Oct_21,18,001,1,recog,31,HAMLETS,LF,target,right,aqua,imageability,liberal,no,z,1,1.78352391958,3,200
2019_Oct_21,18,001,1,recog,32,ALDER,LF,lure,-,-,-,liberal,no,m,1,1.58353191159,1,201
2019_Oct_21,18,001,1,recog,33,LEVEL,HF,target,right,aqua,imageability,liberal,no,z,1,1.71690280982,3,204
2019_Oct_21,18,001,1,recog,34,BEECHES,LF,target,right,aqua,imageability,conservative,no,z,1,1.66683212818,1,205
2019_Oct_21,18,001,1,recog,35,MAUSOLEUM,LF,target,left,yellow,pleasantness,conservative,no,z,1,1.38364108685,1,206
2019_Oct_21,18,001,1,recog,36,MARKET,HF,lure,-,-,-,conservative,no,m,1,1.10018095672,3,209
2019_Oct_21,18,001,1,recog,37,OFTEN,HF,target,left,yellow,pleasantness,conservative,no,z,1,1.31667023497,1,210
2019_Oct_21,18,001,1,recog,38,MINISTER,HF,lure,-,-,-,conservative,no,m,1,1.18355412791,3,213
2019_Oct_21,18,001,1,recog,39,NEURAL,LF,target,right,aqua,imageability,liberal,no,z,1,1.11689855719,3,216
2019_Oct_21,18,001,1,recog,40,SUPPORT,HF,lure,-,-,-,liberal,no,z,0,2.21683535431,-1,215
2019_Oct_21,18,001,1,recog,41,DEGREE,HF,lure,-,-,-,conservative,no,m,1,1.31686636918,3,218
2019_Oct_21,18,001,1,recog,42,PIPELINES,LF,lure,-,-,-,conservative,no,m,1,1.31685207154,3,221
2019_Oct_21,18,001,1,recog,43,UNFAILING,LF,target,right,aqua,imageability,liberal,no,z,1,0.98360537943,3,224
2019_Oct_21,18,001,1,recog,44,JOTTED,LF,lure,-,-,-,liberal,no,m,1,3.50015617416,1,225
2019_Oct_21,18,001,1,recog,45,ENTIRELY,HF,lure,-,-,-,conservative,no,m,1,1.01691336807,3,228
2019_Oct_21,18,001,1,recog,46,QUALITY,HF,target,left,yellow,pleasantness,conservative,no,m,0,1.61690955537,-1,227
2019_Oct_21,18,001,1,recog,47,TEETERED,LF,target,left,yellow,pleasantness,conservative,no,z,1,1.1669435764,1,228
2019_Oct_21,18,001,1,recog,48,UNCANNILY,LF,lure,-,-,-,conservative,no,m,1,1.46686834885,3,231
2019_Oct_21,18,001,1,recog,49,MOTHER,HF,target,right,aqua,imageability,liberal,no,z,1,1.31688249984,3,234
2019_Oct_21,18,001,1,recog,50,ATONEMENT,LF,target,left,yellow,pleasantness,conservative,no,z,1,0.983541589985,1,235
2019_Oct_21,18,001,1,recog,51,DICHOTOMY,LF,target,right,aqua,imageability,liberal,no,z,1,0.8501794903,3,238
2019_Oct_21,18,001,1,recog,52,HOTEL,HF,lure,-,-,-,conservative,no,m,1,0.916876120898,3,241
2019_Oct_21,18,001,1,recog,53,BAIZE,LF,target,right,aqua,imageability,conservative,no,z,1,0.98346496933,1,242
2019_Oct_21,18,001,1,recog,54,KANGAROO,LF,lure,-,-,-,conservative,no,m,1,0.916899583682,3,245
2019_Oct_21,18,001,1,recog,55,BURGH,LF,target,right,aqua,imageability,liberal,no,z,1,1.48349723066,3,248
2019_Oct_21,18,001,1,recog,56,CENTRAL,HF,lure,-,-,-,liberal,no,m,1,1.8502891055,1,249
2019_Oct_21,18,001,1,recog,57,SUDDENLY,HF,target,right,aqua,imageability,liberal,yes,m,0,1.15001774373,-3,246
2019_Oct_21,18,001,1,recog,58,QUESTION,HF,target,left,yellow,pleasantness,liberal,no,z,1,1.1835533947,3,249
2019_Oct_21,18,001,1,recog,59,WANTED,HF,target,left,yellow,pleasantness,conservative,no,z,1,1.33361769739,1,250
2019_Oct_21,18,001,1,recog,60,LABOUR,HF,lure,-,-,-,liberal,no,m,1,1.26687927371,1,251
2019_Oct_21,18,001,1,recog,61,SIGNPOST,LF,target,left,yellow,pleasantness,liberal,no,z,1,1.2502133647,3,254
2019_Oct_21,18,001,1,recog,62,YANKED,LF,target,left,yellow,pleasantness,conservative,no,z,1,0.933568425545,1,255
2019_Oct_21,18,001,1,recog,63,ODOURS,LF,lure,-,-,-,conservative,no,m,1,1.05025471785,3,258
2019_Oct_21,18,001,1,recog,64,ANYONE,HF,lure,-,-,-,conservative,no,m,1,1.7000290352,3,261
2019_Oct_21,18,001,1,recog,65,UNMADE,LF,lure,-,-,-,liberal,no,m,1,1.16684019351,1,262
2019_Oct_21,18,001,1,recog,66,PAINTWORK,LF,target,left,yellow,pleasantness,liberal,no,z,1,1.03352281976,3,265
2019_Oct_21,18,001,1,recog,67,INDEED,HF,target,right,aqua,imageability,liberal,no,z,1,1.2835866092,3,268
2019_Oct_21,18,001,1,recog,68,NURTURING,LF,lure,-,-,-,liberal,no,m,1,1.55023602095,1,269
2019_Oct_21,18,001,1,recog,69,NORTH,HF,target,right,aqua,imageability,conservative,no,z,1,1.28361337144,1,270
2019_Oct_21,18,001,1,recog,70,FOUND,HF,lure,-,-,-,liberal,yes,m,1,1.45016137996,1,271
2019_Oct_21,18,001,1,recog,71,DOING,HF,lure,-,-,-,liberal,no,m,1,1.46682985522,1,272
2019_Oct_21,18,001,1,recog,72,OBTAINS,LF,target,right,aqua,imageability,conservative,no,z,1,1.28334574906,1,273
2019_Oct_21,18,001,1,recog,73,LUCERNE,LF,target,right,aqua,imageability,liberal,no,z,1,1.0003237131,3,276
2019_Oct_21,18,001,1,recog,74,PARENTS,HF,target,left,yellow,pleasantness,liberal,no,z,1,0.883521206691,3,279
2019_Oct_21,18,001,1,recog,75,UNDER,HF,lure,-,-,-,liberal,no,z,0,0.950068262038,-1,278
2019_Oct_21,18,001,1,recog,76,DITTO,LF,target,left,yellow,pleasantness,conservative,no,z,1,1.01698778909,1,279
2019_Oct_21,18,001,1,recog,77,NOURISH,LF,lure,-,-,-,liberal,no,z,0,1.51687780729,-1,278
2019_Oct_21,18,001,1,recog,78,EDICT,LF,lure,-,-,-,conservative,no,m,1,1.06699871395,3,281
2019_Oct_21,18,001,1,recog,79,EIGHT,HF,target,right,aqua,imageability,conservative,no,z,1,1.28357267817,1,282
2019_Oct_21,18,001,1,recog,80,ENOUGH,HF,lure,-,-,-,liberal,no,m,1,1.20021893711,1,283
2019_Oct_21,18,001,1,recog,81,ARPEGGIO,LF,target,right,aqua,imageability,conservative,no,z,1,0.966862483155,1,284
2019_Oct_21,18,001,1,recog,82,PLACE,HF,target,left,yellow,pleasantness,liberal,no,m,0,1.21665205131,-3,281
2019_Oct_21,18,001,1,recog,83,SIMILAR,HF,target,right,aqua,imageability,liberal,no,m,0,2.06686710239,-3,278
2019_Oct_21,18,001,1,recog,84,TOTAL,HF,target,right,aqua,imageability,conservative,no,z,1,1.61695978039,1,279
2019_Oct_21,18,001,1,recog,85,GERANIUMS,LF,target,left,yellow,pleasantness,liberal,no,z,1,2.36677171151,3,282
2019_Oct_21,18,001,1,recog,86,ANNALS,LF,target,right,aqua,imageability,conservative,no,z,1,1.10018425618,1,283
2019_Oct_21,18,001,1,recog,87,AMULETS,LF,lure,-,-,-,liberal,no,m,1,1.41688052017,1,284
2019_Oct_21,18,001,1,recog,88,ARBITER,LF,target,right,aqua,imageability,conservative,no,z,1,1.01705121193,1,285
2019_Oct_21,18,001,1,recog,89,SNEAKED,LF,target,left,yellow,pleasantness,liberal,no,z,1,1.60020588593,3,288
2019_Oct_21,18,001,1,recog,90,EVIDENCE,HF,lure,-,-,-,conservative,no,m,1,2.85014209649,3,291
2019_Oct_21,18,001,1,recog,91,SINCE,HF,target,left,yellow,pleasantness,liberal,no,z,1,1.81694848892,3,294
2019_Oct_21,18,001,1,recog,92,WAITING,HF,target,right,aqua,imageability,conservative,no,z,1,0.916906549196,1,295
2019_Oct_21,18,001,1,recog,93,GABLE,LF,target,left,yellow,pleasantness,conservative,no,z,1,1.01686460947,1,296
2019_Oct_21,18,001,1,recog,94,UNTIL,HF,lure,-,-,-,liberal,no,m,1,1.15021204491,1,297
2019_Oct_21,18,001,1,recog,95,BASIC,HF,target,right,aqua,imageability,liberal,no,z,1,0.90019041516,3,300
2019_Oct_21,18,001,2,source,0,SAYING,HF,target,left,yellow,pleasantness,conservative,no,7,0,1.6168508984,-,-
2019_Oct_21,18,001,2,source,1,BIRCHES,LF,target,right,aqua,imageability,liberal,no,3,0,1.70022003692,-,-
2019_Oct_21,18,001,2,source,2,MATERIAL,HF,target,left,yellow,pleasantness,conservative,no,3,1,1.36692568603,-,-
2019_Oct_21,18,001,2,source,3,PRACTICE,HF,target,right,aqua,imageability,conservative,no,7,1,1.26685764396,-,-
2019_Oct_21,18,001,2,source,4,UPTIGHT,LF,target,left,yellow,pleasantness,conservative,no,2,1,1.31666583569,-,-
2019_Oct_21,18,001,2,source,5,VINEYARDS,LF,target,left,yellow,pleasantness,conservative,no,1,1,1.33351211486,-,-
2019_Oct_21,18,001,2,source,6,LOCAL,HF,target,left,yellow,pleasantness,liberal,no,8,0,1.91695017531,-,-
2019_Oct_21,18,001,2,source,7,TAUNTED,LF,target,right,aqua,imageability,liberal,yes,7,1,1.05026938209,-,-
2019_Oct_21,18,001,2,source,8,DOGMAS,LF,target,right,aqua,imageability,liberal,no,7,1,1.40019738067,-,-
2019_Oct_21,18,001,2,source,9,ACORNS,LF,target,left,yellow,pleasantness,liberal,no,3,1,1.31689019857,-,-
2019_Oct_21,18,001,2,source,10,TOGETHER,HF,target,left,yellow,pleasantness,conservative,no,7,0,1.15013505765,-,-
2019_Oct_21,18,001,2,source,11,JEALOUSLY,LF,target,right,aqua,imageability,conservative,no,2,0,1.08351028183,-,-
2019_Oct_21,18,001,2,source,12,HEALTH,HF,target,right,aqua,imageability,liberal,no,8,1,1.33354437619,-,-
2019_Oct_21,18,001,2,source,13,DAYBREAK,LF,target,left,yellow,pleasantness,liberal,no,9,0,1.25021483112,-,-
2019_Oct_21,18,001,2,source,14,GRUBS,LF,target,right,aqua,imageability,conservative,no,9,1,1.21677853038,-,-
2019_Oct_21,18,001,2,source,15,LOPSIDED,LF,target,left,yellow,pleasantness,conservative,no,1,1,1.23355368798,-,-
2019_Oct_21,18,001,2,source,16,ANEMONES,LF,target,left,yellow,pleasantness,liberal,no,2,1,1.31668819866,-,-
2019_Oct_21,18,001,2,source,17,VOICE,HF,target,right,aqua,imageability,conservative,no,3,0,1.25021153167,-,-
2019_Oct_21,18,001,2,source,18,CLASS,HF,target,right,aqua,imageability,liberal,no,7,1,1.53358880884,-,-
2019_Oct_21,18,001,2,source,19,ENDEARING,LF,target,right,aqua,imageability,conservative,no,8,1,1.60023521441,-,-
2019_Oct_21,18,001,2,source,20,SOVIET,HF,target,left,yellow,pleasantness,liberal,no,1,1,1.08349781723,-,-
2019_Oct_21,18,001,2,source,21,CASES,HF,target,left,yellow,pleasantness,conservative,no,7,0,1.1502725349,-,-
2019_Oct_21,18,001,2,source,22,HONKING,LF,target,right,aqua,imageability,liberal,no,8,1,1.13351020851,-,-
2019_Oct_21,18,001,2,source,23,GESTURING,LF,target,right,aqua,imageability,conservative,no,2,0,1.40005147148,-,-
2019_Oct_21,18,001,2,source,24,SELECTS,LF,target,left,yellow,pleasantness,liberal,no,7,0,1.43329860352,-,-
2019_Oct_21,18,001,2,source,25,ROUND,HF,target,right,aqua,imageability,liberal,no,7,1,1.50020566597,-,-
2019_Oct_21,18,001,2,source,26,NATIONAL,HF,target,right,aqua,imageability,conservative,no,7,1,1.36696491287,-,-
2019_Oct_21,18,001,2,source,27,GUESSWORK,LF,target,right,aqua,imageability,conservative,yes,2,0,0.866933751362,-,-
2019_Oct_21,18,001,2,source,28,OEDIPAL,LF,target,left,yellow,pleasantness,conservative,no,1,1,1.23364313985,-,-
2019_Oct_21,18,001,2,source,29,TERMS,HF,target,right,aqua,imageability,conservative,no,8,1,1.75022509609,-,-
2019_Oct_21,18,001,2,source,30,MAJOR,HF,target,left,yellow,pleasantness,conservative,no,1,1,1.38355053517,-,-
2019_Oct_21,18,001,2,source,31,MANDARIN,LF,target,left,yellow,pleasantness,liberal,no,7,0,2.00013381119,-,-
2019_Oct_21,18,001,2,source,32,COVER,HF,target,left,yellow,pleasantness,liberal,no,3,1,1.4168277289,-,-
2019_Oct_21,18,001,2,source,33,YOUNG,HF,target,right,aqua,imageability,conservative,no,8,1,1.48345837042,-,-
2019_Oct_21,18,001,2,source,34,BRING,HF,target,left,yellow,pleasantness,liberal,no,8,0,1.0168972374,-,-
2019_Oct_21,18,001,2,source,35,TRYING,HF,target,left,yellow,pleasantness,liberal,yes,7,0,0.833522013224,-,-
2019_Oct_21,18,001,2,source,36,DUPLICITY,LF,target,left,yellow,pleasantness,conservative,no,2,1,1.08365105854,-,-
2019_Oct_21,18,001,2,source,37,SCUFFED,LF,target,right,aqua,imageability,liberal,no,8,1,1.56666436927,-,-
2019_Oct_21,18,001,2,source,38,FINAL,HF,target,left,yellow,pleasantness,conservative,no,2,1,1.56682677573,-,-
2019_Oct_21,18,001,2,source,39,AGNOSTIC,LF,target,left,yellow,pleasantness,conservative,no,7,0,1.8002272224,-,-
2019_Oct_21,18,001,2,source,40,GEYSER,LF,target,right,aqua,imageability,conservative,no,7,1,1.45000007332,-,-
2019_Oct_21,18,001,2,source,41,MAKES,HF,target,right,aqua,imageability,conservative,no,3,0,1.33344209312,-,-
2019_Oct_21,18,001,2,source,42,DECIDED,HF,target,right,aqua,imageability,liberal,no,7,1,1.10028177338,-,-
2019_Oct_21,18,001,2,source,43,ABBOT,LF,target,right,aqua,imageability,liberal,no,8,1,1.10030963543,-,-
2019_Oct_21,18,001,2,source,44,FATHER,HF,target,right,aqua,imageability,liberal,no,9,1,1.26688587262,-,-
2019_Oct_21,18,001,2,source,45,BUSINESS,HF,target,right,aqua,imageability,liberal,no,3,0,1.33333834362,-,-
2019_Oct_21,18,001,2,source,46,JUBILANT,LF,target,left,yellow,pleasantness,liberal,no,1,1,1.20028859225,-,-
2019_Oct_21,18,001,2,source,47,ALLOWED,HF,target,left,yellow,pleasantness,liberal,yes,7,0,1.29999186135,-,-
2019_Oct_21,18,001,2,recog,0,FUTURE,HF,lure,-,-,-,conservative,no,m,1,2.64994552235,3,303
2019_Oct_21,18,001,2,recog,1,BRING,HF,target,left,yellow,pleasantness,liberal,no,m,0,1.08340066664,-3,300
2019_Oct_21,18,001,2,recog,2,VINEYARDS,LF,target,left,yellow,pleasantness,conservative,no,z,1,0.950323786424,1,301
2019_Oct_21,18,001,2,recog,3,HYDRAULIC,LF,lure,-,-,-,liberal,no,z,0,1.51695626097,-1,300
2019_Oct_21,18,001,2,recog,4,BUTCHERED,LF,lure,-,-,-,conservative,no,m,1,1.58349928365,3,303
2019_Oct_21,18,001,2,recog,5,SCUFFED,LF,target,right,aqua,imageability,liberal,no,z,1,1.21683828716,3,306
2019_Oct_21,18,001,2,recog,6,SITTING,HF,lure,-,-,-,liberal,no,m,1,1.91681049842,1,307
2019_Oct_21,18,001,2,recog,7,BIRCHES,LF,target,right,aqua,imageability,liberal,no,z,1,1.10020625254,3,310
2019_Oct_21,18,001,2,recog,8,ALLOWED,HF,target,left,yellow,pleasantness,liberal,no,z,1,1.60002844863,3,313
2019_Oct_21,18,001,2,recog,9,DAYBREAK,LF,target,left,yellow,pleasantness,liberal,no,z,1,1.05003108819,3,316
2019_Oct_21,18,001,2,recog,10,CASES,HF,target,left,yellow,pleasantness,conservative,no,z,1,1.0169456294,1,317
2019_Oct_21,18,001,2,recog,11,YOUNG,HF,target,right,aqua,imageability,conservative,no,z,1,1.05019349465,1,318
2019_Oct_21,18,001,2,recog,12,BUILDING,HF,lure,-,-,-,liberal,yes,m,1,1.01688880547,1,319
2019_Oct_21,18,001,2,recog,13,COUNCIL,HF,lure,-,-,-,conservative,no,m,1,1.20000887187,3,322
2019_Oct_21,18,001,2,recog,14,VARIOUS,HF,lure,-,-,-,conservative,no,m,1,0.850208452175,3,325
2019_Oct_21,18,001,2,recog,15,COILING,LF,lure,-,-,-,liberal,no,m,1,0.96694093684,1,326
2019_Oct_21,18,001,2,recog,16,AXIOM,LF,lure,-,-,-,liberal,no,m,1,0.816873701298,1,327
2019_Oct_21,18,001,2,recog,17,NATIONAL,HF,target,right,aqua,imageability,conservative,no,z,1,0.883487478939,1,328
2019_Oct_21,18,001,2,recog,18,VALUE,HF,lure,-,-,-,liberal,no,m,1,1.36695098184,1,329
2019_Oct_21,18,001,2,recog,19,SELECTS,LF,target,left,yellow,pleasantness,liberal,no,z,1,1.23350822884,3,332
2019_Oct_21,18,001,2,recog,20,UMBILICAL,LF,lure,-,-,-,conservative,no,m,1,1.08355977364,3,335
2019_Oct_21,18,001,2,recog,21,TRYING,HF,target,left,yellow,pleasantness,liberal,no,m,0,1.31686453615,-3,332
2019_Oct_21,18,001,2,recog,22,ACCORDING,HF,lure,-,-,-,conservative,no,m,1,1.49999963339,3,335
2019_Oct_21,18,001,2,recog,23,GRUBS,LF,target,right,aqua,imageability,conservative,no,z,1,1.08352091341,1,336
2019_Oct_21,18,001,2,recog,24,DUPLICITY,LF,target,left,yellow,pleasantness,conservative,no,z,1,1.13352707239,1,337
2019_Oct_21,18,001,2,recog,25,UNJUSTLY,LF,lure,-,-,-,liberal,no,z,0,1.38337859695,-1,336
2019_Oct_21,18,001,2,recog,26,IRATE,LF,lure,-,-,-,liberal,no,m,1,1.20021673747,1,337
2019_Oct_21,18,001,2,recog,27,TERMS,HF,target,right,aqua,imageability,conservative,no,z,1,2.25019026852,1,338
2019_Oct_21,18,001,2,recog,28,GARDEN,HF,lure,-,-,-,liberal,no,m,1,1.16683506103,1,339
2019_Oct_21,18,001,2,recog,29,UPTIGHT,LF,target,left,yellow,pleasantness,conservative,no,z,1,1.06686453615,1,340
2019_Oct_21,18,001,2,recog,30,MAJOR,HF,target,left,yellow,pleasantness,conservative,no,z,1,1.35031330149,1,341
2019_Oct_21,18,001,2,recog,31,ACORNS,LF,target,left,yellow,pleasantness,liberal,no,z,1,1.56684180658,3,344
2019_Oct_21,18,001,2,recog,32,PRACTICE,HF,target,right,aqua,imageability,conservative,yes,m,0,1.13356263317,-1,343
2019_Oct_21,18,001,2,recog,33,SUCCESS,HF,lure,-,-,-,conservative,no,z,0,1.78352245315,-3,340
2019_Oct_21,18,001,2,recog,34,WHITE,HF,lure,-,-,-,liberal,no,m,1,1.91703229506,1,341
2019_Oct_21,18,001,2,recog,35,AFTERNOON,HF,lure,-,-,-,liberal,no,m,1,1.40020837885,1,342
2019_Oct_21,18,001,2,recog,36,ERUDITE,LF,lure,-,-,-,liberal,no,m,1,1.05021879046,1,343
2019_Oct_21,18,001,2,recog,37,ALKALINE,LF,lure,-,-,-,conservative,no,m,1,0.916701249833,3,346
2019_Oct_21,18,001,2,recog,38,GEYSER,LF,target,right,aqua,imageability,conservative,no,z,1,0.933579057119,1,347
2019_Oct_21,18,001,2,recog,39,TOGETHER,HF,target,left,yellow,pleasantness,conservative,no,m,0,1.53363610101,-1,346
2019_Oct_21,18,001,2,recog,40,EITHER,HF,lure,-,-,-,conservative,no,m,1,1.1668944512,3,349
2019_Oct_21,18,001,2,recog,41,POINT,HF,lure,-,-,-,conservative,no,z,0,1.81695032195,-3,346
2019_Oct_21,18,001,2,recog,42,ELECTING,LF,lure,-,-,-,liberal,no,m,1,1.8835094753,1,347
2019_Oct_21,18,001,2,recog,43,REREAD,LF,lure,-,-,-,liberal,no,m,1,2.45010822209,1,348
2019_Oct_21,18,001,2,recog,44,AGNOSTIC,LF,target,left,yellow,pleasantness,conservative,no,z,1,1.05019496107,1,349
2019_Oct_21,18,001,2,recog,45,MOODILY,LF,lure,-,-,-,conservative,no,m,1,0.950092824641,3,352
2019_Oct_21,18,001,2,recog,46,APART,HF,lure,-,-,-,conservative,no,m,1,1.08356160667,3,355
2019_Oct_21,18,001,2,recog,47,NEITHER,HF,lure,-,-,-,liberal,no,m,1,1.4002109451,1,356
2019_Oct_21,18,001,2,recog,48,SYSTEM,HF,lure,-,-,-,conservative,no,m,1,0.950223702985,3,359
2019_Oct_21,18,001,2,recog,49,FINAL,HF,target,left,yellow,pleasantness,conservative,no,z,1,0.833529711951,1,360
2019_Oct_21,18,001,2,recog,50,MERELY,HF,lure,-,-,-,liberal,no,m,1,0.88357729741,1,361
2019_Oct_21,18,001,2,recog,51,ENDEARING,LF,target,right,aqua,imageability,conservative,no,z,1,0.966863949579,1,362
2019_Oct_21,18,001,2,recog,52,OEDIPAL,LF,target,left,yellow,pleasantness,conservative,no,m,0,1.10021431787,-1,361
2019_Oct_21,18,001,2,recog,53,GIVEN,HF,lure,-,-,-,liberal,no,z,0,2.5501476689,-1,360
2019_Oct_21,18,001,2,recog,54,PONCE,LF,lure,-,-,-,conservative,no,m,1,1.00022362966,3,363
2019_Oct_21,18,001,2,recog,55,SNAGS,LF,lure,-,-,-,conservative,no,m,1,0.900240640182,3,366
2019_Oct_21,18,001,2,recog,56,ABBOT,LF,target,right,aqua,imageability,liberal,no,z,1,1.100173258,3,369
2019_Oct_21,18,001,2,recog,57,PIZZA,LF,lure,-,-,-,conservative,no,m,1,1.1335586005,3,372
2019_Oct_21,18,001,2,recog,58,BOOKS,HF,lure,-,-,-,conservative,no,m,1,1.46687311473,3,375
2019_Oct_21,18,001,2,recog,59,MANDARIN,LF,target,left,yellow,pleasantness,liberal,no,z,1,1.0168723082,3,378
2019_Oct_21,18,001,2,recog,60,HARDLY,HF,lure,-,-,-,liberal,no,m,1,1.03351182158,1,379
2019_Oct_21,18,001,2,recog,61,HANDS,HF,lure,-,-,-,liberal,no,m,1,1.36688425955,1,380
2019_Oct_21,18,001,2,recog,62,DECIDED,HF,target,right,aqua,imageability,liberal,no,z,1,1.03359577435,3,383
2019_Oct_21,18,001,2,recog,63,JUBILANT,LF,target,left,yellow,pleasantness,liberal,no,z,1,1.03356424624,3,386
2019_Oct_21,18,001,2,recog,64,FATHER,HF,target,right,aqua,imageability,liberal,no,z,1,0.86690735573,3,389
2019_Oct_21,18,001,2,recog,65,HYENA,LF,lure,-,-,-,liberal,no,m,1,0.783611538411,1,390
2019_Oct_21,18,001,2,recog,66,MATERIAL,HF,target,left,yellow,pleasantness,conservative,no,m,0,1.21688484612,-1,389
2019_Oct_21,18,001,2,recog,67,ELICIT,LF,lure,-,-,-,conservative,yes,m,1,1.06689643087,3,392
2019_Oct_21,18,001,2,recog,68,BUSINESS,HF,target,right,aqua,imageability,liberal,no,z,1,1.3834973773,3,395
2019_Oct_21,18,001,2,recog,69,CLASS,HF,target,right,aqua,imageability,liberal,no,z,1,0.950207205714,3,398
2019_Oct_21,18,001,2,recog,70,JEALOUSLY,LF,target,right,aqua,imageability,conservative,no,m,0,1.11688279313,-1,397
2019_Oct_21,18,001,2,recog,71,CICADAS,LF,lure,-,-,-,conservative,yes,m,1,0.983541589985,3,400
2019_Oct_21,18,001,2,recog,72,ANEMONES,LF,target,left,yellow,pleasantness,liberal,no,z,1,1.93348337295,3,403
2019_Oct_21,18,001,2,recog,73,BAWLED,LF,lure,-,-,-,liberal,no,m,1,1.18356952536,1,404
2019_Oct_21,18,001,2,recog,74,HEIFERS,LF,lure,-,-,-,conservative,no,m,1,1.70014561591,3,407
2019_Oct_21,18,001,2,recog,75,TAUNTED,LF,target,right,aqua,imageability,liberal,no,z,1,1.68351966695,3,410
2019_Oct_21,18,001,2,recog,76,MEANS,HF,lure,-,-,-,conservative,no,m,1,1.61681790386,3,413
2019_Oct_21,18,001,2,recog,77,CUBED,LF,lure,-,-,-,conservative,no,m,1,1.10021651751,3,416
2019_Oct_21,18,001,2,recog,78,SOVIET,HF,target,left,yellow,pleasantness,liberal,no,z,1,0.866881326703,3,419
2019_Oct_21,18,001,2,recog,79,COVER,HF,target,left,yellow,pleasantness,liberal,no,m,0,1.75017193822,-3,416
2019_Oct_21,18,001,2,recog,80,VOICE,HF,target,right,aqua,imageability,conservative,no,m,0,1.43349437113,-1,415
2019_Oct_21,18,001,2,recog,81,CRUCIALLY,LF,lure,-,-,-,liberal,no,z,0,0.766695970707,-1,414
2019_Oct_21,18,001,2,recog,82,LOCAL,HF,target,left,yellow,pleasantness,liberal,no,m,0,2.1501992137,-3,411
2019_Oct_21,18,001,2,recog,83,MAKES,HF,target,right,aqua,imageability,conservative,no,m,0,2.75017560428,-1,410
2019_Oct_21,18,001,2,recog,84,GUESSWORK,LF,target,right,aqua,imageability,conservative,no,z,1,1.43362634929,1,411
2019_Oct_21,18,001,2,recog,85,GLASS,HF,lure,-,-,-,liberal,no,m,1,1.63351497439,1,412
2019_Oct_21,18,001,2,recog,86,AGONIZED,LF,lure,-,-,-,conservative,no,m,1,1.71696219999,3,415
2019_Oct_21,18,001,2,recog,87,DOGMAS,LF,target,right,aqua,imageability,liberal,no,z,1,1.23356835222,3,418
2019_Oct_21,18,001,2,recog,88,HEALTH,HF,target,right,aqua,imageability,liberal,no,m,0,1.26687670747,-3,415
2019_Oct_21,18,001,2,recog,89,LOPSIDED,LF,target,left,yellow,pleasantness,conservative,no,z,1,1.28352721903,1,416
2019_Oct_21,18,001,2,recog,90,ROUND,HF,target,right,aqua,imageability,liberal,no,z,1,1.45020170662,3,419
2019_Oct_21,18,001,2,recog,91,ANTELOPES,LF,lure,-,-,-,liberal,no,m,1,4.43343314793,1,420
2019_Oct_21,18,001,2,recog,92,MYSELF,HF,lure,-,-,-,conservative,no,z,0,1.15026703581,-3,417
2019_Oct_21,18,001,2,recog,93,GESTURING,LF,target,right,aqua,imageability,conservative,no,m,0,2.73329596396,-1,416
2019_Oct_21,18,001,2,recog,94,SAYING,HF,target,left,yellow,pleasantness,conservative,no,m,0,1.91688381962,-1,415
2019_Oct_21,18,001,2,recog,95,HONKING,LF,target,right,aqua,imageability,liberal,no,z,1,1.30021402459,3,418
2019_Oct_21,18,001,3,source,0,USING,HF,target,left,yellow,pleasantness,conservative,yes,2,1,2.01668460592,-,-
2019_Oct_21,18,001,3,source,1,GYPSIES,LF,target,left,yellow,pleasantness,liberal,no,1,1,1.06670616235,-,-
2019_Oct_21,18,001,3,source,2,ENHANCES,LF,target,left,yellow,pleasantness,conservative,no,1,1,1.10022641587,-,-
2019_Oct_21,18,001,3,source,3,WRITE,HF,target,left,yellow,pleasantness,conservative,no,7,0,1.15019004855,-,-
2019_Oct_21,18,001,3,source,4,FIELD,HF,target,left,yellow,pleasantness,liberal,no,1,1,0.916747075584,-,-
2019_Oct_21,18,001,3,source,5,STICKER,LF,target,left,yellow,pleasantness,conservative,no,2,1,0.950270261947,-,-
2019_Oct_21,18,001,3,source,6,WALKED,HF,target,right,aqua,imageability,liberal,yes,3,0,0.800079846788,-,-
2019_Oct_21,18,001,3,source,7,AMICABLY,LF,target,left,yellow,pleasantness,conservative,no,2,1,0.883546869111,-,-
2019_Oct_21,18,001,3,source,8,GAUCHE,LF,target,right,aqua,imageability,conservative,no,7,1,1.15021424455,-,-
2019_Oct_21,18,001,3,source,9,AILMENT,LF,target,right,aqua,imageability,liberal,no,7,1,0.916854124538,-,-
2019_Oct_21,18,001,3,source,10,SUBJECT,HF,target,left,yellow,pleasantness,liberal,no,2,1,1.4669079423,-,-
2019_Oct_21,18,001,3,source,11,OBESE,LF,target,right,aqua,imageability,conservative,no,9,1,1.15017978359,-,-
2019_Oct_21,18,001,3,source,12,TITAN,LF,target,right,aqua,imageability,liberal,no,9,1,0.966855884246,-,-
2019_Oct_21,18,001,3,source,13,ACROSS,HF,target,left,yellow,pleasantness,liberal,no,3,1,1.05019312804,-,-
2019_Oct_21,18,001,3,source,14,BETTER,HF,target,left,yellow,pleasantness,conservative,no,7,0,0.983352787892,-,-
2019_Oct_21,18,001,3,source,15,FLOOR,HF,target,left,yellow,pleasantness,conservative,no,8,0,1.08337207137,-,-
2019_Oct_21,18,001,3,source,16,INSIDE,HF,target,left,yellow,pleasantness,conservative,no,2,1,1.18356182664,-,-
2019_Oct_21,18,001,3,source,17,DAFFODILS,LF,target,right,aqua,imageability,conservative,no,7,1,1.31667023496,-,-
2019_Oct_21,18,001,3,source,18,BAPTIZED,LF,target,left,yellow,pleasantness,liberal,no,3,1,1.40026300315,-,-
2019_Oct_21,18,001,3,source,19,EMIGRATED,LF,target,right,aqua,imageability,conservative,no,7,1,0.916858157203,-,-
2019_Oct_21,18,001,3,source,20,MEETING,HF,target,right,aqua,imageability,conservative,no,2,0,1.16684679242,-,-
2019_Oct_21,18,001,3,source,21,TABLE,HF,target,right,aqua,imageability,conservative,no,7,1,1.16673937686,-,-
2019_Oct_21,18,001,3,source,22,SOMEONE,HF,target,left,yellow,pleasantness,liberal,no,7,0,1.3335080822,-,-
2019_Oct_21,18,001,3,source,23,TURNED,HF,target,right,aqua,imageability,liberal,no,2,0,1.06689313142,-,-
2019_Oct_21,18,001,3,source,24,MOUTH,HF,target,left,yellow,pleasantness,conservative,no,8,0,1.2166696484,-,-
2019_Oct_21,18,001,3,source,25,HELICAL,LF,target,right,aqua,imageability,liberal,no,7,1,1.35024584599,-,-
2019_Oct_21,18,001,3,source,26,JABBED,LF,target,right,aqua,imageability,conservative,no,2,0,1.2335060292,-,-
2019_Oct_21,18,001,3,source,27,UTILIZE,LF,target,left,yellow,pleasantness,liberal,no,7,0,1.15020214655,-,-
2019_Oct_21,18,001,3,source,28,JOCKEYS,LF,target,left,yellow,pleasantness,liberal,no,2,1,1.00027128844,-,-
2019_Oct_21,18,001,3,source,29,EXPECT,HF,target,left,yellow,pleasantness,liberal,no,7,0,0.850267842347,-,-
2019_Oct_21,18,001,3,source,30,HERSELF,HF,target,right,aqua,imageability,liberal,no,8,1,0.733580450221,-,-
2019_Oct_21,18,001,3,source,31,RUFFLES,LF,target,left,yellow,pleasantness,liberal,no,2,1,1.01689943704,-,-
2019_Oct_21,18,001,3,source,32,OCTAGONAL,LF,target,right,aqua,imageability,liberal,no,7,1,0.93352663246,-,-
2019_Oct_21,18,001,3,source,33,POUNDS,HF,target,right,aqua,imageability,conservative,no,7,1,0.983735524562,-,-
2019_Oct_21,18,001,3,source,34,GOADED,LF,target,right,aqua,imageability,liberal,no,8,1,1.20022810226,-,-
2019_Oct_21,18,001,3,source,35,SARDINES,LF,target,left,yellow,pleasantness,conservative,no,2,1,1.05023418792,-,-
2019_Oct_21,18,001,3,source,36,RELAXES,LF,target,left,yellow,pleasantness,conservative,no,8,0,1.05025838391,-,-
2019_Oct_21,18,001,3,source,37,OLDER,HF,target,right,aqua,imageability,conservative,no,2,0,1.25030281656,-,-
2019_Oct_21,18,001,3,source,38,GAPED,LF,target,right,aqua,imageability,conservative,no,7,1,1.08361513115,-,-
2019_Oct_21,18,001,3,source,39,DEVELOPED,HF,target,right,aqua,imageability,conservative,yes,2,0,0.816913294746,-,-
2019_Oct_21,18,001,3,source,40,TEDIUM,LF,target,right,aqua,imageability,liberal,yes,3,0,0.966736737295,-,-
2019_Oct_21,18,001,3,source,41,CHIEF,HF,target,right,aqua,imageability,conservative,no,7,1,0.833581770003,-,-
2019_Oct_21,18,001,3,source,42,HUBBUB,LF,target,left,yellow,pleasantness,conservative,no,2,1,1.71667404767,-,-
2019_Oct_21,18,001,3,source,43,MORNING,HF,target,right,aqua,imageability,liberal,no,8,1,0.983519593625,-,-
2019_Oct_21,18,001,3,source,44,WAGGED,LF,target,left,yellow,pleasantness,liberal,no,8,0,1.48362994203,-,-
2019_Oct_21,18,001,3,source,45,LANGUAGE,HF,target,right,aqua,imageability,liberal,no,2,0,0.950187042384,-,-
2019_Oct_21,18,001,3,source,46,SECOND,HF,target,right,aqua,imageability,liberal,no,7,1,1.11689415791,-,-
2019_Oct_21,18,001,3,source,47,REPORT,HF,target,left,yellow,pleasantness,liberal,no,3,1,1.20005763046,-,-
2019_Oct_21,18,001,3,recog,0,MOUTH,HF,target,left,yellow,pleasantness,conservative,no,z,1,1.73331576069,1,419
2019_Oct_21,18,001,3,recog,1,SLOWLY,HF,lure,-,-,-,conservative,no,m,1,1.00022143003,3,422
2019_Oct_21,18,001,3,recog,2,NEARLY,HF,lure,-,-,-,conservative,no,m,1,1.13354063681,3,425
2019_Oct_21,18,001,3,recog,3,TOXICITY,LF,lure,-,-,-,conservative,no,m,1,0.81685793724,3,428
2019_Oct_21,18,001,3,recog,4,FAUCET,LF,lure,-,-,-,conservative,no,m,1,0.733574584525,3,431
2019_Oct_21,18,001,3,recog,5,OMITTING,LF,lure,-,-,-,conservative,yes,m,1,0.933661910076,3,434
2019_Oct_21,18,001,3,recog,6,BETTER,HF,target,left,yellow,pleasantness,conservative,no,m,0,1.01682831547,-1,433
2019_Oct_21,18,001,3,recog,7,DIPLOMAS,LF,lure,-,-,-,conservative,no,m,1,0.883565566017,3,436
2019_Oct_21,18,001,3,recog,8,AGATE,LF,lure,-,-,-,conservative,no,z,0,1.71691930709,-3,433
2019_Oct_21,18,001,3,recog,9,ENAMELLED,LF,lure,-,-,-,liberal,no,m,1,1.53353711739,1,434
2019_Oct_21,18,001,3,recog,10,BEHIND,HF,lure,-,-,-,liberal,no,m,1,1.73342170982,1,435
2019_Oct_21,18,001,3,recog,11,TRUTH,HF,lure,-,-,-,liberal,no,m,1,0.80022282313,1,436
2019_Oct_21,18,001,3,recog,12,WEIRDLY,LF,lure,-,-,-,conservative,no,m,1,1.23353315805,3,439
2019_Oct_21,18,001,3,recog,13,AMICABLY,LF,target,left,yellow,pleasantness,conservative,no,z,1,0.883593428074,1,440
2019_Oct_21,18,001,3,recog,14,HAWKED,LF,lure,-,-,-,liberal,no,m,1,0.950227369045,1,441
2019_Oct_21,18,001,3,recog,15,ENHANCES,LF,target,left,yellow,pleasantness,conservative,no,z,1,0.833528612132,1,442
2019_Oct_21,18,001,3,recog,16,JOCKEYS,LF,target,left,yellow,pleasantness,liberal,no,z,1,0.850268942166,3,445
2019_Oct_21,18,001,3,recog,17,MORNING,HF,target,right,aqua,imageability,liberal,no,z,1,1.2669155677,3,448
2019_Oct_21,18,001,3,recog,18,TIERS,LF,lure,-,-,-,conservative,no,m,1,1.18352993191,3,451
2019_Oct_21,18,001,3,recog,19,DAFFODILS,LF,target,right,aqua,imageability,conservative,no,z,1,0.966848552127,1,452
2019_Oct_21,18,001,3,recog,20,STICKER,LF,target,left,yellow,pleasantness,conservative,no,z,1,0.91690984865,1,453
2019_Oct_21,18,001,3,recog,21,FLOOR,HF,target,left,yellow,pleasantness,conservative,no,z,1,0.933537264034,1,454
2019_Oct_21,18,001,3,recog,22,TITAN,LF,target,right,aqua,imageability,liberal,no,z,1,0.800306775905,3,457
2019_Oct_21,18,001,3,recog,23,LANGUAGE,HF,target,right,aqua,imageability,liberal,no,z,1,1.0002012667,3,460
2019_Oct_21,18,001,3,recog,24,INTEREST,HF,lure,-,-,-,liberal,no,m,1,0.933656777592,1,461
2019_Oct_21,18,001,3,recog,25,ETHER,LF,lure,-,-,-,liberal,no,z,0,1.78371382149,-1,460
2019_Oct_21,18,001,3,recog,26,SARDINES,LF,target,left,yellow,pleasantness,conservative,no,z,1,1.08353851049,1,461
2019_Oct_21,18,001,3,recog,27,TABLE,HF,target,right,aqua,imageability,conservative,no,z,1,0.83360046691,1,462
2019_Oct_21,18,001,3,recog,28,ENERGY,HF,lure,-,-,-,conservative,no,m,1,0.850189388662,3,465
2019_Oct_21,18,001,3,recog,29,HUBBUB,LF,target,left,yellow,pleasantness,conservative,no,z,1,0.983560653497,1,466
2019_Oct_21,18,001,3,recog,30,SONAR,LF,lure,-,-,-,liberal,no,m,1,1.86679884035,1,467
2019_Oct_21,18,001,3,recog,31,RECENT,HF,lure,-,-,-,conservative,no,m,1,1.11690295646,3,470
2019_Oct_21,18,001,3,recog,32,ARRIVED,HF,lure,-,-,-,liberal,no,z,0,1.36690039022,-1,469
2019_Oct_21,18,001,3,recog,33,RESEARCH,HF,lure,-,-,-,liberal,no,z,0,1.21683975358,-1,468
2019_Oct_21,18,001,3,recog,34,USING,HF,target,left,yellow,pleasantness,conservative,no,m,0,1.35004457929,-1,467
2019_Oct_21,18,001,3,recog,35,JABBED,LF,target,right,aqua,imageability,conservative,no,z,1,1.01688990528,1,468
2019_Oct_21,18,001,3,recog,36,SOCIAL,HF,lure,-,-,-,liberal,no,m,1,0.983555887619,1,469
2019_Oct_21,18,001,3,recog,37,EXCEPT,HF,lure,-,-,-,liberal,no,m,1,1.63336613235,1,470
2019_Oct_21,18,001,3,recog,38,WAGGED,LF,target,left,yellow,pleasantness,liberal,no,z,1,0.950198773776,3,473
2019_Oct_21,18,001,3,recog,39,PESTERED,LF,lure,-,-,-,conservative,no,m,1,1.11693998366,3,476
2019_Oct_21,18,001,3,recog,40,WALKED,HF,target,right,aqua,imageability,liberal,no,m,0,1.28350155661,-3,473
2019_Oct_21,18,001,3,recog,41,SECOND,HF,target,right,aqua,imageability,liberal,no,z,1,0.966912708177,3,476
2019_Oct_21,18,001,3,recog,42,DEVELOPED,HF,target,right,aqua,imageability,conservative,no,z,1,0.966896577513,1,477
2019_Oct_21,18,001,3,recog,43,REPORT,HF,target,left,yellow,pleasantness,liberal,no,z,1,0.85032906555,3,480
2019_Oct_21,18,001,3,recog,44,CHIEF,HF,target,right,aqua,imageability,conservative,no,z,1,0.683666675954,1,481
2019_Oct_21,18,001,3,recog,45,BABBLED,LF,lure,-,-,-,liberal,no,m,1,1.26687450783,1,482
2019_Oct_21,18,001,3,recog,46,INSIDE,HF,target,left,yellow,pleasantness,conservative,no,m,0,1.33354437619,-1,481
2019_Oct_21,18,001,3,recog,47,VILLAGE,HF,lure,-,-,-,conservative,no,m,1,1.48349246478,3,484
2019_Oct_21,18,001,3,recog,48,GAUCHE,LF,target,right,aqua,imageability,conservative,no,z,1,1.0668491387,1,485
2019_Oct_21,18,001,3,recog,49,TURNED,HF,target,right,aqua,imageability,liberal,no,m,0,1.28353565097,-3,482
2019_Oct_21,18,001,3,recog,50,SOMEONE,HF,target,left,yellow,pleasantness,liberal,no,z,1,1.65019408122,3,485
2019_Oct_21,18,001,3,recog,51,BAPTIZED,LF,target,left,yellow,pleasantness,liberal,no,z,1,0.833407998757,3,488
2019_Oct_21,18,001,3,recog,52,TODAY,HF,lure,-,-,-,conservative,no,m,1,0.833575537701,3,491
2019_Oct_21,18,001,3,recog,53,RUFFLES,LF,target,left,yellow,pleasantness,liberal,yes,m,0,0.966959633746,-3,488
2019_Oct_21,18,001,3,recog,54,OLDER,HF,target,right,aqua,imageability,conservative,no,z,1,1.28350265643,1,489
2019_Oct_21,18,001,3,recog,55,NEEDED,HF,lure,-,-,-,liberal,no,m,1,1.21663005495,1,490
2019_Oct_21,18,001,3,recog,56,EGOISM,LF,lure,-,-,-,conservative,no,m,1,1.35022494944,3,493
2019_Oct_21,18,001,3,recog,57,SUBJECT,HF,target,left,yellow,pleasantness,liberal,no,z,1,0.950229568681,3,496
2019_Oct_21,18,001,3,recog,58,MAYBE,HF,lure,-,-,-,conservative,no,m,1,1.50019760064,3,499
2019_Oct_21,18,001,3,recog,59,OCTAGONAL,LF,target,right,aqua,imageability,liberal,no,z,1,0.933591521723,3,502
2019_Oct_21,18,001,3,recog,60,KITCHEN,HF,lure,-,-,-,liberal,no,z,0,1.05024811894,-1,501
2019_Oct_21,18,001,3,recog,61,IMPORTANT,HF,lure,-,-,-,conservative,no,m,1,1.1501926148,3,504
2019_Oct_21,18,001,3,recog,62,MEETING,HF,target,right,aqua,imageability,conservative,no,z,1,1.10022421623,1,505
2019_Oct_21,18,001,3,recog,63,TEDIUM,LF,target,right,aqua,imageability,liberal,no,z,1,1.13355163499,3,508
2019_Oct_21,18,001,3,recog,64,EXPECT,HF,target,left,yellow,pleasantness,liberal,no,z,1,1.36683183489,3,511
2019_Oct_21,18,001,3,recog,65,DUNGEON,LF,lure,-,-,-,liberal,no,m,1,0.867018437349,1,512
2019_Oct_21,18,001,3,recog,66,WRITE,HF,target,left,yellow,pleasantness,conservative,no,z,1,0.80019532768,1,513
2019_Oct_21,18,001,3,recog,67,GOADED,LF,target,right,aqua,imageability,liberal,no,z,1,1.01684627917,3,516
2019_Oct_21,18,001,3,recog,68,CERTAIN,HF,lure,-,-,-,conservative,no,m,1,1.18351820052,3,519
2019_Oct_21,18,001,3,recog,69,ACROSS,HF,target,left,yellow,pleasantness,liberal,no,z,1,1.26688367298,3,522
2019_Oct_21,18,001,3,recog,70,FIELD,HF,target,left,yellow,pleasantness,liberal,no,z,1,0.96685551764,3,525
2019_Oct_21,18,001,3,recog,71,BIGNESS,LF,lure,-,-,-,liberal,no,m,1,1.00022546269,1,526
2019_Oct_21,18,001,3,recog,72,HADJI,LF,lure,-,-,-,conservative,no,m,1,1.05020815889,3,529
2019_Oct_21,18,001,3,recog,73,HUSBAND,HF,lure,-,-,-,liberal,no,m,1,0.950264029645,1,530
2019_Oct_21,18,001,3,recog,74,MONEY,HF,lure,-,-,-,conservative,no,m,1,0.816863069724,3,533
2019_Oct_21,18,001,3,recog,75,GAPED,LF,target,right,aqua,imageability,conservative,no,z,1,0.850336397671,1,534
2019_Oct_21,18,001,3,recog,76,EMOTIVE,LF,lure,-,-,-,liberal,no,m,1,0.800192394832,1,535
2019_Oct_21,18,001,3,recog,77,CAFETERIA,LF,lure,-,-,-,liberal,no,m,1,1.10022274981,1,536
2019_Oct_21,18,001,3,recog,78,HERSELF,HF,target,right,aqua,imageability,liberal,no,z,1,1.06693235826,3,539
2019_Oct_21,18,001,3,recog,79,POUNDS,HF,target,right,aqua,imageability,conservative,no,z,1,1.05018469611,1,540
2019_Oct_21,18,001,3,recog,80,GETTING,HF,lure,-,-,-,liberal,no,m,1,0.866905889306,1,541
2019_Oct_21,18,001,3,recog,81,EARLIER,HF,lure,-,-,-,conservative,no,m,1,0.950274661219,3,544
2019_Oct_21,18,001,3,recog,82,UTILIZE,LF,target,left,yellow,pleasantness,liberal,no,z,1,0.833623929694,3,547
2019_Oct_21,18,001,3,recog,83,EMIGRATED,LF,target,right,aqua,imageability,conservative,no,z,1,0.816922459897,1,548
2019_Oct_21,18,001,3,recog,84,ENFORCING,LF,lure,-,-,-,liberal,no,m,1,1.25021776397,1,549
2019_Oct_21,18,001,3,recog,85,ASCEND,LF,lure,-,-,-,conservative,no,m,1,0.866902223245,3,552
2019_Oct_21,18,001,3,recog,86,LAVISHED,LF,lure,-,-,-,liberal,no,m,1,1.01668643895,1,553
2019_Oct_21,18,001,3,recog,87,RELAXES,LF,target,left,yellow,pleasantness,conservative,yes,m,0,0.850235947625,-1,552
2019_Oct_21,18,001,3,recog,88,LOOKED,HF,lure,-,-,-,conservative,no,m,1,0.90024357303,3,555
2019_Oct_21,18,001,3,recog,89,ENCLOSE,LF,lure,-,-,-,conservative,no,m,1,0.866864829433,3,558
2019_Oct_21,18,001,3,recog,90,GYPSIES,LF,target,left,yellow,pleasantness,liberal,no,z,1,0.766985956057,3,561
2019_Oct_21,18,001,3,recog,91,FREEDOM,HF,lure,-,-,-,liberal,yes,m,1,0.800243353067,1,562
2019_Oct_21,18,001,3,recog,92,MOISTENED,LF,lure,-,-,-,liberal,no,m,1,0.800214391192,1,563
2019_Oct_21,18,001,3,recog,93,OBESE,LF,target,right,aqua,imageability,conservative,no,z,1,0.733643873061,1,564
2019_Oct_21,18,001,3,recog,94,HELICAL,LF,target,right,aqua,imageability,liberal,no,z,1,0.766961393455,3,567
2019_Oct_21,18,001,3,recog,95,AILMENT,LF,target,right,aqua,imageability,liberal,no,z,1,0.833540710131,3,570
2019_Oct_21,18,001,4,source,0,SPICED,LF,target,right,aqua,imageability,conservative,no,2,0,1.4335658593,-,-
2019_Oct_21,18,001,4,source,1,DALES,LF,target,left,yellow,pleasantness,liberal,no,7,0,0.966902443209,-,-
2019_Oct_21,18,001,4,source,2,BEREAVED,LF,target,left,yellow,pleasantness,conservative,no,3,1,1.16687502108,-,-
2019_Oct_21,18,001,4,source,3,SHUNNED,LF,target,right,aqua,imageability,conservative,no,8,1,0.866743482845,-,-
2019_Oct_21,18,001,4,source,4,WATCH,HF,target,left,yellow,pleasantness,conservative,no,3,1,0.800352601656,-,-
2019_Oct_21,18,001,4,source,5,WHETHER,HF,target,right,aqua,imageability,conservative,no,7,1,0.800244819491,-,-
2019_Oct_21,18,001,4,source,6,EVENING,HF,target,right,aqua,imageability,liberal,no,8,1,1.05025068519,-,-
2019_Oct_21,18,001,4,source,7,FAMILY,HF,target,right,aqua,imageability,liberal,no,8,1,0.933525166036,-,-
2019_Oct_21,18,001,4,source,8,EATERS,LF,target,right,aqua,imageability,liberal,no,8,1,0.883575097774,-,-
2019_Oct_21,18,001,4,source,9,FLICKS,LF,target,right,aqua,imageability,conservative,no,3,0,1.15000637894,-,-
2019_Oct_21,18,001,4,source,10,HIGHER,HF,target,left,yellow,pleasantness,conservative,no,7,0,0.900214611156,-,-
2019_Oct_21,18,001,4,source,11,DWINDLE,LF,target,right,aqua,imageability,liberal,no,2,0,0.883354034352,-,-
2019_Oct_21,18,001,4,source,12,FITFUL,LF,target,left,yellow,pleasantness,liberal,no,2,1,1.00029585105,-,-
2019_Oct_21,18,001,4,source,13,MIGHTILY,LF,target,left,yellow,pleasantness,conservative,no,7,0,0.800247019126,-,-
2019_Oct_21,18,001,4,source,14,REACHED,HF,target,left,yellow,pleasantness,liberal,no,2,1,1.11689379131,-,-
2019_Oct_21,18,001,4,source,15,SPACE,HF,target,right,aqua,imageability,liberal,no,7,1,1.16688931871,-,-
2019_Oct_21,18,001,4,source,16,STRAIGHT,HF,target,right,aqua,imageability,liberal,no,7,1,0.983557354043,-,-
2019_Oct_21,18,001,4,source,17,DOCTOR,HF,target,left,yellow,pleasantness,conservative,no,2,1,0.916715914073,-,-
2019_Oct_21,18,001,4,source,18,SWIFTNESS,LF,target,left,yellow,pleasantness,liberal,no,2,1,0.933523699612,-,-
2019_Oct_21,18,001,4,source,19,CHOICE,HF,target,right,aqua,imageability,conservative,no,8,1,0.833580303579,-,-
2019_Oct_21,18,001,4,source,20,PUCKERED,LF,target,left,yellow,pleasantness,conservative,no,2,1,0.916902149924,-,-
2019_Oct_21,18,001,4,source,21,ELATION,LF,target,left,yellow,pleasantness,conservative,no,7,0,0.850240346897,-,-
2019_Oct_21,18,001,4,source,22,ZEALOTS,LF,target,right,aqua,imageability,conservative,yes,3,0,0.716917107449,-,-
2019_Oct_21,18,001,4,source,23,SADDER,LF,target,left,yellow,pleasantness,liberal,no,7,0,0.816905229415,-,-
2019_Oct_21,18,001,4,source,24,SLIGHTLY,HF,target,left,yellow,pleasantness,conservative,no,2,1,0.666905082772,-,-
2019_Oct_21,18,001,4,source,25,CALLED,HF,target,right,aqua,imageability,conservative,no,8,1,0.65034365647,-,-
2019_Oct_21,18,001,4,source,26,LETTER,HF,target,left,yellow,pleasantness,liberal,no,3,1,0.833412764635,-,-
2019_Oct_21,18,001,4,source,27,WITHIN,HF,target,right,aqua,imageability,conservative,no,7,1,0.733599513734,-,-
2019_Oct_21,18,001,4,source,28,LESSENED,LF,target,right,aqua,imageability,liberal,no,8,1,0.666960073673,-,-
2019_Oct_21,18,001,4,source,29,LIMELIGHT,LF,target,left,yellow,pleasantness,conservative,no,2,1,0.666881619988,-,-
2019_Oct_21,18,001,4,source,30,RETURN,HF,target,left,yellow,pleasantness,liberal,no,7,0,0.700231035105,-,-
2019_Oct_21,18,001,4,source,31,RATHER,HF,target,left,yellow,pleasantness,liberal,no,3,1,1.00034717589,-,-
2019_Oct_21,18,001,4,source,32,SHALL,HF,target,left,yellow,pleasantness,conservative,no,8,0,1.06696718583,-,-
2019_Oct_21,18,001,4,source,33,ECLECTIC,LF,target,left,yellow,pleasantness,liberal,no,7,0,0.783603473079,-,-
2019_Oct_21,18,001,4,source,34,BEAUTIFUL,HF,target,right,aqua,imageability,conservative,no,2,0,0.800272681547,-,-
2019_Oct_21,18,001,4,source,35,TROUBLE,HF,target,left,yellow,pleasantness,liberal,no,3,1,0.916901050106,-,-
2019_Oct_21,18,001,4,source,36,GREATER,HF,target,right,aqua,imageability,liberal,no,7,1,0.816927958987,-,-
2019_Oct_21,18,001,4,source,37,WESTERN,HF,target,left,yellow,pleasantness,conservative,yes,8,0,1.18334882855,-,-
2019_Oct_21,18,001,4,source,38,LIGHT,HF,target,right,aqua,imageability,conservative,no,7,1,0.916796934001,-,-
2019_Oct_21,18,001,4,source,39,AVAILABLE,HF,target,right,aqua,imageability,liberal,no,3,0,1.15032056029,-,-
2019_Oct_21,18,001,4,source,40,AFRAID,HF,target,left,yellow,pleasantness,liberal,no,3,1,0.816894964446,-,-
2019_Oct_21,18,001,4,source,41,MELODIC,LF,target,left,yellow,pleasantness,liberal,no,7,0,1.06687553433,-,-
2019_Oct_21,18,001,4,source,42,MIMICKED,LF,target,left,yellow,pleasantness,conservative,no,3,1,0.983316493897,-,-
2019_Oct_21,18,001,4,source,43,NEOLITHIC,LF,target,right,aqua,imageability,liberal,no,7,1,0.933549362032,-,-
2019_Oct_21,18,001,4,source,44,ANVIL,LF,target,right,aqua,imageability,conservative,yes,8,1,0.850426216142,-,-
2019_Oct_21,18,001,4,source,45,RODENTS,LF,target,right,aqua,imageability,liberal,no,3,0,1.68352369961,-,-
2019_Oct_21,18,001,4,source,46,VERBALLY,LF,target,right,aqua,imageability,liberal,no,7,1,0.933535431004,-,-
2019_Oct_21,18,001,4,source,47,ONCOMING,LF,target,right,aqua,imageability,conservative,yes,2,0,0.966689078514,-,-
2019_Oct_21,18,001,4,recog,0,BEAUTIFUL,HF,target,right,aqua,imageability,conservative,no,m,0,1.25018880209,-1,569
2019_Oct_21,18,001,4,recog,1,TRADE,HF,lure,-,-,-,conservative,no,m,1,0.733589981978,3,572
2019_Oct_21,18,001,4,recog,2,SLIGHTLY,HF,target,left,yellow,pleasantness,conservative,no,z,1,0.716939470416,1,573
2019_Oct_21,18,001,4,recog,3,CALLED,HF,target,right,aqua,imageability,conservative,yes,m,0,0.866743849451,-1,572
2019_Oct_21,18,001,4,recog,4,BILATERAL,LF,lure,-,-,-,conservative,no,m,1,0.950208672139,3,575
2019_Oct_21,18,001,4,recog,5,FITFUL,LF,target,left,yellow,pleasantness,liberal,no,z,1,0.900208012247,3,578
2019_Oct_21,18,001,4,recog,6,SHALL,HF,target,left,yellow,pleasantness,conservative,no,m,0,0.983357920376,-1,577
2019_Oct_21,18,001,4,recog,7,STAFF,HF,lure,-,-,-,liberal,no,m,1,0.866870328523,1,578
2019_Oct_21,18,001,4,recog,8,WHETHER,HF,target,right,aqua,imageability,conservative,no,m,0,1.20025889716,-1,577
2019_Oct_21,18,001,4,recog,9,PHANTOMS,LF,lure,-,-,-,conservative,no,m,1,0.816947389105,3,580
2019_Oct_21,18,001,4,recog,10,AMPLIFY,LF,lure,-,-,-,conservative,no,m,1,1.16682662909,3,583
2019_Oct_21,18,001,4,recog,11,STRAIGHT,HF,target,right,aqua,imageability,liberal,no,z,1,0.866695457458,3,586
2019_Oct_21,18,001,4,recog,12,BROUGHT,HF,lure,-,-,-,conservative,no,m,1,0.800195327679,3,589
2019_Oct_21,18,001,4,recog,13,LETTER,HF,target,left,yellow,pleasantness,liberal,no,m,0,1.03356497945,-3,586
2019_Oct_21,18,001,4,recog,14,BEDLAM,LF,lure,-,-,-,liberal,no,m,1,1.01684481274,1,587
2019_Oct_21,18,001,4,recog,15,HIGHER,HF,target,left,yellow,pleasantness,conservative,yes,m,0,0.866888658823,-1,586
2019_Oct_21,18,001,4,recog,16,GURGLE,LF,lure,-,-,-,liberal,no,m,1,1.16700919888,1,587
2019_Oct_21,18,001,4,recog,17,LIGHT,HF,target,right,aqua,imageability,conservative,no,z,1,0.866861163373,1,588
2019_Oct_21,18,001,4,recog,18,ALTHOUGH,HF,lure,-,-,-,liberal,no,m,1,0.800192394832,1,589
2019_Oct_21,18,001,4,recog,19,SADDER,LF,target,left,yellow,pleasantness,liberal,no,z,1,0.783618503925,3,592
2019_Oct_21,18,001,4,recog,20,YEOMAN,LF,lure,-,-,-,liberal,no,m,1,0.733602446582,1,593
2019_Oct_21,18,001,4,recog,21,CRICKETER,LF,lure,-,-,-,liberal,no,m,1,1.11690662252,1,594
2019_Oct_21,18,001,4,recog,22,ANVIL,LF,target,right,aqua,imageability,conservative,no,m,0,1.15022157667,-1,593
2019_Oct_21,18,001,4,recog,23,DAUGHTER,HF,lure,-,-,-,liberal,no,z,0,1.38356409959,-1,592
2019_Oct_21,18,001,4,recog,24,SEDAN,LF,lure,-,-,-,conservative,yes,m,1,0.750309048863,3,595
2019_Oct_21,18,001,4,recog,25,RAMBLE,LF,lure,-,-,-,liberal,no,m,1,1.00025295814,1,596
2019_Oct_21,18,001,4,recog,26,CHOICE,HF,target,right,aqua,imageability,conservative,no,m,0,0.916891884956,-1,595
2019_Oct_21,18,001,4,recog,27,PERHAPS,HF,lure,-,-,-,liberal,no,m,1,1.33358910212,1,596
2019_Oct_21,18,001,4,recog,28,INUNDATED,LF,lure,-,-,-,conservative,no,m,1,1.21689621091,3,599
2019_Oct_21,18,001,4,recog,29,RODENTS,LF,target,right,aqua,imageability,liberal,no,z,1,0.866902589852,3,602
2019_Oct_21,18,001,4,recog,30,MELODIC,LF,target,left,yellow,pleasantness,liberal,no,z,1,1.050251785,3,605
2019_Oct_21,18,001,4,recog,31,EXUDED,LF,lure,-,-,-,liberal,no,m,1,0.866928252272,1,606
2019_Oct_21,18,001,4,recog,32,SPICED,LF,target,right,aqua,imageability,conservative,no,z,1,0.683561826636,1,607
2019_Oct_21,18,001,4,recog,33,STUDENT,HF,lure,-,-,-,liberal,no,m,1,1.26698522285,1,608
2019_Oct_21,18,001,4,recog,34,BEREAVED,LF,target,left,yellow,pleasantness,conservative,no,z,1,0.966888145575,1,609
2019_Oct_21,18,001,4,recog,35,FAMILY,HF,target,right,aqua,imageability,liberal,no,z,1,0.816853904574,3,612
2019_Oct_21,18,001,4,recog,36,SUING,LF,lure,-,-,-,liberal,no,m,1,1.00012647907,1,613
2019_Oct_21,18,001,4,recog,37,LIMELIGHT,LF,target,left,yellow,pleasantness,conservative,no,z,1,0.833394067728,1,614
2019_Oct_21,18,001,4,recog,38,SHUNNED,LF,target,right,aqua,imageability,conservative,no,z,1,0.866856397495,1,615
2019_Oct_21,18,001,4,recog,39,TROUBLE,HF,target,left,yellow,pleasantness,liberal,no,z,1,0.833520180194,3,618
2019_Oct_21,18,001,4,recog,40,LESSENED,LF,target,right,aqua,imageability,liberal,no,m,0,1.01700208672,-3,615
2019_Oct_21,18,001,4,recog,41,WESTERN,HF,target,left,yellow,pleasantness,conservative,no,z,1,0.88358829559,1,616
2019_Oct_21,18,001,4,recog,42,APPEARED,HF,lure,-,-,-,conservative,no,m,1,0.783607872351,3,619
2019_Oct_21,18,001,4,recog,43,FUNNILY,LF,lure,-,-,-,conservative,no,z,0,1.01695406133,-3,616
2019_Oct_21,18,001,4,recog,44,YOGHURT,LF,lure,-,-,-,conservative,no,m,1,1.33353741068,3,619
2019_Oct_21,18,001,4,recog,45,TAKEN,HF,lure,-,-,-,conservative,no,z,0,1.03356021357,-3,616
2019_Oct_21,18,001,4,recog,46,DWINDLE,LF,target,right,aqua,imageability,liberal,no,z,1,0.916903616348,3,619
2019_Oct_21,18,001,4,recog,47,DENIALS,LF,lure,-,-,-,conservative,no,m,1,1.21688741236,3,622
2019_Oct_21,18,001,4,recog,48,ICEBOX,LF,lure,-,-,-,liberal,no,m,1,1.08358067019,1,623
2019_Oct_21,18,001,4,recog,49,LACING,LF,lure,-,-,-,liberal,no,m,1,1.51683161493,1,624
2019_Oct_21,18,001,4,recog,50,RETURN,HF,target,left,yellow,pleasantness,liberal,no,m,0,1.01691996698,-3,621
2019_Oct_21,18,001,4,recog,51,SERIOUS,HF,lure,-,-,-,liberal,no,m,1,1.06684803888,1,622
2019_Oct_21,18,001,4,recog,52,TALKING,HF,lure,-,-,-,conservative,no,m,1,1.11689489113,3,625
2019_Oct_21,18,001,4,recog,53,ECLECTIC,LF,target,left,yellow,pleasantness,liberal,no,m,0,1.3835399036,-3,622
2019_Oct_21,18,001,4,recog,54,GREATER,HF,target,right,aqua,imageability,liberal,no,m,0,1.0336416001,-3,619
2019_Oct_21,18,001,4,recog,55,MIGHTILY,LF,target,left,yellow,pleasantness,conservative,no,z,1,1.23341657734,1,620
2019_Oct_21,18,001,4,recog,56,SHORT,HF,lure,-,-,-,conservative,no,m,1,0.766911901644,3,623
2019_Oct_21,18,001,4,recog,57,VERBALLY,LF,target,right,aqua,imageability,liberal,no,z,1,1.55020009356,3,626
2019_Oct_21,18,001,4,recog,58,SORRY,HF,lure,-,-,-,liberal,no,m,1,0.73359988034,1,627
2019_Oct_21,18,001,4,recog,59,RATHER,HF,target,left,yellow,pleasantness,liberal,no,m,0,1.48355882047,-3,624
2019_Oct_21,18,001,4,recog,60,WITHIN,HF,target,right,aqua,imageability,conservative,no,z,1,1.11695868057,1,625
2019_Oct_21,18,001,4,recog,61,TEMERITY,LF,lure,-,-,-,liberal,no,z,0,1.93326854183,-1,624
2019_Oct_21,18,001,4,recog,62,EATERS,LF,target,right,aqua,imageability,liberal,no,z,1,1.16693624428,3,627
2019_Oct_21,18,001,4,recog,63,LIKELY,HF,lure,-,-,-,conservative,no,m,1,0.733548188893,3,630
2019_Oct_21,18,001,4,recog,64,TOWARDS,HF,lure,-,-,-,conservative,no,z,0,1.11690185664,-3,627
2019_Oct_21,18,001,4,recog,65,EXACTLY,HF,lure,-,-,-,liberal,no,m,1,2.05019606089,1,628
2019_Oct_21,18,001,4,recog,66,REACHED,HF,target,left,yellow,pleasantness,liberal,no,z,1,1.41687392126,3,631
2019_Oct_21,18,001,4,recog,67,SWIFTNESS,LF,target,left,yellow,pleasantness,liberal,no,z,1,0.816911461717,3,634
2019_Oct_21,18,001,4,recog,68,PUCKERED,LF,target,left,yellow,pleasantness,conservative,no,z,1,0.833563073097,1,635
2019_Oct_21,18,001,4,recog,69,AFRAID,HF,target,left,yellow,pleasantness,liberal,no,m,0,0.966896577513,-3,632
2019_Oct_21,18,001,4,recog,70,COHESIVE,LF,lure,-,-,-,conservative,no,z,0,1.60019122169,-3,629
2019_Oct_21,18,001,4,recog,71,CLEAR,HF,lure,-,-,-,conservative,no,m,1,1.58336987173,3,632
2019_Oct_21,18,001,4,recog,72,ELATION,LF,target,left,yellow,pleasantness,conservative,no,z,1,0.75022399627,1,633
2019_Oct_21,18,001,4,recog,73,MIMICKED,LF,target,left,yellow,pleasantness,conservative,no,z,1,1.41655937331,1,634
2019_Oct_21,18,001,4,recog,74,EVENING,HF,target,right,aqua,imageability,liberal,no,z,1,0.933592254935,3,637
2019_Oct_21,18,001,4,recog,75,NEOLITHIC,LF,target,right,aqua,imageability,liberal,no,z,1,0.766915201098,3,640
2019_Oct_21,18,001,4,recog,76,POLICE,HF,lure,-,-,-,conservative,no,m,1,0.800241520036,3,643
2019_Oct_21,18,001,4,recog,77,WATCH,HF,target,left,yellow,pleasantness,conservative,no,m,0,0.866908455547,-1,642
2019_Oct_21,18,001,4,recog,78,DALES,LF,target,left,yellow,pleasantness,liberal,no,z,1,0.816855370998,3,645
2019_Oct_21,18,001,4,recog,79,EASILY,HF,lure,-,-,-,conservative,no,m,1,1.06688873214,3,648
2019_Oct_21,18,001,4,recog,80,FACILE,LF,lure,-,-,-,conservative,no,m,1,0.900235141092,3,651
2019_Oct_21,18,001,4,recog,81,IDEAS,HF,lure,-,-,-,liberal,no,m,1,0.883646585945,1,652
2019_Oct_21,18,001,4,recog,82,ONCOMING,LF,target,right,aqua,imageability,conservative,no,z,1,2.1167713449,1,653
2019_Oct_21,18,001,4,recog,83,CONCERNED,HF,lure,-,-,-,conservative,no,m,1,1.5333728779,3,656
2019_Oct_21,18,001,4,recog,84,DOCTOR,HF,target,left,yellow,pleasantness,conservative,no,z,1,0.733629575426,1,657
2019_Oct_21,18,001,4,recog,85,SEABED,LF,lure,-,-,-,conservative,no,m,1,0.866851998223,3,660
2019_Oct_21,18,001,4,recog,86,DIFFERENT,HF,lure,-,-,-,liberal,no,z,0,1.26688183995,-1,659
2019_Oct_21,18,001,4,recog,87,FLICKS,LF,target,right,aqua,imageability,conservative,yes,m,0,0.90019591425,-1,658
2019_Oct_21,18,001,4,recog,88,BOVINE,LF,lure,-,-,-,liberal,no,m,1,0.950236534195,1,659
2019_Oct_21,18,001,4,recog,89,NUMBER,HF,lure,-,-,-,liberal,no,z,0,1.01684627917,-1,658
2019_Oct_21,18,001,4,recog,90,ZEALOTS,LF,target,right,aqua,imageability,conservative,no,z,1,0.900241373394,1,659
2019_Oct_21,18,001,4,recog,91,SUFFERER,LF,lure,-,-,-,conservative,no,m,1,0.983597314098,3,662
2019_Oct_21,18,001,4,recog,92,LEARN,HF,lure,-,-,-,liberal,no,m,1,0.683674741286,1,663
2019_Oct_21,18,001,4,recog,93,AVAILABLE,HF,target,right,aqua,imageability,liberal,no,m,0,0.733530958411,-3,660
2019_Oct_21,18,001,4,recog,94,SPACE,HF,target,right,aqua,imageability,liberal,no,z,1,1.09997932342,3,663
2019_Oct_21,18,001,4,recog,95,ROADWAY,LF,lure,-,-,-,liberal,no,m,1,1.30016856544,1,664
