date,subj,session,cycle,task,trial,item,wf,type,source,colour,encoding,bias,null,response,corr,rt,points,total
2019_Oct_21,19,001,0,source,0,MYSELF,HF,target,left,aqua,imageability,conservative,no,1,1,4.28341247135,-,-
2019_Oct_21,19,001,0,source,1,SUMMER,HF,target,right,yellow,pleasantness,liberal,yes,1,0,1.66679510097,-,-
2019_Oct_21,19,001,0,source,2,FINAL,HF,target,right,yellow,pleasantness,conservative,no,1,0,2.86684136665,-,-
2019_Oct_21,19,001,0,source,3,BIDDER,LF,target,left,aqua,imageability,conservative,no,1,1,0.883525605963,-,-
2019_Oct_21,19,001,0,source,4,URBANE,LF,target,right,yellow,pleasantness,liberal,no,9,1,1.91685999023,-,-
2019_Oct_21,19,001,0,source,5,ROOFED,LF,target,right,yellow,pleasantness,liberal,no,9,1,0.750246725842,-,-
2019_Oct_21,19,001,0,source,6,DAWDLING,LF,target,left,aqua,imageability,conservative,no,1,1,1.10020661914,-,-
2019_Oct_21,19,001,0,source,7,ENOUGH,HF,target,left,aqua,imageability,liberal,no,2,1,1.81680477937,-,-
2019_Oct_21,19,001,0,source,8,NARRATOR,LF,target,right,yellow,pleasantness,conservative,no,9,1,3.91680353291,-,-
2019_Oct_21,19,001,0,source,9,SOAPY,LF,target,right,yellow,pleasantness,conservative,yes,8,1,0.933566959121,-,-
2019_Oct_21,19,001,0,source,10,DUSTER,LF,target,right,yellow,pleasantness,liberal,no,8,1,1.31679818046,-,-
2019_Oct_21,19,001,0,source,11,LAXATIVE,LF,target,left,aqua,imageability,liberal,no,1,1,0.866903323064,-,-
2019_Oct_21,19,001,0,source,12,POINT,HF,target,right,yellow,pleasantness,liberal,no,8,1,2.48344810545,-,-
2019_Oct_21,19,001,0,source,13,DUBIOUSLY,LF,target,left,aqua,imageability,conservative,no,8,0,3.55005931685,-,-
2019_Oct_21,19,001,0,source,14,APART,HF,target,left,aqua,imageability,conservative,no,9,0,1.1668398269,-,-
2019_Oct_21,19,001,0,source,15,WRONG,HF,target,right,yellow,pleasantness,conservative,no,1,0,1.76677809045,-,-
2019_Oct_21,19,001,0,source,16,QUOTAS,LF,target,left,aqua,imageability,liberal,no,9,0,1.00006635569,-,-
2019_Oct_21,19,001,0,source,17,TOGETHER,HF,target,right,yellow,pleasantness,liberal,no,9,1,0.666746708978,-,-
2019_Oct_21,19,001,0,source,18,SAGES,LF,target,right,yellow,pleasantness,conservative,no,8,1,1.18355522773,-,-
2019_Oct_21,19,001,0,source,19,MEETING,HF,target,right,yellow,pleasantness,conservative,no,9,1,0.86695134845,-,-
2019_Oct_21,19,001,0,source,20,SINCE,HF,target,left,aqua,imageability,liberal,no,2,1,1.86695318148,-,-
2019_Oct_21,19,001,0,source,21,DUELLING,LF,target,left,aqua,imageability,conservative,no,1,1,0.916856690779,-,-
2019_Oct_21,19,001,0,source,22,RUPTURE,LF,target,left,aqua,imageability,conservative,no,1,1,1.13358792898,-,-
2019_Oct_21,19,001,0,source,23,GENERAL,HF,target,left,aqua,imageability,conservative,no,1,1,1.21672133984,-,-
2019_Oct_21,19,001,0,source,24,GIRLS,HF,target,right,yellow,pleasantness,conservative,no,9,1,1.21688924539,-,-
2019_Oct_21,19,001,0,source,25,HUMAN,HF,target,left,aqua,imageability,liberal,no,2,1,3.5833922347,-,-
2019_Oct_21,19,001,0,source,26,GLASS,HF,target,left,aqua,imageability,liberal,no,2,1,1.25016937197,-,-
2019_Oct_21,19,001,0,source,27,GUMMED,LF,target,right,yellow,pleasantness,conservative,no,8,1,1.63349004518,-,-
2019_Oct_21,19,001,0,source,28,AHEAD,HF,target,left,aqua,imageability,liberal,no,8,0,1.35021248484,-,-
2019_Oct_21,19,001,0,source,29,NORTH,HF,target,right,yellow,pleasantness,liberal,no,9,1,0.867000840261,-,-
2019_Oct_21,19,001,0,source,30,ARPEGGIO,LF,target,right,yellow,pleasantness,liberal,yes,2,0,0.816852804756,-,-
2019_Oct_21,19,001,0,source,31,EDICT,LF,target,right,yellow,pleasantness,conservative,no,2,0,1.35030596937,-,-
2019_Oct_21,19,001,0,source,32,STAFF,HF,target,right,yellow,pleasantness,conservative,no,2,0,3.16698940215,-,-
2019_Oct_21,19,001,0,source,33,EXPECT,HF,target,left,aqua,imageability,liberal,no,8,0,1.96680675904,-,-
2019_Oct_21,19,001,0,source,34,NEARLY,HF,target,right,yellow,pleasantness,liberal,no,8,1,0.949975510719,-,-
2019_Oct_21,19,001,0,source,35,RETURN,HF,target,right,yellow,pleasantness,liberal,no,9,1,1.10022678248,-,-
2019_Oct_21,19,001,0,source,36,UGLIEST,LF,target,left,aqua,imageability,liberal,no,1,1,0.983563952951,-,-
2019_Oct_21,19,001,0,source,37,PINAFORE,LF,target,right,yellow,pleasantness,liberal,yes,8,1,1.10005337783,-,-
2019_Oct_21,19,001,0,source,38,AREAS,HF,target,left,aqua,imageability,conservative,no,1,1,2.31663247455,-,-
2019_Oct_21,19,001,0,source,39,ASSERTIVE,LF,target,left,aqua,imageability,liberal,no,8,0,1.10024144672,-,-
2019_Oct_21,19,001,0,source,40,SKATES,LF,target,left,aqua,imageability,conservative,no,1,1,0.900234774486,-,-
2019_Oct_21,19,001,0,source,41,OMITTING,LF,target,left,aqua,imageability,liberal,no,2,1,1.40020251316,-,-
2019_Oct_21,19,001,0,source,42,JACKALS,LF,target,right,yellow,pleasantness,liberal,no,9,1,0.900237707334,-,-
2019_Oct_21,19,001,0,source,43,CRICKETER,LF,target,left,aqua,imageability,liberal,no,1,1,1.11689415791,-,-
2019_Oct_21,19,001,0,source,44,OFFER,HF,target,left,aqua,imageability,conservative,no,8,0,0.900286465933,-,-
2019_Oct_21,19,001,0,source,45,LAVISHED,LF,target,right,yellow,pleasantness,conservative,no,9,1,1.18350206986,-,-
2019_Oct_21,19,001,0,source,46,TAKEN,HF,target,left,aqua,imageability,conservative,no,8,0,0.750273121474,-,-
2019_Oct_21,19,001,0,source,47,SUBJECT,HF,target,right,yellow,pleasantness,conservative,no,2,0,0.833616230968,-,-
2019_Oct_21,19,001,0,recog,0,WEDGES,LF,lure,-,-,-,conservative,no,m,1,1.83350368292,3,3
2019_Oct_21,19,001,0,recog,1,GENERAL,HF,target,left,aqua,imageability,conservative,no,z,1,0.916905449378,1,4
2019_Oct_21,19,001,0,recog,2,SIMILAR,HF,lure,-,-,-,liberal,no,m,1,2.13361102516,1,5
2019_Oct_21,19,001,0,recog,3,PUCKERED,LF,lure,-,-,-,liberal,no,m,1,1.43352589925,1,6
2019_Oct_21,19,001,0,recog,4,PINAFORE,LF,target,right,yellow,pleasantness,liberal,yes,z,1,1.45017274475,3,9
2019_Oct_21,19,001,0,recog,5,SUMMER,HF,target,right,yellow,pleasantness,liberal,no,z,1,0.716755067595,3,12
2019_Oct_21,19,001,0,recog,6,SMEARING,LF,lure,-,-,-,liberal,no,m,1,0.866854197859,1,13
2019_Oct_21,19,001,0,recog,7,MOSAICS,LF,lure,-,-,-,liberal,no,m,1,1.11699240832,1,14
2019_Oct_21,19,001,0,recog,8,RUPTURE,LF,target,left,aqua,imageability,conservative,no,z,1,0.816699196839,1,15
2019_Oct_21,19,001,0,recog,9,LAVISHED,LF,target,right,yellow,pleasantness,conservative,no,z,1,0.71692077351,1,16
2019_Oct_21,19,001,0,recog,10,QUESTION,HF,lure,-,-,-,liberal,no,m,1,3.00012977853,1,17
2019_Oct_21,19,001,0,recog,11,ASHEN,LF,lure,-,-,-,conservative,no,z,0,4.36670792206,-3,14
2019_Oct_21,19,001,0,recog,12,ENOUGH,HF,target,left,aqua,imageability,liberal,no,z,1,3.03346306298,3,17
2019_Oct_21,19,001,0,recog,13,PISTONS,LF,lure,-,-,-,liberal,no,m,1,1.36690845555,1,18
2019_Oct_21,19,001,0,recog,14,RELAXES,LF,lure,-,-,-,conservative,no,m,1,1.01697532448,3,21
2019_Oct_21,19,001,0,recog,15,OMITTING,LF,target,left,aqua,imageability,liberal,no,z,1,0.700244599528,3,24
2019_Oct_21,19,001,0,recog,16,INSIDE,HF,lure,-,-,-,liberal,no,m,1,2.23352875877,1,25
2019_Oct_21,19,001,0,recog,17,CHOICE,HF,lure,-,-,-,conservative,no,z,0,1.71685258479,-3,22
2019_Oct_21,19,001,0,recog,18,GUILDHALL,LF,lure,-,-,-,conservative,no,m,1,0.850188288845,3,25
2019_Oct_21,19,001,0,recog,19,POINT,HF,target,right,yellow,pleasantness,liberal,no,z,1,1.86686079677,3,28
2019_Oct_21,19,001,0,recog,20,ASSERTIVE,LF,target,left,aqua,imageability,liberal,no,z,1,0.800199360346,3,31
2019_Oct_21,19,001,0,recog,21,BASIC,HF,lure,-,-,-,conservative,no,m,1,0.883519740267,3,34
2019_Oct_21,19,001,0,recog,22,ARPEGGIO,LF,target,right,yellow,pleasantness,liberal,no,z,1,1.20001913683,3,37
2019_Oct_21,19,001,0,recog,23,SOAPY,LF,target,right,yellow,pleasantness,conservative,no,z,1,0.950179343658,1,38
2019_Oct_21,19,001,0,recog,24,NUMBER,HF,lure,-,-,-,conservative,no,z,0,1.78355508109,-3,35
2019_Oct_21,19,001,0,recog,25,SUING,LF,lure,-,-,-,liberal,no,m,1,1.75019283476,1,36
2019_Oct_21,19,001,0,recog,26,EDICT,LF,target,right,yellow,pleasantness,conservative,no,z,1,1.10017692406,1,37
2019_Oct_21,19,001,0,recog,27,GUMMED,LF,target,right,yellow,pleasantness,conservative,no,z,1,0.633596360922,1,38
2019_Oct_21,19,001,0,recog,28,UGLIEST,LF,target,left,aqua,imageability,liberal,no,z,1,0.566917694018,3,41
2019_Oct_21,19,001,0,recog,29,SINCE,HF,target,left,aqua,imageability,liberal,no,z,1,0.983562486527,3,44
2019_Oct_21,19,001,0,recog,30,DUBIOUSLY,LF,target,left,aqua,imageability,conservative,no,z,1,0.71695743411,1,45
2019_Oct_21,19,001,0,recog,31,TAKEN,HF,target,left,aqua,imageability,conservative,no,z,1,0.816904862809,1,46
2019_Oct_21,19,001,0,recog,32,JACKALS,LF,target,right,yellow,pleasantness,liberal,no,z,1,0.700325619454,3,49
2019_Oct_21,19,001,0,recog,33,CRICKETER,LF,target,left,aqua,imageability,liberal,no,z,1,0.700199140382,3,52
2019_Oct_21,19,001,0,recog,34,CLOSE,HF,lure,-,-,-,liberal,no,m,1,1.40022817558,1,53
2019_Oct_21,19,001,0,recog,35,URBANE,LF,target,right,yellow,pleasantness,liberal,no,z,1,0.650258603876,3,56
2019_Oct_21,19,001,0,recog,36,LAXATIVE,LF,target,left,aqua,imageability,liberal,no,z,1,0.60028507283,3,59
2019_Oct_21,19,001,0,recog,37,SONAR,LF,lure,-,-,-,liberal,no,m,1,2.10026674253,1,60
2019_Oct_21,19,001,0,recog,38,AREAS,HF,target,left,aqua,imageability,conservative,no,z,1,3.46686284976,1,61
2019_Oct_21,19,001,0,recog,39,CORNER,HF,lure,-,-,-,conservative,no,m,1,0.850086005769,3,64
2019_Oct_21,19,001,0,recog,40,FEELING,HF,lure,-,-,-,liberal,no,m,1,0.950234701165,1,65
2019_Oct_21,19,001,0,recog,41,SAGES,LF,target,right,yellow,pleasantness,conservative,no,z,1,0.850271141801,1,66
2019_Oct_21,19,001,0,recog,42,UPKEEP,LF,lure,-,-,-,conservative,no,m,1,0.750199800273,3,69
2019_Oct_21,19,001,0,recog,43,ARRIVED,HF,lure,-,-,-,conservative,no,z,0,1.71690647587,-3,66
2019_Oct_21,19,001,0,recog,44,AHEAD,HF,target,left,aqua,imageability,liberal,no,z,1,1.78347516098,3,69
2019_Oct_21,19,001,0,recog,45,SOCIAL,HF,lure,-,-,-,conservative,no,m,1,0.916899217076,3,72
2019_Oct_21,19,001,0,recog,46,BETTER,HF,lure,-,-,-,conservative,no,m,1,1.68361791736,3,75
2019_Oct_21,19,001,0,recog,47,MYSELF,HF,target,left,aqua,imageability,conservative,no,z,1,0.683667409166,1,76
2019_Oct_21,19,001,0,recog,48,TELEPHONE,HF,lure,-,-,-,conservative,no,m,1,0.716907209086,3,79
2019_Oct_21,19,001,0,recog,49,FEUDALISM,LF,lure,-,-,-,conservative,no,m,1,0.98350162993,3,82
2019_Oct_21,19,001,0,recog,50,RETURN,HF,target,right,yellow,pleasantness,liberal,no,z,1,0.716713641116,3,85
2019_Oct_21,19,001,0,recog,51,NORTH,HF,target,right,yellow,pleasantness,liberal,yes,z,1,0.916872454838,3,88
2019_Oct_21,19,001,0,recog,52,ROOFED,LF,target,right,yellow,pleasantness,liberal,yes,z,1,0.566891298387,3,91
2019_Oct_21,19,001,0,recog,53,ALERTING,LF,lure,-,-,-,conservative,no,m,1,2.05017699738,3,94
2019_Oct_21,19,001,0,recog,54,REACHED,HF,lure,-,-,-,liberal,no,z,0,1.28354224988,-1,93
2019_Oct_21,19,001,0,recog,55,DAWDLING,LF,target,left,aqua,imageability,conservative,no,z,1,1.03351512103,1,94
2019_Oct_21,19,001,0,recog,56,CLICKS,LF,lure,-,-,-,liberal,no,m,1,0.766862043227,1,95
2019_Oct_21,19,001,0,recog,57,GLASS,HF,target,left,aqua,imageability,liberal,no,z,1,0.716870915093,3,98
2019_Oct_21,19,001,0,recog,58,STAFF,HF,target,right,yellow,pleasantness,conservative,no,z,1,0.883615424434,1,99
2019_Oct_21,19,001,0,recog,59,BESOTTED,LF,lure,-,-,-,conservative,no,m,1,2.0001345444,3,102
2019_Oct_21,19,001,0,recog,60,RABBIS,LF,lure,-,-,-,liberal,no,m,1,1.16690984865,1,103
2019_Oct_21,19,001,0,recog,61,WRONG,HF,target,right,yellow,pleasantness,conservative,no,z,1,1.33353301141,1,104
2019_Oct_21,19,001,0,recog,62,TOGETHER,HF,target,right,yellow,pleasantness,liberal,no,z,1,0.566998713946,3,107
2019_Oct_21,19,001,0,recog,63,GIRLS,HF,target,right,yellow,pleasantness,conservative,no,z,1,0.983653771423,1,108
2019_Oct_21,19,001,0,recog,64,DOSSIERS,LF,lure,-,-,-,liberal,no,m,1,1.18354349634,1,109
2019_Oct_21,19,001,0,recog,65,DIPLOMAS,LF,lure,-,-,-,conservative,no,m,1,1.35032100022,3,112
2019_Oct_21,19,001,0,recog,66,DUELLING,LF,target,left,aqua,imageability,conservative,no,z,1,0.750191001729,1,113
2019_Oct_21,19,001,0,recog,67,ALMOST,HF,lure,-,-,-,conservative,no,z,0,3.75018366961,-3,110
2019_Oct_21,19,001,0,recog,68,NARRATOR,LF,target,right,yellow,pleasantness,conservative,no,z,1,0.95020573929,1,111
2019_Oct_21,19,001,0,recog,69,MOUTH,HF,lure,-,-,-,conservative,no,m,1,0.783656997555,3,114
2019_Oct_21,19,001,0,recog,70,EXPECT,HF,target,left,aqua,imageability,liberal,no,m,0,0.883532571477,-3,111
2019_Oct_21,19,001,0,recog,71,EARLIER,HF,lure,-,-,-,liberal,no,m,1,0.950014737562,1,112
2019_Oct_21,19,001,0,recog,72,DINER,LF,lure,-,-,-,liberal,no,m,1,1.31686196991,1,113
2019_Oct_21,19,001,0,recog,73,BIDDER,LF,target,left,aqua,imageability,conservative,no,z,1,0.833572604854,1,114
2019_Oct_21,19,001,0,recog,74,DAYBREAK,LF,lure,-,-,-,conservative,no,m,1,1.16685522436,3,117
2019_Oct_21,19,001,0,recog,75,EASILY,HF,lure,-,-,-,liberal,no,m,1,1.56683850712,1,118
2019_Oct_21,19,001,0,recog,76,HUSBAND,HF,lure,-,-,-,liberal,no,m,1,0.666952374947,1,119
2019_Oct_21,19,001,0,recog,77,NEARLY,HF,target,right,yellow,pleasantness,liberal,no,z,1,0.800289912029,3,122
2019_Oct_21,19,001,0,recog,78,BUBBLED,LF,lure,-,-,-,liberal,no,m,1,0.800245919309,1,123
2019_Oct_21,19,001,0,recog,79,OFFER,HF,target,left,aqua,imageability,conservative,no,m,0,2.15027510115,-1,122
2019_Oct_21,19,001,0,recog,80,APART,HF,target,left,aqua,imageability,conservative,no,z,1,0.916850458478,1,123
2019_Oct_21,19,001,0,recog,81,MAGGOT,LF,lure,-,-,-,liberal,no,m,1,0.766859110379,1,124
2019_Oct_21,19,001,0,recog,82,DUSTER,LF,target,right,yellow,pleasantness,liberal,no,z,1,0.900151921529,3,127
2019_Oct_21,19,001,0,recog,83,FINAL,HF,target,right,yellow,pleasantness,conservative,no,z,1,0.867022103409,1,128
2019_Oct_21,19,001,0,recog,84,SOMEONE,HF,lure,-,-,-,conservative,no,z,0,0.800275247789,-3,125
2019_Oct_21,19,001,0,recog,85,TOTAL,HF,lure,-,-,-,liberal,no,m,1,0.766892471526,1,126
2019_Oct_21,19,001,0,recog,86,SITTING,HF,lure,-,-,-,liberal,no,m,1,0.900017743731,1,127
2019_Oct_21,19,001,0,recog,87,NEEDED,HF,lure,-,-,-,conservative,no,m,1,0.633633021523,3,130
2019_Oct_21,19,001,0,recog,88,SKATES,LF,target,left,aqua,imageability,conservative,no,m,0,0.800192761438,-1,129
2019_Oct_21,19,001,0,recog,89,CENTRAL,HF,lure,-,-,-,liberal,no,z,0,0.800239320401,-1,128
2019_Oct_21,19,001,0,recog,90,OEDIPAL,LF,lure,-,-,-,conservative,no,m,1,1.30017553096,3,131
2019_Oct_21,19,001,0,recog,91,HUMAN,HF,target,left,aqua,imageability,liberal,no,m,0,1.41668548577,-3,128
2019_Oct_21,19,001,0,recog,92,QUOTAS,LF,target,left,aqua,imageability,liberal,no,z,1,0.766904202917,3,131
2019_Oct_21,19,001,0,recog,93,SUBJECT,HF,target,right,yellow,pleasantness,conservative,no,z,1,0.900280966843,1,132
2019_Oct_21,19,001,0,recog,94,SCABS,LF,lure,-,-,-,conservative,yes,z,0,0.566918793837,-3,129
2019_Oct_21,19,001,0,recog,95,MEETING,HF,target,right,yellow,pleasantness,conservative,no,z,1,0.683527365672,1,130
2019_Oct_21,19,001,1,source,0,PAUNCH,LF,target,right,yellow,pleasantness,liberal,no,3,0,4.53337361111,-,-
2019_Oct_21,19,001,1,source,1,FOUND,HF,target,right,yellow,pleasantness,liberal,no,2,0,2.35015969358,-,-
2019_Oct_21,19,001,1,source,2,PENALIZED,LF,target,left,aqua,imageability,liberal,no,2,1,2.23345433776,-,-
2019_Oct_21,19,001,1,source,3,JANGLING,LF,target,right,yellow,pleasantness,conservative,no,2,0,1.03356461284,-,-
2019_Oct_21,19,001,1,source,4,SEGMENTED,LF,target,right,yellow,pleasantness,liberal,no,8,1,0.616930451908,-,-
2019_Oct_21,19,001,1,source,5,USING,HF,target,left,aqua,imageability,liberal,no,2,1,0.900246139272,-,-
2019_Oct_21,19,001,1,source,6,PIECE,HF,target,left,aqua,imageability,conservative,yes,1,1,0.750081019927,-,-
2019_Oct_21,19,001,1,source,7,ARBITER,LF,target,left,aqua,imageability,conservative,no,2,1,1.05006481594,-,-
2019_Oct_21,19,001,1,source,8,FUTURE,HF,target,left,aqua,imageability,conservative,no,1,1,0.76692509946,-,-
2019_Oct_21,19,001,1,source,9,DIGESTING,LF,target,left,aqua,imageability,liberal,no,1,1,1.20027649425,-,-
2019_Oct_21,19,001,1,source,10,OPENED,HF,target,right,yellow,pleasantness,conservative,no,8,1,1.88348197985,-,-
2019_Oct_21,19,001,1,source,11,PEOPLED,LF,target,right,yellow,pleasantness,liberal,no,7,1,1.56693162505,-,-
2019_Oct_21,19,001,1,source,12,PRIVATE,HF,target,right,yellow,pleasantness,liberal,no,1,0,2.61676804545,-,-
2019_Oct_21,19,001,1,source,13,SERIOUS,HF,target,left,aqua,imageability,conservative,no,1,1,0.716952668232,-,-
2019_Oct_21,19,001,1,source,14,UPSTART,LF,target,right,yellow,pleasantness,liberal,no,9,1,1.33355060849,-,-
2019_Oct_21,19,001,1,source,15,OTHERS,HF,target,right,yellow,pleasantness,conservative,yes,1,0,0.633535137719,-,-
2019_Oct_21,19,001,1,source,16,AMONG,HF,target,right,yellow,pleasantness,conservative,no,9,1,1.01692436625,-,-
2019_Oct_21,19,001,1,source,17,DECIDED,HF,target,left,aqua,imageability,conservative,no,1,1,1.08357297146,-,-
2019_Oct_21,19,001,1,source,18,HISTORY,HF,target,right,yellow,pleasantness,conservative,no,9,1,0.916988668941,-,-
2019_Oct_21,19,001,1,source,19,URCHIN,LF,target,left,aqua,imageability,conservative,no,1,1,0.733397880431,-,-
2019_Oct_21,19,001,1,source,20,MOPED,LF,target,right,yellow,pleasantness,conservative,no,9,1,0.68337155812,-,-
2019_Oct_21,19,001,1,source,21,AGONIZED,LF,target,left,aqua,imageability,conservative,no,1,1,1.1335094753,-,-
2019_Oct_21,19,001,1,source,22,SMALL,HF,target,left,aqua,imageability,liberal,no,1,1,0.933660077046,-,-
2019_Oct_21,19,001,1,source,23,TRYING,HF,target,left,aqua,imageability,liberal,no,8,0,0.833537410676,-,-
2019_Oct_21,19,001,1,source,24,PLUGGING,LF,target,right,yellow,pleasantness,conservative,no,9,1,0.966745169233,-,-
2019_Oct_21,19,001,1,source,25,CHURCH,HF,target,left,aqua,imageability,liberal,no,1,1,0.616601972926,-,-
2019_Oct_21,19,001,1,source,26,PEGGED,LF,target,left,aqua,imageability,liberal,no,1,1,0.750287052502,-,-
2019_Oct_21,19,001,1,source,27,PIQUE,LF,target,left,aqua,imageability,liberal,no,1,1,0.650192248189,-,-
2019_Oct_21,19,001,1,source,28,EFFECT,HF,target,left,aqua,imageability,liberal,no,8,0,0.900140190137,-,-
2019_Oct_21,19,001,1,source,29,BEHIND,HF,target,right,yellow,pleasantness,liberal,no,2,0,0.600281040164,-,-
2019_Oct_21,19,001,1,source,30,ECONOMIC,HF,target,right,yellow,pleasantness,liberal,no,9,1,0.700150381783,-,-
2019_Oct_21,19,001,1,source,31,EXCEPT,HF,target,right,yellow,pleasantness,liberal,no,8,1,0.850065842439,-,-
2019_Oct_21,19,001,1,source,32,ACROSS,HF,target,right,yellow,pleasantness,conservative,no,9,1,0.816936024319,-,-
2019_Oct_21,19,001,1,source,33,IDEAS,HF,target,left,aqua,imageability,liberal,no,2,1,0.600268942166,-,-
2019_Oct_21,19,001,1,source,34,RIVER,HF,target,left,aqua,imageability,conservative,no,1,1,0.750205299363,-,-
2019_Oct_21,19,001,1,source,35,JOBLESS,LF,target,left,aqua,imageability,liberal,no,1,1,0.716903176421,-,-
2019_Oct_21,19,001,1,source,36,SANDAL,LF,target,left,aqua,imageability,conservative,no,1,1,0.600205885933,-,-
2019_Oct_21,19,001,1,source,37,FLECKED,LF,target,right,yellow,pleasantness,liberal,yes,1,0,0.500113647862,-,-
2019_Oct_21,19,001,1,source,38,BORAX,LF,target,right,yellow,pleasantness,liberal,no,8,1,1.08345125827,-,-
2019_Oct_21,19,001,1,source,39,STICKER,LF,target,left,aqua,imageability,liberal,no,1,1,0.700093557853,-,-
2019_Oct_21,19,001,1,source,40,HOSPITAL,HF,target,right,yellow,pleasantness,conservative,no,9,1,1.44999934011,-,-
2019_Oct_21,19,001,1,source,41,GREATER,HF,target,left,aqua,imageability,conservative,no,1,1,0.466927005811,-,-
2019_Oct_21,19,001,1,source,42,TIGHTNESS,LF,target,right,yellow,pleasantness,conservative,yes,8,1,0.500303916378,-,-
2019_Oct_21,19,001,1,source,43,AUSPICES,LF,target,left,aqua,imageability,conservative,no,1,1,0.800238587189,-,-
2019_Oct_21,19,001,1,source,44,MORNING,HF,target,right,yellow,pleasantness,liberal,no,1,0,0.500088718653,-,-
2019_Oct_21,19,001,1,source,45,ATONEMENT,LF,target,right,yellow,pleasantness,conservative,no,9,1,1.21678696232,-,-
2019_Oct_21,19,001,1,source,46,UNPACK,LF,target,left,aqua,imageability,conservative,no,1,1,0.850366459363,-,-
2019_Oct_21,19,001,1,source,47,EBONY,LF,target,right,yellow,pleasantness,conservative,no,9,1,0.667000766939,-,-
2019_Oct_21,19,001,1,recog,0,FUTURE,HF,target,left,aqua,imageability,conservative,no,z,1,1.4668529514,1,131
2019_Oct_21,19,001,1,recog,1,PAYOFF,LF,lure,-,-,-,liberal,no,z,0,1.16694027695,-1,130
2019_Oct_21,19,001,1,recog,2,OPENED,HF,target,right,yellow,pleasantness,conservative,no,z,1,1.95018154329,1,131
2019_Oct_21,19,001,1,recog,3,PRIVATE,HF,target,right,yellow,pleasantness,liberal,no,z,1,0.933366425636,3,134
2019_Oct_21,19,001,1,recog,4,BLEACH,LF,lure,-,-,-,conservative,no,m,1,0.766899803645,3,137
2019_Oct_21,19,001,1,recog,5,AGONIZED,LF,target,left,aqua,imageability,conservative,no,z,1,0.833533011404,1,138
2019_Oct_21,19,001,1,recog,6,CHURCH,HF,target,left,aqua,imageability,liberal,no,z,1,0.600245479381,3,141
2019_Oct_21,19,001,1,recog,7,APPEARED,HF,lure,-,-,-,conservative,no,m,1,0.81701301158,3,144
2019_Oct_21,19,001,1,recog,8,IDEAS,HF,target,left,aqua,imageability,liberal,no,z,1,0.65023990697,3,147
2019_Oct_21,19,001,1,recog,9,SERIOUS,HF,target,left,aqua,imageability,conservative,no,z,1,0.633573997956,1,148
2019_Oct_21,19,001,1,recog,10,SLEEP,HF,lure,-,-,-,liberal,no,m,1,0.7835803769,1,149
2019_Oct_21,19,001,1,recog,11,UNGAINLY,LF,lure,-,-,-,liberal,no,m,1,1.20022810226,1,150
2019_Oct_21,19,001,1,recog,12,MOPED,LF,target,right,yellow,pleasantness,conservative,no,z,1,1.05018322968,1,151
2019_Oct_21,19,001,1,recog,13,THEORY,HF,lure,-,-,-,liberal,no,m,1,0.783571944962,1,152
2019_Oct_21,19,001,1,recog,14,RIVER,HF,target,left,aqua,imageability,conservative,no,z,1,0.616941450087,1,153
2019_Oct_21,19,001,1,recog,15,UPSTART,LF,target,right,yellow,pleasantness,liberal,no,z,1,0.650202513157,3,156
2019_Oct_21,19,001,1,recog,16,AUSPICES,LF,target,left,aqua,imageability,conservative,no,z,1,0.700244599527,1,157
2019_Oct_21,19,001,1,recog,17,SORRY,HF,lure,-,-,-,conservative,no,m,1,0.683540196882,3,160
2019_Oct_21,19,001,1,recog,18,HOSPITAL,HF,target,right,yellow,pleasantness,conservative,no,z,1,0.550203759618,1,161
2019_Oct_21,19,001,1,recog,19,TIGHTNESS,LF,target,right,yellow,pleasantness,conservative,no,z,1,0.650304796232,1,162
2019_Oct_21,19,001,1,recog,20,UNPACK,LF,target,left,aqua,imageability,conservative,no,z,1,0.566647138787,1,163
2019_Oct_21,19,001,1,recog,21,URCHIN,LF,target,left,aqua,imageability,conservative,no,z,1,0.533534184543,1,164
2019_Oct_21,19,001,1,recog,22,MORNING,HF,target,right,yellow,pleasantness,liberal,no,z,1,0.500255890992,3,167
2019_Oct_21,19,001,1,recog,23,SANDAL,LF,target,left,aqua,imageability,conservative,no,z,1,0.533625469438,1,168
2019_Oct_21,19,001,1,recog,24,PAVILIONS,LF,lure,-,-,-,conservative,no,m,1,1.60024731241,3,171
2019_Oct_21,19,001,1,recog,25,DIGESTING,LF,target,left,aqua,imageability,liberal,no,z,1,0.633612858192,3,174
2019_Oct_21,19,001,1,recog,26,USING,HF,target,left,aqua,imageability,liberal,no,z,1,0.567011911762,3,177
2019_Oct_21,19,001,1,recog,27,EXCEPT,HF,target,right,yellow,pleasantness,liberal,no,z,1,0.56696168674,3,180
2019_Oct_21,19,001,1,recog,28,AFRAID,HF,lure,-,-,-,liberal,no,z,0,1.03356387963,-1,179
2019_Oct_21,19,001,1,recog,29,RECENT,HF,lure,-,-,-,liberal,no,m,1,0.816940056985,1,180
2019_Oct_21,19,001,1,recog,30,JADED,LF,lure,-,-,-,conservative,yes,z,0,0.633637420794,-3,177
2019_Oct_21,19,001,1,recog,31,ENAMELLED,LF,lure,-,-,-,conservative,no,m,1,0.866897823974,3,180
2019_Oct_21,19,001,1,recog,32,CALLED,HF,lure,-,-,-,conservative,no,m,1,0.683597754025,3,183
2019_Oct_21,19,001,1,recog,33,COHESIVE,LF,lure,-,-,-,liberal,yes,m,1,0.683499870222,1,184
2019_Oct_21,19,001,1,recog,34,AIDING,LF,lure,-,-,-,conservative,no,z,0,0.6836083856,-3,181
2019_Oct_21,19,001,1,recog,35,FLECKED,LF,target,right,yellow,pleasantness,liberal,no,m,0,1.10022971532,-3,178
2019_Oct_21,19,001,1,recog,36,NESTING,LF,lure,-,-,-,conservative,no,z,0,0.866924586211,-3,175
2019_Oct_21,19,001,1,recog,37,HAWKED,LF,lure,-,-,-,conservative,no,m,1,0.617005972745,3,178
2019_Oct_21,19,001,1,recog,38,BORAX,LF,target,right,yellow,pleasantness,liberal,no,z,1,0.650284632902,3,181
2019_Oct_21,19,001,1,recog,39,FOUND,HF,target,right,yellow,pleasantness,liberal,no,z,1,0.633535504325,3,184
2019_Oct_21,19,001,1,recog,40,PLUGGING,LF,target,right,yellow,pleasantness,conservative,no,z,1,0.750031894723,1,185
2019_Oct_21,19,001,1,recog,41,PIECE,HF,target,left,aqua,imageability,conservative,no,z,1,0.566914394565,1,186
2019_Oct_21,19,001,1,recog,42,TOADS,LF,lure,-,-,-,conservative,no,m,1,0.733563952951,3,189
2019_Oct_21,19,001,1,recog,43,HERSELF,HF,lure,-,-,-,conservative,no,z,0,0.983607945672,-3,186
2019_Oct_21,19,001,1,recog,44,GREATER,HF,target,left,aqua,imageability,conservative,no,z,1,0.850251711684,1,187
2019_Oct_21,19,001,1,recog,45,SEGMENTED,LF,target,right,yellow,pleasantness,liberal,no,z,1,0.816942623227,3,190
2019_Oct_21,19,001,1,recog,46,STICKER,LF,target,left,aqua,imageability,liberal,no,z,1,0.483591448401,3,193
2019_Oct_21,19,001,1,recog,47,BAUXITE,LF,lure,-,-,-,liberal,no,m,1,0.683650178684,1,194
2019_Oct_21,19,001,1,recog,48,HISTORY,HF,target,right,yellow,pleasantness,conservative,no,z,1,0.516900903463,1,195
2019_Oct_21,19,001,1,recog,49,PAUNCH,LF,target,right,yellow,pleasantness,liberal,no,z,1,0.683588588875,3,198
2019_Oct_21,19,001,1,recog,50,PEOPLED,LF,target,right,yellow,pleasantness,liberal,no,z,1,0.600207718963,3,201
2019_Oct_21,19,001,1,recog,51,EIDERDOWN,LF,lure,-,-,-,conservative,no,m,1,0.616917987304,3,204
2019_Oct_21,19,001,1,recog,52,RESEARCH,HF,lure,-,-,-,liberal,no,m,1,0.783576710841,1,205
2019_Oct_21,19,001,1,recog,53,WRITE,HF,lure,-,-,-,conservative,no,m,1,1.0668861659,3,208
2019_Oct_21,19,001,1,recog,54,MUSIC,HF,lure,-,-,-,liberal,no,m,1,0.616916520879,1,209
2019_Oct_21,19,001,1,recog,55,TRYING,HF,target,left,aqua,imageability,liberal,yes,z,1,0.666812331453,3,212
2019_Oct_21,19,001,1,recog,56,SHORT,HF,lure,-,-,-,conservative,no,m,1,1.03359650756,3,215
2019_Oct_21,19,001,1,recog,57,JAILS,LF,lure,-,-,-,liberal,no,z,0,0.750242693175,-1,214
2019_Oct_21,19,001,1,recog,58,OUTSIDE,HF,lure,-,-,-,conservative,no,m,1,0.75023316142,3,217
2019_Oct_21,19,001,1,recog,59,OTHERS,HF,target,right,yellow,pleasantness,conservative,no,m,0,0.533555814298,-1,216
2019_Oct_21,19,001,1,recog,60,EIGHT,HF,lure,-,-,-,conservative,no,m,1,0.766910068613,3,219
2019_Oct_21,19,001,1,recog,61,CIRCUSES,LF,lure,-,-,-,liberal,no,m,1,0.666877220716,1,220
2019_Oct_21,19,001,1,recog,62,ADOPTIVE,LF,lure,-,-,-,liberal,no,m,1,0.616960880207,1,221
2019_Oct_21,19,001,1,recog,63,ACROSS,HF,target,right,yellow,pleasantness,conservative,no,z,1,0.833571138429,1,222
2019_Oct_21,19,001,1,recog,64,ATONEMENT,LF,target,right,yellow,pleasantness,conservative,no,z,1,0.650267769026,1,223
2019_Oct_21,19,001,1,recog,65,ARBITER,LF,target,left,aqua,imageability,conservative,no,z,1,0.550247752339,1,224
2019_Oct_21,19,001,1,recog,66,LICENSING,LF,lure,-,-,-,liberal,no,m,1,0.6835779573,1,225
2019_Oct_21,19,001,1,recog,67,SIZZLING,LF,lure,-,-,-,liberal,no,z,0,0.50028631929,-1,224
2019_Oct_21,19,001,1,recog,68,SYSTEM,HF,lure,-,-,-,liberal,no,z,0,0.616857130707,-1,223
2019_Oct_21,19,001,1,recog,69,ECONOMIC,HF,target,right,yellow,pleasantness,liberal,no,z,1,0.716802726376,3,226
2019_Oct_21,19,001,1,recog,70,SMALL,HF,target,left,aqua,imageability,liberal,no,z,1,0.666913881317,3,229
2019_Oct_21,19,001,1,recog,71,EBONY,LF,target,right,yellow,pleasantness,conservative,no,z,1,0.933320599885,1,230
2019_Oct_21,19,001,1,recog,72,NUCLEAR,HF,lure,-,-,-,liberal,no,m,1,0.683604719539,1,231
2019_Oct_21,19,001,1,recog,73,DIFFERENT,HF,lure,-,-,-,conservative,no,m,1,0.650284632903,3,234
2019_Oct_21,19,001,1,recog,74,AMONG,HF,target,right,yellow,pleasantness,conservative,no,z,1,0.666675587413,1,235
2019_Oct_21,19,001,1,recog,75,HAVING,HF,lure,-,-,-,liberal,no,m,1,0.750236460874,1,236
2019_Oct_21,19,001,1,recog,76,TABLE,HF,lure,-,-,-,liberal,no,m,1,0.600253178107,1,237
2019_Oct_21,19,001,1,recog,77,PIQUE,LF,target,left,aqua,imageability,liberal,no,z,1,0.650430175487,3,240
2019_Oct_21,19,001,1,recog,78,JOBLESS,LF,target,left,aqua,imageability,liberal,no,z,1,0.733526925745,3,243
2019_Oct_21,19,001,1,recog,79,GIMMICKS,LF,lure,-,-,-,liberal,no,m,1,0.633630455281,1,244
2019_Oct_21,19,001,1,recog,80,PENALIZED,LF,target,left,aqua,imageability,liberal,no,z,1,0.750292551593,3,247
2019_Oct_21,19,001,1,recog,81,BEHIND,HF,target,right,yellow,pleasantness,liberal,no,z,1,1.16684862545,3,250
2019_Oct_21,19,001,1,recog,82,EFFECT,HF,target,left,aqua,imageability,liberal,no,z,1,0.78355654751,3,253
2019_Oct_21,19,001,1,recog,83,CONCERNED,HF,lure,-,-,-,liberal,no,m,1,0.766886972436,1,254
2019_Oct_21,19,001,1,recog,84,PEGGED,LF,target,left,aqua,imageability,liberal,no,z,1,0.650043772757,3,257
2019_Oct_21,19,001,1,recog,85,LITANY,LF,lure,-,-,-,conservative,no,m,1,1.00030794905,3,260
2019_Oct_21,19,001,1,recog,86,GULLIBLE,LF,lure,-,-,-,conservative,no,m,1,0.833579936972,3,263
2019_Oct_21,19,001,1,recog,87,LEMURS,LF,lure,-,-,-,liberal,no,m,1,0.600141363276,1,264
2019_Oct_21,19,001,1,recog,88,DECIDED,HF,target,left,aqua,imageability,conservative,no,z,1,0.866883892945,1,265
2019_Oct_21,19,001,1,recog,89,LINEAGE,LF,lure,-,-,-,liberal,no,m,1,0.916855590962,1,266
2019_Oct_21,19,001,1,recog,90,POLICE,HF,lure,-,-,-,conservative,no,m,1,0.683576490877,3,269
2019_Oct_21,19,001,1,recog,91,IMPORTANT,HF,lure,-,-,-,conservative,no,m,1,0.683535064399,3,272
2019_Oct_21,19,001,1,recog,92,TWAIN,LF,lure,-,-,-,conservative,no,m,1,0.566921726685,3,275
2019_Oct_21,19,001,1,recog,93,JANGLING,LF,target,right,yellow,pleasantness,conservative,yes,m,0,0.616948782208,-1,274
2019_Oct_21,19,001,1,recog,94,FIGURE,HF,lure,-,-,-,conservative,no,z,0,0.933520033552,-3,271
2019_Oct_21,19,001,1,recog,95,TROUBLE,HF,lure,-,-,-,liberal,no,m,1,0.500259557052,1,272
2019_Oct_21,19,001,2,source,0,FANATICS,LF,target,right,yellow,pleasantness,conservative,no,8,1,2.60014099667,-,-
2019_Oct_21,19,001,2,source,1,REPORT,HF,target,right,yellow,pleasantness,conservative,no,2,0,1.3502403469,-,-
2019_Oct_21,19,001,2,source,2,EITHER,HF,target,left,aqua,imageability,liberal,no,1,1,1.0668982639,-,-
2019_Oct_21,19,001,2,source,3,CUDDLE,LF,target,left,aqua,imageability,liberal,no,1,1,0.683546429183,-,-
2019_Oct_21,19,001,2,source,4,CLASS,HF,target,left,aqua,imageability,liberal,no,8,0,2.13350434282,-,-
2019_Oct_21,19,001,2,source,5,ROUND,HF,target,right,yellow,pleasantness,conservative,no,8,1,0.816972318314,-,-
2019_Oct_21,19,001,2,source,6,JAMMING,LF,target,left,aqua,imageability,conservative,no,2,1,1.01681291802,-,-
2019_Oct_21,19,001,2,source,7,PLODDED,LF,target,left,aqua,imageability,conservative,no,1,1,0.766684972526,-,-
2019_Oct_21,19,001,2,source,8,SIGNPOST,LF,target,right,yellow,pleasantness,liberal,no,9,1,0.750202733121,-,-
2019_Oct_21,19,001,2,source,9,ADJOURNED,LF,target,right,yellow,pleasantness,liberal,no,9,1,0.666931478404,-,-
2019_Oct_21,19,001,2,source,10,UPLIFT,LF,target,left,aqua,imageability,conservative,no,8,0,0.833524579466,-,-
2019_Oct_21,19,001,2,source,11,ANYONE,HF,target,left,aqua,imageability,conservative,no,1,1,0.850219816961,-,-
2019_Oct_21,19,001,2,source,12,LETTER,HF,target,left,aqua,imageability,conservative,yes,2,1,0.533576710841,-,-
2019_Oct_21,19,001,2,source,13,ALLOWED,HF,target,right,yellow,pleasantness,liberal,no,8,1,0.600267475742,-,-
2019_Oct_21,19,001,2,source,14,YORKER,LF,target,right,yellow,pleasantness,liberal,no,9,1,0.700260730191,-,-
2019_Oct_21,19,001,2,source,15,GORGED,LF,target,left,aqua,imageability,liberal,no,2,1,1.65023660752,-,-
2019_Oct_21,19,001,2,source,16,BELIEVE,HF,target,left,aqua,imageability,conservative,no,8,0,0.516905302736,-,-
2019_Oct_21,19,001,2,source,17,BATCHES,LF,target,right,yellow,pleasantness,conservative,no,9,1,0.916849725266,-,-
2019_Oct_21,19,001,2,source,18,FAMILY,HF,target,left,aqua,imageability,liberal,no,1,1,0.600332365005,-,-
2019_Oct_21,19,001,2,source,19,UNLESS,HF,target,right,yellow,pleasantness,liberal,no,1,0,0.583329178465,-,-
2019_Oct_21,19,001,2,source,20,DALES,LF,target,right,yellow,pleasantness,liberal,no,8,1,0.716870548486,-,-
2019_Oct_21,19,001,2,source,21,WESTERN,HF,target,right,yellow,pleasantness,liberal,no,2,0,0.68353946367,-,-
2019_Oct_21,19,001,2,source,22,MAKES,HF,target,right,yellow,pleasantness,liberal,no,2,0,0.550358100747,-,-
2019_Oct_21,19,001,2,source,23,TYCOONS,LF,target,left,aqua,imageability,liberal,no,1,1,0.800244452885,-,-
2019_Oct_21,19,001,2,source,24,TAMING,LF,target,right,yellow,pleasantness,liberal,no,8,1,0.86687252816,-,-
2019_Oct_21,19,001,2,source,25,BULBOUS,LF,target,right,yellow,pleasantness,conservative,no,9,1,0.833564906127,-,-
2019_Oct_21,19,001,2,source,26,ANTELOPES,LF,target,left,aqua,imageability,liberal,no,1,1,0.816944089652,-,-
2019_Oct_21,19,001,2,source,27,FLOOR,HF,target,right,yellow,pleasantness,conservative,no,9,1,0.833564172915,-,-
2019_Oct_21,19,001,2,source,28,VEGAN,LF,target,right,yellow,pleasantness,conservative,no,9,1,0.566942623228,-,-
2019_Oct_21,19,001,2,source,29,GARDEN,HF,target,left,aqua,imageability,liberal,no,1,1,0.700275394432,-,-
2019_Oct_21,19,001,2,source,30,TODAY,HF,target,left,aqua,imageability,liberal,no,1,1,0.766700369978,-,-
2019_Oct_21,19,001,2,source,31,INDEED,HF,target,left,aqua,imageability,conservative,no,2,1,0.700083659491,-,-
2019_Oct_21,19,001,2,source,32,UNWARY,LF,target,left,aqua,imageability,conservative,no,1,1,0.983613444761,-,-
2019_Oct_21,19,001,2,source,33,CRONE,LF,target,right,yellow,pleasantness,conservative,no,8,1,0.716748102081,-,-
2019_Oct_21,19,001,2,source,34,HUNDRED,HF,target,right,yellow,pleasantness,liberal,yes,1,0,0.500468889081,-,-
2019_Oct_21,19,001,2,source,35,LIGHT,HF,target,right,yellow,pleasantness,liberal,no,1,0,0.600206252539,-,-
2019_Oct_21,19,001,2,source,36,TAUNTED,LF,target,left,aqua,imageability,liberal,no,9,0,1.06688359966,-,-
2019_Oct_21,19,001,2,source,37,MALIGNED,LF,target,right,yellow,pleasantness,liberal,no,2,0,0.666910215256,-,-
2019_Oct_21,19,001,2,source,38,ERRANT,LF,target,left,aqua,imageability,conservative,no,2,1,0.616933384756,-,-
2019_Oct_21,19,001,2,source,39,CASES,HF,target,left,aqua,imageability,conservative,no,8,0,0.650199580309,-,-
2019_Oct_21,19,001,2,source,40,SOYBEAN,LF,target,left,aqua,imageability,conservative,no,1,1,0.70024423292,-,-
2019_Oct_21,19,001,2,source,41,NEURAL,LF,target,left,aqua,imageability,liberal,yes,1,1,0.516913368068,-,-
2019_Oct_21,19,001,2,source,42,ENERGY,HF,target,left,aqua,imageability,liberal,no,1,1,0.766956627576,-,-
2019_Oct_21,19,001,2,source,43,LANGUAGE,HF,target,left,aqua,imageability,conservative,no,1,1,0.850271875014,-,-
2019_Oct_21,19,001,2,source,44,PLEASE,HF,target,right,yellow,pleasantness,conservative,no,8,1,0.733585582705,-,-
2019_Oct_21,19,001,2,source,45,ENTIRELY,HF,target,right,yellow,pleasantness,conservative,no,8,1,1.19997367769,-,-
2019_Oct_21,19,001,2,source,46,CYANIDE,LF,target,right,yellow,pleasantness,conservative,yes,8,1,0.450297390792,-,-
2019_Oct_21,19,001,2,source,47,EDUCATION,HF,target,right,yellow,pleasantness,conservative,no,9,1,0.883421489858,-,-
2019_Oct_21,19,001,2,recog,0,SHRED,LF,lure,-,-,-,conservative,no,m,1,1.13365538449,3,275
2019_Oct_21,19,001,2,recog,1,BLACK,HF,lure,-,-,-,conservative,no,m,1,0.65020324637,3,278
2019_Oct_21,19,001,2,recog,2,DRINK,HF,lure,-,-,-,liberal,no,m,1,0.650202146551,1,279
2019_Oct_21,19,001,2,recog,3,CRONE,LF,target,right,yellow,pleasantness,conservative,no,z,1,0.799997727043,1,280
2019_Oct_21,19,001,2,recog,4,MINISTER,HF,lure,-,-,-,liberal,no,m,1,0.966946435929,1,281
2019_Oct_21,19,001,2,recog,5,MIGHTILY,LF,lure,-,-,-,conservative,no,m,1,0.783358580267,3,284
2019_Oct_21,19,001,2,recog,6,LETTER,HF,target,left,aqua,imageability,conservative,no,z,1,0.816858303846,1,285
2019_Oct_21,19,001,2,recog,7,GAUCHE,LF,lure,-,-,-,conservative,no,m,1,0.633554567838,3,288
2019_Oct_21,19,001,2,recog,8,SOYBEAN,LF,target,left,aqua,imageability,conservative,no,z,1,0.666914614529,1,289
2019_Oct_21,19,001,2,recog,9,CLEAR,HF,lure,-,-,-,liberal,yes,z,0,0.71697576441,-1,288
2019_Oct_21,19,001,2,recog,10,ROUND,HF,target,right,yellow,pleasantness,conservative,no,m,0,0.800196794105,-1,287
2019_Oct_21,19,001,2,recog,11,EVIDENCE,HF,lure,-,-,-,liberal,no,m,1,1.00017890373,1,288
2019_Oct_21,19,001,2,recog,12,TAMING,LF,target,right,yellow,pleasantness,liberal,no,z,1,0.716913441389,3,291
2019_Oct_21,19,001,2,recog,13,FRUGAL,LF,lure,-,-,-,conservative,no,m,1,0.716857717276,3,294
2019_Oct_21,19,001,2,recog,14,EXACTLY,HF,lure,-,-,-,conservative,no,z,0,1.28350558928,-3,291
2019_Oct_21,19,001,2,recog,15,THOUSAND,HF,lure,-,-,-,liberal,no,m,1,1.3334963508,1,292
2019_Oct_21,19,001,2,recog,16,YORKER,LF,target,right,yellow,pleasantness,liberal,no,m,0,0.516865342681,-3,289
2019_Oct_21,19,001,2,recog,17,LABOUR,HF,lure,-,-,-,liberal,no,m,1,0.816712761262,1,290
2019_Oct_21,19,001,2,recog,18,CYANIDE,LF,target,right,yellow,pleasantness,conservative,no,m,0,1.18356695912,-1,289
2019_Oct_21,19,001,2,recog,19,HONKING,LF,lure,-,-,-,liberal,no,m,1,0.933356527274,1,290
2019_Oct_21,19,001,2,recog,20,INVOLVED,HF,lure,-,-,-,liberal,no,z,0,1.13356080014,-1,289
2019_Oct_21,19,001,2,recog,21,WATCH,HF,lure,-,-,-,conservative,no,m,1,0.716845619278,3,292
2019_Oct_21,19,001,2,recog,22,NEPHEWS,LF,lure,-,-,-,liberal,no,m,1,0.700259630373,1,293
2019_Oct_21,19,001,2,recog,23,ENFORCING,LF,lure,-,-,-,conservative,no,m,1,0.600201486661,3,296
2019_Oct_21,19,001,2,recog,24,UNMADE,LF,lure,-,-,-,liberal,no,m,1,0.616916154273,1,297
2019_Oct_21,19,001,2,recog,25,ATTACK,HF,lure,-,-,-,conservative,no,z,0,1.06688909875,-3,294
2019_Oct_21,19,001,2,recog,26,VOWEL,LF,lure,-,-,-,liberal,no,z,0,0.883570331895,-1,293
2019_Oct_21,19,001,2,recog,27,BATCHES,LF,target,right,yellow,pleasantness,conservative,no,z,1,0.73354122338,1,294
2019_Oct_21,19,001,2,recog,28,CLASS,HF,target,left,aqua,imageability,liberal,no,z,1,0.61691652088,3,297
2019_Oct_21,19,001,2,recog,29,FLOOR,HF,target,right,yellow,pleasantness,conservative,no,z,1,0.533588442233,1,298
2019_Oct_21,19,001,2,recog,30,FAMILY,HF,target,left,aqua,imageability,liberal,no,z,1,0.517015284538,3,301
2019_Oct_21,19,001,2,recog,31,FANATICS,LF,target,right,yellow,pleasantness,conservative,no,z,1,0.533606772532,1,302
2019_Oct_21,19,001,2,recog,32,ALLOWED,HF,target,right,yellow,pleasantness,liberal,no,z,1,0.566889098751,3,305
2019_Oct_21,19,001,2,recog,33,FRONT,HF,lure,-,-,-,conservative,no,m,1,1.10022384963,3,308
2019_Oct_21,19,001,2,recog,34,CADDIE,LF,lure,-,-,-,conservative,no,m,1,0.766859843591,3,311
2019_Oct_21,19,001,2,recog,35,JAUNDICE,LF,lure,-,-,-,liberal,no,m,1,0.866856764101,1,312
2019_Oct_21,19,001,2,recog,36,MICROCOSM,LF,lure,-,-,-,conservative,no,m,1,0.650314694595,3,315
2019_Oct_21,19,001,2,recog,37,QUICKLY,HF,lure,-,-,-,conservative,no,m,1,1.26683858044,3,318
2019_Oct_21,19,001,2,recog,38,LIGHT,HF,target,right,yellow,pleasantness,liberal,no,z,1,0.88361395801,3,321
2019_Oct_21,19,001,2,recog,39,VOICE,HF,lure,-,-,-,conservative,no,m,1,0.983513361322,3,324
2019_Oct_21,19,001,2,recog,40,ADJOURNED,LF,target,right,yellow,pleasantness,liberal,no,z,1,0.766880006922,3,327
2019_Oct_21,19,001,2,recog,41,FENCED,LF,lure,-,-,-,liberal,no,m,1,0.766904569524,1,328
2019_Oct_21,19,001,2,recog,42,HOMESTEAD,LF,lure,-,-,-,conservative,no,z,0,1.150265936,-3,325
2019_Oct_21,19,001,2,recog,43,UNLESS,HF,target,right,yellow,pleasantness,liberal,yes,z,1,0.883596360922,3,328
2019_Oct_21,19,001,2,recog,44,REPORT,HF,target,right,yellow,pleasantness,conservative,no,z,1,0.866851998223,1,329
2019_Oct_21,19,001,2,recog,45,ALONE,HF,lure,-,-,-,liberal,no,z,0,0.766945629396,-1,328
2019_Oct_21,19,001,2,recog,46,TOMBSTONE,LF,lure,-,-,-,conservative,no,m,1,0.633539536992,3,331
2019_Oct_21,19,001,2,recog,47,FECKLESS,LF,lure,-,-,-,liberal,no,m,1,0.600332731611,1,332
2019_Oct_21,19,001,2,recog,48,HUNDRED,HF,target,right,yellow,pleasantness,liberal,yes,m,0,0.516919233763,-3,329
2019_Oct_21,19,001,2,recog,49,CUDDLE,LF,target,left,aqua,imageability,liberal,no,z,1,0.583391868092,3,332
2019_Oct_21,19,001,2,recog,50,ANTELOPES,LF,target,left,aqua,imageability,liberal,no,z,1,0.566948122318,3,335
2019_Oct_21,19,001,2,recog,51,TAUNTED,LF,target,left,aqua,imageability,liberal,no,z,1,0.566910361898,3,338
2019_Oct_21,19,001,2,recog,52,SLOWLY,HF,lure,-,-,-,conservative,no,m,1,0.783626935863,3,341
2019_Oct_21,19,001,2,recog,53,ENTIRELY,HF,target,right,yellow,pleasantness,conservative,no,z,1,0.750035194176,1,342
2019_Oct_21,19,001,2,recog,54,ORDER,HF,lure,-,-,-,liberal,no,m,1,0.65001224464,1,343
2019_Oct_21,19,001,2,recog,55,JAMMING,LF,target,left,aqua,imageability,conservative,no,z,1,0.666670454929,1,344
2019_Oct_21,19,001,2,recog,56,BULBOUS,LF,target,right,yellow,pleasantness,conservative,no,z,1,0.616957580752,1,345
2019_Oct_21,19,001,2,recog,57,TYCOONS,LF,target,left,aqua,imageability,liberal,no,z,1,0.600211751628,3,348
2019_Oct_21,19,001,2,recog,58,ANYONE,HF,target,left,aqua,imageability,conservative,no,z,1,0.516962126667,1,349
2019_Oct_21,19,001,2,recog,59,DALES,LF,target,right,yellow,pleasantness,liberal,no,z,1,0.833524579466,3,352
2019_Oct_21,19,001,2,recog,60,FATHER,HF,lure,-,-,-,conservative,no,m,1,0.866903689669,3,355
2019_Oct_21,19,001,2,recog,61,ENERGY,HF,target,left,aqua,imageability,liberal,no,z,1,0.650251271756,3,358
2019_Oct_21,19,001,2,recog,62,EDUCATION,HF,target,right,yellow,pleasantness,conservative,no,z,1,0.616713787759,1,359
2019_Oct_21,19,001,2,recog,63,INDEED,HF,target,left,aqua,imageability,conservative,no,z,1,0.567012278369,1,360
2019_Oct_21,19,001,2,recog,64,LANGUAGE,HF,target,left,aqua,imageability,conservative,no,z,1,0.516914834492,1,361
2019_Oct_21,19,001,2,recog,65,RUNNING,HF,lure,-,-,-,liberal,no,m,1,0.750278253959,1,362
2019_Oct_21,19,001,2,recog,66,BELIEVE,HF,target,left,aqua,imageability,conservative,no,z,1,0.800079113576,1,363
2019_Oct_21,19,001,2,recog,67,DYNAMISM,LF,lure,-,-,-,liberal,no,m,1,0.733554054589,1,364
2019_Oct_21,19,001,2,recog,68,PEWTER,LF,lure,-,-,-,liberal,no,m,1,0.56696168674,1,365
2019_Oct_21,19,001,2,recog,69,GARDEN,HF,target,left,aqua,imageability,liberal,no,z,1,0.766900536858,3,368
2019_Oct_21,19,001,2,recog,70,PLODDED,LF,target,left,aqua,imageability,conservative,no,m,0,1.4002050794,-1,367
2019_Oct_21,19,001,2,recog,71,EITHER,HF,target,left,aqua,imageability,liberal,no,z,1,1.15021791061,3,370
2019_Oct_21,19,001,2,recog,72,POPES,LF,lure,-,-,-,conservative,no,z,0,1.26687744068,-3,367
2019_Oct_21,19,001,2,recog,73,TODAY,HF,target,left,aqua,imageability,liberal,no,z,1,0.700257797343,3,370
2019_Oct_21,19,001,2,recog,74,MALIGNED,LF,target,right,yellow,pleasantness,liberal,no,z,1,0.816933824683,3,373
2019_Oct_21,19,001,2,recog,75,SIGNPOST,LF,target,right,yellow,pleasantness,liberal,no,z,1,1.06684730567,3,376
2019_Oct_21,19,001,2,recog,76,CASES,HF,target,left,aqua,imageability,conservative,no,m,0,0.933661543469,-1,375
2019_Oct_21,19,001,2,recog,77,WESTERN,HF,target,right,yellow,pleasantness,liberal,no,z,1,0.800221356706,3,378
2019_Oct_21,19,001,2,recog,78,UPLIFT,LF,target,left,aqua,imageability,conservative,no,m,0,1.03337727717,-1,377
2019_Oct_21,19,001,2,recog,79,BOASTS,LF,lure,-,-,-,liberal,no,z,0,0.750200533485,-1,376
2019_Oct_21,19,001,2,recog,80,TIMES,HF,lure,-,-,-,conservative,no,z,0,1.5668187104,-3,373
2019_Oct_21,19,001,2,recog,81,NIGHT,HF,lure,-,-,-,conservative,no,m,1,0.466869815275,3,376
2019_Oct_21,19,001,2,recog,82,UPHEAVALS,LF,lure,-,-,-,conservative,no,m,1,0.550302376634,3,379
2019_Oct_21,19,001,2,recog,83,POWER,HF,lure,-,-,-,conservative,no,m,1,0.450230301893,3,382
2019_Oct_21,19,001,2,recog,84,SENSE,HF,lure,-,-,-,liberal,no,m,1,0.70019840717,1,383
2019_Oct_21,19,001,2,recog,85,SPUDS,LF,lure,-,-,-,liberal,no,m,1,0.60042548293,1,384
2019_Oct_21,19,001,2,recog,86,GORGED,LF,target,left,aqua,imageability,liberal,no,m,0,0.533581476719,-3,381
2019_Oct_21,19,001,2,recog,87,PLEASE,HF,target,right,yellow,pleasantness,conservative,no,z,1,0.61687142834,1,382
2019_Oct_21,19,001,2,recog,88,THING,HF,lure,-,-,-,liberal,no,m,1,0.633583529712,1,383
2019_Oct_21,19,001,2,recog,89,UNWARY,LF,target,left,aqua,imageability,conservative,no,z,1,1.06679524761,1,384
2019_Oct_21,19,001,2,recog,90,ERRANT,LF,target,left,aqua,imageability,conservative,no,m,0,0.633624222978,-1,383
2019_Oct_21,19,001,2,recog,91,MAKES,HF,target,right,yellow,pleasantness,liberal,no,z,1,0.416916447558,3,386
2019_Oct_21,19,001,2,recog,92,DAFFODILS,LF,lure,-,-,-,conservative,no,m,1,0.666906182591,3,389
2019_Oct_21,19,001,2,recog,93,NEURAL,LF,target,left,aqua,imageability,liberal,yes,m,0,0.48366586942,-3,386
2019_Oct_21,19,001,2,recog,94,NINETIES,LF,lure,-,-,-,liberal,no,z,0,0.600247679017,-1,385
2019_Oct_21,19,001,2,recog,95,VEGAN,LF,target,right,yellow,pleasantness,conservative,no,m,0,0.667003333182,-1,384
2019_Oct_21,19,001,3,source,0,EVENING,HF,target,right,yellow,pleasantness,liberal,no,2,0,2.21684048679,-,-
2019_Oct_21,19,001,3,source,1,TAGGED,LF,target,left,aqua,imageability,liberal,no,2,1,0.866891225065,-,-
2019_Oct_21,19,001,3,source,2,FASCINATE,LF,target,left,aqua,imageability,liberal,no,1,1,1.06698441631,-,-
2019_Oct_21,19,001,3,source,3,MILES,HF,target,right,yellow,pleasantness,liberal,no,9,1,4.61678747557,-,-
2019_Oct_21,19,001,3,source,4,BYGONE,LF,target,left,aqua,imageability,conservative,yes,2,1,0.833417530513,-,-
2019_Oct_21,19,001,3,source,5,MOCCASINS,LF,target,right,yellow,pleasantness,liberal,no,9,1,0.700036367316,-,-
2019_Oct_21,19,001,3,source,6,UNTIL,HF,target,left,aqua,imageability,liberal,no,1,1,0.666915714346,-,-
2019_Oct_21,19,001,3,source,7,UDDER,LF,target,right,yellow,pleasantness,liberal,no,9,1,0.650089598508,-,-
2019_Oct_21,19,001,3,source,8,SIDED,LF,target,left,aqua,imageability,conservative,no,1,1,0.783533084726,-,-
2019_Oct_21,19,001,3,source,9,PAPER,HF,target,left,aqua,imageability,liberal,no,2,1,2.33349231814,-,-
2019_Oct_21,19,001,3,source,10,RANGE,HF,target,left,aqua,imageability,liberal,no,1,1,1.08365325817,-,-
2019_Oct_21,19,001,3,source,11,HOEING,LF,target,left,aqua,imageability,conservative,no,1,1,0.700243133103,-,-
2019_Oct_21,19,001,3,source,12,TEDIUM,LF,target,left,aqua,imageability,conservative,no,1,1,0.73366770245,-,-
2019_Oct_21,19,001,3,source,13,MOISTENED,LF,target,right,yellow,pleasantness,liberal,no,9,1,0.850222016597,-,-
2019_Oct_21,19,001,3,source,14,OUGHT,HF,target,left,aqua,imageability,conservative,no,1,1,0.933578323907,-,-
2019_Oct_21,19,001,3,source,15,WEIRDLY,LF,target,left,aqua,imageability,liberal,no,8,0,0.750162773067,-,-
2019_Oct_21,19,001,3,source,16,SPICED,LF,target,right,yellow,pleasantness,conservative,yes,2,0,0.56697451795,-,-
2019_Oct_21,19,001,3,source,17,BROUGHT,HF,target,right,yellow,pleasantness,liberal,no,1,0,0.766702569615,-,-
2019_Oct_21,19,001,3,source,18,REDDENED,LF,target,left,aqua,imageability,liberal,no,1,1,0.800214757798,-,-
2019_Oct_21,19,001,3,source,19,OFTEN,HF,target,left,aqua,imageability,conservative,no,8,0,0.750193934577,-,-
2019_Oct_21,19,001,3,source,20,POETICAL,LF,target,right,yellow,pleasantness,liberal,no,9,1,0.816692597931,-,-
2019_Oct_21,19,001,3,source,21,LEVEL,HF,target,right,yellow,pleasantness,liberal,no,8,1,0.70031865394,-,-
2019_Oct_21,19,001,3,source,22,HIKING,LF,target,left,aqua,imageability,liberal,no,1,1,1.01664941174,-,-
2019_Oct_21,19,001,3,source,23,DOING,HF,target,right,yellow,pleasantness,liberal,no,2,0,0.733407045581,-,-
2019_Oct_21,19,001,3,source,24,TOWARDS,HF,target,left,aqua,imageability,conservative,yes,2,1,0.60004824535,-,-
2019_Oct_21,19,001,3,source,25,CHEEKBONE,LF,target,left,aqua,imageability,liberal,no,1,1,0.683383289512,-,-
2019_Oct_21,19,001,3,source,26,BEREAVED,LF,target,right,yellow,pleasantness,conservative,no,9,1,0.983603179794,-,-
2019_Oct_21,19,001,3,source,27,PRACTICE,HF,target,left,aqua,imageability,conservative,no,1,1,0.800033287825,-,-
2019_Oct_21,19,001,3,source,28,SUSPEND,LF,target,right,yellow,pleasantness,conservative,no,2,0,0.683581623361,-,-
2019_Oct_21,19,001,3,source,29,CANNOT,HF,target,left,aqua,imageability,conservative,no,1,1,1.15023367467,-,-
2019_Oct_21,19,001,3,source,30,PLYWOOD,LF,target,right,yellow,pleasantness,liberal,yes,1,0,0.500049858416,-,-
2019_Oct_21,19,001,3,source,31,ROBBERIES,LF,target,right,yellow,pleasantness,liberal,no,9,1,0.850193054723,-,-
2019_Oct_21,19,001,3,source,32,YOUNG,HF,target,left,aqua,imageability,liberal,no,2,1,1.10022568266,-,-
2019_Oct_21,19,001,3,source,33,KERNEL,LF,target,right,yellow,pleasantness,conservative,no,8,1,1.51684261311,-,-
2019_Oct_21,19,001,3,source,34,SHALL,HF,target,right,yellow,pleasantness,liberal,no,9,1,0.933566959121,-,-
2019_Oct_21,19,001,3,source,35,LUSCIOUS,LF,target,left,aqua,imageability,conservative,no,1,1,0.833552441522,-,-
2019_Oct_21,19,001,3,source,36,STUDENT,HF,target,right,yellow,pleasantness,conservative,no,9,1,0.683617184143,-,-
2019_Oct_21,19,001,3,source,37,PREPARED,HF,target,left,aqua,imageability,liberal,no,1,1,0.80002925516,-,-
2019_Oct_21,19,001,3,source,38,GROUND,HF,target,right,yellow,pleasantness,conservative,no,9,1,0.699996040656,-,-
2019_Oct_21,19,001,3,source,39,WALKED,HF,target,right,yellow,pleasantness,conservative,no,2,0,0.966988962226,-,-
2019_Oct_21,19,001,3,source,40,ROYALS,LF,target,right,yellow,pleasantness,conservative,no,2,0,0.716699710089,-,-
2019_Oct_21,19,001,3,source,41,SUPPORT,HF,target,left,aqua,imageability,conservative,no,2,1,1.30021365798,-,-
2019_Oct_21,19,001,3,source,42,TURNED,HF,target,left,aqua,imageability,liberal,no,8,0,0.750196867425,-,-
2019_Oct_21,19,001,3,source,43,INUNDATED,LF,target,right,yellow,pleasantness,conservative,no,9,1,0.766701103191,-,-
2019_Oct_21,19,001,3,source,44,SAYING,HF,target,right,yellow,pleasantness,conservative,no,2,0,0.616882426521,-,-
2019_Oct_21,19,001,3,source,45,TRADE,HF,target,right,yellow,pleasantness,conservative,no,1,0,0.667006266031,-,-
2019_Oct_21,19,001,3,source,46,UNOPENED,LF,target,left,aqua,imageability,conservative,no,2,1,0.766959193818,-,-
2019_Oct_21,19,001,3,source,47,HIMSELF,HF,target,right,yellow,pleasantness,conservative,no,1,0,0.81690376299,-,-
2019_Oct_21,19,001,3,recog,0,MEANS,HF,lure,-,-,-,liberal,no,m,1,1.10027627429,1,385
2019_Oct_21,19,001,3,recog,1,UNTIL,HF,target,left,aqua,imageability,liberal,no,m,0,0.600202586479,-3,382
2019_Oct_21,19,001,3,recog,2,FASCINATE,LF,target,left,aqua,imageability,liberal,no,z,1,0.633628255645,3,385
2019_Oct_21,19,001,3,recog,3,DISARMED,LF,lure,-,-,-,conservative,no,m,1,0.816965719406,3,388
2019_Oct_21,19,001,3,recog,4,TAGGED,LF,target,left,aqua,imageability,liberal,no,z,1,0.666966305975,3,391
2019_Oct_21,19,001,3,recog,5,PHYSICAL,HF,lure,-,-,-,conservative,no,m,1,0.800236387552,3,394
2019_Oct_21,19,001,3,recog,6,SHALL,HF,target,right,yellow,pleasantness,liberal,no,z,1,0.716911974965,3,397
2019_Oct_21,19,001,3,recog,7,SIDED,LF,target,left,aqua,imageability,conservative,no,z,1,0.800234187916,1,398
2019_Oct_21,19,001,3,recog,8,DEPARTS,LF,lure,-,-,-,liberal,no,m,1,0.783374344325,1,399
2019_Oct_21,19,001,3,recog,9,DEGREE,HF,lure,-,-,-,conservative,no,m,1,0.633607359102,3,402
2019_Oct_21,19,001,3,recog,10,TURNED,HF,target,left,aqua,imageability,liberal,no,z,1,0.783526485818,3,405
2019_Oct_21,19,001,3,recog,11,INUNDATED,LF,target,right,yellow,pleasantness,conservative,no,z,1,0.650310661929,1,406
2019_Oct_21,19,001,3,recog,12,WIZENED,LF,lure,-,-,-,liberal,no,m,1,0.61696234663,1,407
2019_Oct_21,19,001,3,recog,13,MOCCASINS,LF,target,right,yellow,pleasantness,liberal,no,z,1,0.566964986194,3,410
2019_Oct_21,19,001,3,recog,14,NUTSHELL,LF,lure,-,-,-,liberal,no,z,0,0.666867322354,-1,409
2019_Oct_21,19,001,3,recog,15,LUSCIOUS,LF,target,left,aqua,imageability,conservative,no,z,1,0.65023990697,1,410
2019_Oct_21,19,001,3,recog,16,ROYALS,LF,target,right,yellow,pleasantness,conservative,no,z,1,0.700217104077,1,411
2019_Oct_21,19,001,3,recog,17,STUDENT,HF,target,right,yellow,pleasantness,conservative,no,z,1,0.616940716876,1,412
2019_Oct_21,19,001,3,recog,18,HIKING,LF,target,left,aqua,imageability,liberal,yes,z,1,0.583480953352,3,415
2019_Oct_21,19,001,3,recog,19,MOTHER,HF,lure,-,-,-,conservative,no,m,1,1.26665747708,3,418
2019_Oct_21,19,001,3,recog,20,QUALITY,HF,lure,-,-,-,conservative,no,m,1,0.650251638362,3,421
2019_Oct_21,19,001,3,recog,21,UNOPENED,LF,target,left,aqua,imageability,conservative,no,z,1,0.683416650659,1,422
2019_Oct_21,19,001,3,recog,22,POSITION,HF,lure,-,-,-,conservative,no,z,0,0.78353088509,-3,419
2019_Oct_21,19,001,3,recog,23,PICTURE,HF,lure,-,-,-,liberal,no,m,1,0.933658977227,1,420
2019_Oct_21,19,001,3,recog,24,GROUND,HF,target,right,yellow,pleasantness,conservative,no,m,0,0.616904789488,-1,419
2019_Oct_21,19,001,3,recog,25,BIOLOGIST,LF,lure,-,-,-,conservative,no,z,0,0.616916154273,-3,416
2019_Oct_21,19,001,3,recog,26,NECESSARY,HF,lure,-,-,-,liberal,no,z,0,1.45024789898,-1,415
2019_Oct_21,19,001,3,recog,27,TEDIUM,LF,target,left,aqua,imageability,conservative,no,z,1,0.666876120898,1,416
2019_Oct_21,19,001,3,recog,28,UNKEMPT,LF,lure,-,-,-,conservative,no,m,1,0.700246432557,3,419
2019_Oct_21,19,001,3,recog,29,ANNALS,LF,lure,-,-,-,conservative,no,m,1,0.766837480625,3,422
2019_Oct_21,19,001,3,recog,30,UDDER,LF,target,right,yellow,pleasantness,liberal,no,z,1,0.716907575693,3,425
2019_Oct_21,19,001,3,recog,31,VOYAGES,LF,lure,-,-,-,conservative,no,m,1,0.633421123252,3,428
2019_Oct_21,19,001,3,recog,32,EVENING,HF,target,right,yellow,pleasantness,liberal,no,z,1,0.73355772065,3,431
2019_Oct_21,19,001,3,recog,33,INCLUDING,HF,lure,-,-,-,liberal,no,m,1,0.75027532111,1,432
2019_Oct_21,19,001,3,recog,34,MEMBERS,HF,lure,-,-,-,conservative,no,z,0,0.700216370864,-3,429
2019_Oct_21,19,001,3,recog,35,DOING,HF,target,right,yellow,pleasantness,liberal,no,m,0,1.23356871883,-3,426
2019_Oct_21,19,001,3,recog,36,DIMMED,LF,lure,-,-,-,conservative,no,m,1,0.916855590962,3,429
2019_Oct_21,19,001,3,recog,37,CANNOT,HF,target,left,aqua,imageability,conservative,no,z,1,0.750200166879,1,430
2019_Oct_21,19,001,3,recog,38,POETICAL,LF,target,right,yellow,pleasantness,liberal,no,z,1,0.700240566861,3,433
2019_Oct_21,19,001,3,recog,39,MOISTENED,LF,target,right,yellow,pleasantness,liberal,no,z,1,0.500302816561,3,436
2019_Oct_21,19,001,3,recog,40,BUOYANCY,LF,lure,-,-,-,liberal,yes,m,1,0.616911388396,1,437
2019_Oct_21,19,001,3,recog,41,PARENTS,HF,lure,-,-,-,conservative,no,m,1,1.40033595774,3,440
2019_Oct_21,19,001,3,recog,42,SICKENED,LF,lure,-,-,-,conservative,no,m,1,0.500195767608,3,443
2019_Oct_21,19,001,3,recog,43,MILES,HF,target,right,yellow,pleasantness,liberal,no,z,1,0.58362246327,3,446
2019_Oct_21,19,001,3,recog,44,TOWARDS,HF,target,left,aqua,imageability,conservative,no,z,1,0.683622316627,1,447
2019_Oct_21,19,001,3,recog,45,BYGONE,LF,target,left,aqua,imageability,conservative,no,m,0,0.783575244416,-1,446
2019_Oct_21,19,001,3,recog,46,BECAME,HF,lure,-,-,-,conservative,no,m,1,0.950227735651,3,449
2019_Oct_21,19,001,3,recog,47,BUILDING,HF,lure,-,-,-,conservative,no,m,1,0.883630821886,3,452
2019_Oct_21,19,001,3,recog,48,WALKED,HF,target,right,yellow,pleasantness,conservative,no,z,1,0.850204786115,1,453
2019_Oct_21,19,001,3,recog,49,USUAL,HF,lure,-,-,-,liberal,yes,m,1,0.550282213303,1,454
2019_Oct_21,19,001,3,recog,50,HIMSELF,HF,target,right,yellow,pleasantness,conservative,no,m,0,2.10014392952,-1,453
2019_Oct_21,19,001,3,recog,51,HANDS,HF,lure,-,-,-,liberal,no,m,1,0.800405392921,1,454
2019_Oct_21,19,001,3,recog,52,BIGNESS,LF,lure,-,-,-,liberal,no,m,1,0.600341530155,1,455
2019_Oct_21,19,001,3,recog,53,PREPARED,HF,target,left,aqua,imageability,liberal,no,z,1,0.733419143579,3,458
2019_Oct_21,19,001,3,recog,54,SAYING,HF,target,right,yellow,pleasantness,conservative,no,m,0,0.783564979449,-1,457
2019_Oct_21,19,001,3,recog,55,AUBURN,LF,lure,-,-,-,liberal,no,z,0,0.666886385867,-1,456
2019_Oct_21,19,001,3,recog,56,OUGHT,HF,target,left,aqua,imageability,conservative,no,z,1,0.683598853843,1,457
2019_Oct_21,19,001,3,recog,57,PLYWOOD,LF,target,right,yellow,pleasantness,liberal,no,z,1,0.51666810865,3,460
2019_Oct_21,19,001,3,recog,58,WEIRDLY,LF,target,left,aqua,imageability,liberal,no,z,1,0.516878173891,3,463
2019_Oct_21,19,001,3,recog,59,REDDENED,LF,target,left,aqua,imageability,liberal,no,z,1,0.533570478538,3,466
2019_Oct_21,19,001,3,recog,60,BEREAVED,LF,target,right,yellow,pleasantness,conservative,no,z,1,0.633546135899,1,467
2019_Oct_21,19,001,3,recog,61,ANIMAL,HF,lure,-,-,-,liberal,no,m,1,0.716910141935,1,468
2019_Oct_21,19,001,3,recog,62,TASSELS,LF,lure,-,-,-,conservative,no,z,0,0.85026307647,-3,465
2019_Oct_21,19,001,3,recog,63,MENFOLK,LF,lure,-,-,-,liberal,yes,m,1,0.666904716166,1,466
2019_Oct_21,19,001,3,recog,64,RANGE,HF,target,left,aqua,imageability,liberal,no,z,1,0.800132271447,3,469
2019_Oct_21,19,001,3,recog,65,SCHOOL,HF,lure,-,-,-,liberal,no,z,0,0.600325766097,-1,468
2019_Oct_21,19,001,3,recog,66,OFTEN,HF,target,left,aqua,imageability,conservative,no,m,0,0.61689085846,-1,467
2019_Oct_21,19,001,3,recog,67,HIGHER,HF,lure,-,-,-,liberal,no,z,0,0.666833227995,-1,466
2019_Oct_21,19,001,3,recog,68,ROBBERIES,LF,target,right,yellow,pleasantness,liberal,no,z,1,0.683578690512,3,469
2019_Oct_21,19,001,3,recog,69,TRADE,HF,target,right,yellow,pleasantness,conservative,no,z,1,0.583669388839,1,470
2019_Oct_21,19,001,3,recog,70,PETERED,LF,lure,-,-,-,liberal,no,m,1,0.800305676087,1,471
2019_Oct_21,19,001,3,recog,71,SUSPEND,LF,target,right,yellow,pleasantness,conservative,no,z,1,1.08334824198,1,472
2019_Oct_21,19,001,3,recog,72,SPICED,LF,target,right,yellow,pleasantness,conservative,no,z,1,0.716866882427,1,473
2019_Oct_21,19,001,3,recog,73,LAYERED,LF,lure,-,-,-,liberal,no,m,1,0.68353396458,1,474
2019_Oct_21,19,001,3,recog,74,HOEING,LF,target,left,aqua,imageability,conservative,no,z,1,0.633413791132,1,475
2019_Oct_21,19,001,3,recog,75,PAPER,HF,target,left,aqua,imageability,liberal,no,m,0,1.33354290977,-3,472
2019_Oct_21,19,001,3,recog,76,CHEEKBONE,LF,target,left,aqua,imageability,liberal,no,z,1,0.666927445738,3,475
2019_Oct_21,19,001,3,recog,77,DEFEATING,LF,lure,-,-,-,conservative,no,m,1,0.716896577514,3,478
2019_Oct_21,19,001,3,recog,78,KERNEL,LF,target,right,yellow,pleasantness,conservative,no,z,1,0.783568278902,1,479
2019_Oct_21,19,001,3,recog,79,REBATE,LF,lure,-,-,-,liberal,no,m,1,0.666921580043,1,480
2019_Oct_21,19,001,3,recog,80,MOVED,HF,lure,-,-,-,conservative,no,m,1,0.833519446983,3,483
2019_Oct_21,19,001,3,recog,81,VOLITION,LF,lure,-,-,-,conservative,no,m,1,0.78353638418,3,486
2019_Oct_21,19,001,3,recog,82,BROUGHT,HF,target,right,yellow,pleasantness,liberal,no,z,1,1.03355911375,3,489
2019_Oct_21,19,001,3,recog,83,OLDER,HF,lure,-,-,-,liberal,no,m,1,0.833642626601,1,490
2019_Oct_21,19,001,3,recog,84,PRACTICE,HF,target,left,aqua,imageability,conservative,no,z,1,1.38359636092,1,491
2019_Oct_21,19,001,3,recog,85,FOLLOWED,HF,lure,-,-,-,liberal,no,m,1,0.66690984865,1,492
2019_Oct_21,19,001,3,recog,86,SUPPORT,HF,target,left,aqua,imageability,conservative,no,m,0,0.916901416712,-1,491
2019_Oct_21,19,001,3,recog,87,ARMAMENT,LF,lure,-,-,-,liberal,no,z,0,0.983603179794,-1,490
2019_Oct_21,19,001,3,recog,88,FEIGNED,LF,lure,-,-,-,conservative,no,m,1,0.633585729348,3,493
2019_Oct_21,19,001,3,recog,89,PLACE,HF,lure,-,-,-,conservative,no,m,1,0.583649225508,3,496
2019_Oct_21,19,001,3,recog,90,YOUNG,HF,target,left,aqua,imageability,liberal,no,z,1,0.650095464204,3,499
2019_Oct_21,19,001,3,recog,91,ORPHANAGE,LF,lure,-,-,-,conservative,no,m,1,0.600256844168,3,502
2019_Oct_21,19,001,3,recog,92,HICKORY,LF,lure,-,-,-,liberal,no,m,1,0.633550535171,1,503
2019_Oct_21,19,001,3,recog,93,ASKED,HF,lure,-,-,-,conservative,no,m,1,0.516880373528,3,506
2019_Oct_21,19,001,3,recog,94,LEVEL,HF,target,right,yellow,pleasantness,liberal,no,m,0,0.566958753891,-3,503
2019_Oct_21,19,001,3,recog,95,DAUGHTER,HF,lure,-,-,-,liberal,no,m,1,0.783527952241,1,504
2019_Oct_21,19,001,4,source,0,BIBLES,LF,target,left,aqua,imageability,conservative,no,1,1,1.23355148835,-,-
2019_Oct_21,19,001,4,source,1,MAJOR,HF,target,left,aqua,imageability,liberal,no,1,1,0.650260436906,-,-
2019_Oct_21,19,001,4,source,2,CUFFED,LF,target,right,yellow,pleasantness,liberal,no,9,1,0.583576270913,-,-
2019_Oct_21,19,001,4,source,3,BOILERS,LF,target,left,aqua,imageability,liberal,no,1,1,0.750245259417,-,-
2019_Oct_21,19,001,4,source,4,MAYBE,HF,target,right,yellow,pleasantness,liberal,no,9,1,0.783360046691,-,-
2019_Oct_21,19,001,4,source,5,PEACEABLY,LF,target,left,aqua,imageability,conservative,no,1,1,0.883518640449,-,-
2019_Oct_21,19,001,4,source,6,BOOKS,HF,target,right,yellow,pleasantness,conservative,no,1,0,1.95017787723,-,-
2019_Oct_21,19,001,4,source,7,PALATABLE,LF,target,right,yellow,pleasantness,conservative,no,9,1,0.833639693752,-,-
2019_Oct_21,19,001,4,source,8,LIQUEUR,LF,target,right,yellow,pleasantness,conservative,no,9,1,0.666766139097,-,-
2019_Oct_21,19,001,4,source,9,NUANCE,LF,target,left,aqua,imageability,liberal,no,8,0,0.866853464647,-,-
2019_Oct_21,19,001,4,source,10,CHAIR,HF,target,left,aqua,imageability,conservative,no,1,1,0.68357062518,-,-
2019_Oct_21,19,001,4,source,11,CERTAIN,HF,target,right,yellow,pleasantness,conservative,no,2,0,0.650283166478,-,-
2019_Oct_21,19,001,4,source,12,TESTIFIES,LF,target,right,yellow,pleasantness,liberal,no,1,0,0.683539830276,-,-
2019_Oct_21,19,001,4,source,13,LIKELY,HF,target,left,aqua,imageability,conservative,no,2,1,0.566949222136,-,-
2019_Oct_21,19,001,4,source,14,ADDED,HF,target,left,aqua,imageability,conservative,no,2,1,0.783604572896,-,-
2019_Oct_21,19,001,4,source,15,LUGGED,LF,target,left,aqua,imageability,liberal,no,8,0,0.700201706624,-,-
2019_Oct_21,19,001,4,source,16,CULINARY,LF,target,left,aqua,imageability,liberal,no,1,1,0.766674340953,-,-
2019_Oct_21,19,001,4,source,17,UNDER,HF,target,right,yellow,pleasantness,liberal,no,8,1,0.683418483689,-,-
2019_Oct_21,19,001,4,source,18,WAITING,HF,target,right,yellow,pleasantness,conservative,no,9,1,0.800238953795,-,-
2019_Oct_21,19,001,4,source,19,TRUTH,HF,target,left,aqua,imageability,conservative,no,1,1,0.600303036525,-,-
2019_Oct_21,19,001,4,source,20,MOMENT,HF,target,left,aqua,imageability,liberal,no,8,0,0.717001793437,-,-
2019_Oct_21,19,001,4,source,21,INNATELY,LF,target,left,aqua,imageability,conservative,no,2,1,0.683584556209,-,-
2019_Oct_21,19,001,4,source,22,INTEREST,HF,target,left,aqua,imageability,liberal,no,1,1,0.750226562511,-,-
2019_Oct_21,19,001,4,source,23,POTASH,LF,target,left,aqua,imageability,liberal,no,2,1,0.766998054055,-,-
2019_Oct_21,19,001,4,source,24,ITSELF,HF,target,left,aqua,imageability,liberal,no,8,0,0.700354214723,-,-
2019_Oct_21,19,001,4,source,25,MISFITS,LF,target,left,aqua,imageability,liberal,no,2,1,0.900209845277,-,-
2019_Oct_21,19,001,4,source,26,WOMAN,HF,target,right,yellow,pleasantness,conservative,no,8,1,0.800289545423,-,-
2019_Oct_21,19,001,4,source,27,LOYALIST,LF,target,right,yellow,pleasantness,liberal,no,9,1,0.800031088189,-,-
2019_Oct_21,19,001,4,source,28,TALKING,HF,target,right,yellow,pleasantness,liberal,yes,1,0,0.550205226042,-,-
2019_Oct_21,19,001,4,source,29,FREEDOM,HF,target,left,aqua,imageability,conservative,no,2,1,0.466932871508,-,-
2019_Oct_21,19,001,4,source,30,SLIGHTLY,HF,target,right,yellow,pleasantness,liberal,yes,8,1,0.716868348851,-,-
2019_Oct_21,19,001,4,source,31,SUAVE,LF,target,left,aqua,imageability,conservative,yes,2,1,0.483383949402,-,-
2019_Oct_21,19,001,4,source,32,ALTHOUGH,HF,target,left,aqua,imageability,liberal,no,1,1,0.700037467133,-,-
2019_Oct_21,19,001,4,source,33,UNCANNILY,LF,target,left,aqua,imageability,conservative,no,1,1,0.916952374948,-,-
2019_Oct_21,19,001,4,source,34,DUMMIES,LF,target,right,yellow,pleasantness,liberal,no,8,1,0.583614764544,-,-
2019_Oct_21,19,001,4,source,35,HEDGED,LF,target,right,yellow,pleasantness,conservative,no,2,0,0.53342346953,-,-
2019_Oct_21,19,001,4,source,36,DICHOTOMY,LF,target,right,yellow,pleasantness,conservative,no,9,1,0.616797373928,-,-
2019_Oct_21,19,001,4,source,37,CAUGHT,HF,target,right,yellow,pleasantness,liberal,no,1,0,0.550242253248,-,-
2019_Oct_21,19,001,4,source,38,FLYWHEEL,LF,target,right,yellow,pleasantness,liberal,no,9,1,0.866933384757,-,-
2019_Oct_21,19,001,4,source,39,GYPSIES,LF,target,right,yellow,pleasantness,liberal,no,9,1,0.633600026982,-,-
2019_Oct_21,19,001,4,source,40,MIDDLE,HF,target,right,yellow,pleasantness,conservative,no,2,0,0.833577737337,-,-
2019_Oct_21,19,001,4,source,41,IGNOBLE,LF,target,right,yellow,pleasantness,conservative,yes,9,1,0.600206619145,-,-
2019_Oct_21,19,001,4,source,42,OBVIOUSLY,HF,target,left,aqua,imageability,conservative,no,1,1,0.73359621428,-,-
2019_Oct_21,19,001,4,source,43,BREAK,HF,target,left,aqua,imageability,liberal,no,8,0,0.700248998799,-,-
2019_Oct_21,19,001,4,source,44,NATIONAL,HF,target,right,yellow,pleasantness,conservative,no,1,0,0.933524432824,-,-
2019_Oct_21,19,001,4,source,45,FOAMING,LF,target,right,yellow,pleasantness,conservative,no,8,1,0.833551341705,-,-
2019_Oct_21,19,001,4,source,46,MODERN,HF,target,right,yellow,pleasantness,liberal,no,2,0,0.816718260351,-,-
2019_Oct_21,19,001,4,source,47,TACITLY,LF,target,left,aqua,imageability,conservative,no,2,1,0.550306042694,-,-
2019_Oct_21,19,001,4,recog,0,JUMBO,LF,lure,-,-,-,liberal,no,m,1,0.933602886509,1,505
2019_Oct_21,19,001,4,recog,1,LIQUEUR,LF,target,right,yellow,pleasantness,conservative,no,z,1,0.666927812345,1,506
2019_Oct_21,19,001,4,recog,2,PASSED,HF,lure,-,-,-,conservative,no,m,1,0.733580450222,3,509
2019_Oct_21,19,001,4,recog,3,HAPPEN,HF,lure,-,-,-,liberal,no,m,1,0.566967552436,1,510
2019_Oct_21,19,001,4,recog,4,WHATEVER,HF,lure,-,-,-,conservative,no,m,1,0.666953108159,3,513
2019_Oct_21,19,001,4,recog,5,PROBABLY,HF,lure,-,-,-,conservative,no,m,1,0.566873334692,3,516
2019_Oct_21,19,001,4,recog,6,ABBOT,LF,lure,-,-,-,conservative,no,z,0,0.850066942256,-3,513
2019_Oct_21,19,001,4,recog,7,CAUGHT,HF,target,right,yellow,pleasantness,liberal,no,m,0,0.500389335578,-3,510
2019_Oct_21,19,001,4,recog,8,PURCHASER,LF,lure,-,-,-,conservative,no,m,1,1.15020837885,3,513
2019_Oct_21,19,001,4,recog,9,WHITE,HF,lure,-,-,-,liberal,no,m,1,0.583578837155,1,514
2019_Oct_21,19,001,4,recog,10,DICHOTOMY,LF,target,right,yellow,pleasantness,conservative,no,z,1,0.783566445873,1,515
2019_Oct_21,19,001,4,recog,11,MISFITS,LF,target,left,aqua,imageability,liberal,no,z,1,0.750236094267,3,518
2019_Oct_21,19,001,4,recog,12,IGNOBLE,LF,target,right,yellow,pleasantness,conservative,no,m,0,0.65008483263,-1,517
2019_Oct_21,19,001,4,recog,13,FLYWHEEL,LF,target,right,yellow,pleasantness,liberal,no,m,0,0.666881619988,-3,514
2019_Oct_21,19,001,4,recog,14,BUNGALOWS,LF,lure,-,-,-,conservative,no,m,1,0.900255671028,3,517
2019_Oct_21,19,001,4,recog,15,ANAEMIC,LF,lure,-,-,-,liberal,no,m,1,0.567017410853,1,518
2019_Oct_21,19,001,4,recog,16,TALKING,HF,target,right,yellow,pleasantness,liberal,no,z,1,0.73361637761,3,521
2019_Oct_21,19,001,4,recog,17,BOILERS,LF,target,left,aqua,imageability,liberal,no,z,1,0.600235214413,3,524
2019_Oct_21,19,001,4,recog,18,UNCANNILY,LF,target,left,aqua,imageability,conservative,no,z,1,0.683579423725,1,525
2019_Oct_21,19,001,4,recog,19,TRIED,HF,lure,-,-,-,liberal,no,z,0,1.05022795561,-1,524
2019_Oct_21,19,001,4,recog,20,TESTIFIES,LF,target,right,yellow,pleasantness,liberal,no,m,0,0.583612564908,-3,521
2019_Oct_21,19,001,4,recog,21,TEETERED,LF,lure,-,-,-,conservative,no,m,1,0.90022890879,3,524
2019_Oct_21,19,001,4,recog,22,DOCTOR,HF,lure,-,-,-,conservative,no,m,1,0.616910288578,3,527
2019_Oct_21,19,001,4,recog,23,NUANCE,LF,target,left,aqua,imageability,liberal,no,z,1,0.750202366515,3,530
2019_Oct_21,19,001,4,recog,24,MATERIAL,HF,lure,-,-,-,liberal,no,m,1,0.633540636809,1,531
2019_Oct_21,19,001,4,recog,25,DEVELOPED,HF,lure,-,-,-,liberal,yes,m,1,0.683670342014,1,532
2019_Oct_21,19,001,4,recog,26,OBESE,LF,lure,-,-,-,liberal,no,z,0,0.750248925478,-1,531
2019_Oct_21,19,001,4,recog,27,FUSELAGE,LF,lure,-,-,-,conservative,no,m,1,0.617007439169,3,534
2019_Oct_21,19,001,4,recog,28,TACITLY,LF,target,left,aqua,imageability,conservative,no,z,1,0.616873994582,1,535
2019_Oct_21,19,001,4,recog,29,SOVIET,HF,lure,-,-,-,conservative,no,m,1,0.750230595178,3,538
2019_Oct_21,19,001,4,recog,30,MIDDLE,HF,target,right,yellow,pleasantness,conservative,no,z,1,0.66700626603,1,539
2019_Oct_21,19,001,4,recog,31,FURTHER,HF,lure,-,-,-,conservative,no,m,1,0.750195767607,3,542
2019_Oct_21,19,001,4,recog,32,RATHER,HF,lure,-,-,-,liberal,no,m,1,0.716866882426,1,543
2019_Oct_21,19,001,4,recog,33,AFIELD,LF,lure,-,-,-,conservative,no,m,1,0.550276347607,3,546
2019_Oct_21,19,001,4,recog,34,GYPSIES,LF,target,right,yellow,pleasantness,liberal,no,z,1,0.617010738622,3,549
2019_Oct_21,19,001,4,recog,35,BUGGED,LF,lure,-,-,-,conservative,no,z,0,0.583588368911,-3,546
2019_Oct_21,19,001,4,recog,36,OBVIOUSLY,HF,target,left,aqua,imageability,conservative,no,m,0,0.633533304689,-1,545
2019_Oct_21,19,001,4,recog,37,COUNCIL,HF,lure,-,-,-,conservative,no,m,1,0.766909702008,3,548
2019_Oct_21,19,001,4,recog,38,ENROLMENT,LF,lure,-,-,-,conservative,no,m,1,0.683630381959,3,551
2019_Oct_21,19,001,4,recog,39,SLIGHTLY,HF,target,right,yellow,pleasantness,liberal,no,z,1,0.583587269093,3,554
2019_Oct_21,19,001,4,recog,40,EUPHEMISM,LF,lure,-,-,-,conservative,no,m,1,0.750303916378,3,557
2019_Oct_21,19,001,4,recog,41,ALTHOUGH,HF,target,left,aqua,imageability,liberal,no,z,1,0.666876487504,3,560
2019_Oct_21,19,001,4,recog,42,FREEDOM,HF,target,left,aqua,imageability,conservative,no,z,1,0.583566005946,1,561
2019_Oct_21,19,001,4,recog,43,CERTAIN,HF,target,right,yellow,pleasantness,conservative,no,z,1,0.583591301759,1,562
2019_Oct_21,19,001,4,recog,44,UNDER,HF,target,right,yellow,pleasantness,liberal,no,z,1,0.533379476809,3,565
2019_Oct_21,19,001,4,recog,45,CUFFED,LF,target,right,yellow,pleasantness,liberal,no,z,1,0.483546722468,3,568
2019_Oct_21,19,001,4,recog,46,ASPIRED,LF,lure,-,-,-,liberal,no,m,1,0.767025182899,1,569
2019_Oct_21,19,001,4,recog,47,STRAIGHT,HF,lure,-,-,-,liberal,no,m,1,0.766814751053,1,570
2019_Oct_21,19,001,4,recog,48,TWOFOLD,LF,lure,-,-,-,liberal,no,m,1,0.633428455371,1,571
2019_Oct_21,19,001,4,recog,49,BIBLES,LF,target,left,aqua,imageability,conservative,no,z,1,0.650328259017,1,572
2019_Oct_21,19,001,4,recog,50,ADDED,HF,target,left,aqua,imageability,conservative,no,m,0,0.650228175578,-1,571
2019_Oct_21,19,001,4,recog,51,INTEREST,HF,target,left,aqua,imageability,liberal,no,m,0,0.850287272466,-3,568
2019_Oct_21,19,001,4,recog,52,TREES,HF,lure,-,-,-,conservative,no,z,0,0.83359680085,-3,565
2019_Oct_21,19,001,4,recog,53,INNATELY,LF,target,left,aqua,imageability,conservative,no,m,0,0.616867762281,-1,564
2019_Oct_21,19,001,4,recog,54,MODERN,HF,target,right,yellow,pleasantness,liberal,no,z,1,0.600247312411,3,567
2019_Oct_21,19,001,4,recog,55,VILLAGE,HF,lure,-,-,-,liberal,no,m,1,0.750239760328,1,568
2019_Oct_21,19,001,4,recog,56,FOAMING,LF,target,right,yellow,pleasantness,conservative,no,m,0,0.633646952551,-1,567
2019_Oct_21,19,001,4,recog,57,PERHAPS,HF,lure,-,-,-,conservative,no,m,1,0.883566665836,3,570
2019_Oct_21,19,001,4,recog,58,SMUDGE,LF,lure,-,-,-,liberal,no,z,0,2.4668166574,-1,569
2019_Oct_21,19,001,4,recog,59,SEWED,LF,lure,-,-,-,conservative,no,m,1,0.500246725842,3,572
2019_Oct_21,19,001,4,recog,60,CULINARY,LF,target,left,aqua,imageability,liberal,no,z,1,0.633576564198,3,575
2019_Oct_21,19,001,4,recog,61,PHANTOMS,LF,lure,-,-,-,liberal,yes,m,1,0.716944236294,1,576
2019_Oct_21,19,001,4,recog,62,YONDER,LF,lure,-,-,-,liberal,no,m,1,0.700255231101,1,577
2019_Oct_21,19,001,4,recog,63,CARRIED,HF,lure,-,-,-,conservative,no,m,1,0.833570405217,3,580
2019_Oct_21,19,001,4,recog,64,NATIONAL,HF,target,right,yellow,pleasantness,conservative,no,z,1,0.816884699479,1,581
2019_Oct_21,19,001,4,recog,65,ICILY,LF,lure,-,-,-,conservative,no,m,1,0.616939250453,3,584
2019_Oct_21,19,001,4,recog,66,VARIOUS,HF,lure,-,-,-,liberal,no,m,1,0.650195181037,1,585
2019_Oct_21,19,001,4,recog,67,BREAK,HF,target,left,aqua,imageability,liberal,no,z,1,0.71698859562,3,588
2019_Oct_21,19,001,4,recog,68,BOOKS,HF,target,right,yellow,pleasantness,conservative,no,z,1,0.666710414983,1,589
2019_Oct_21,19,001,4,recog,69,WINDOW,HF,lure,-,-,-,conservative,no,m,1,0.750240126934,3,592
2019_Oct_21,19,001,4,recog,70,PEACEABLY,LF,target,left,aqua,imageability,conservative,no,z,1,0.566758587012,1,593
2019_Oct_21,19,001,4,recog,71,MAJOR,HF,target,left,aqua,imageability,liberal,no,z,1,0.583606699211,3,596
2019_Oct_21,19,001,4,recog,72,DUMMIES,LF,target,right,yellow,pleasantness,liberal,yes,z,1,0.450262563221,3,599
2019_Oct_21,19,001,4,recog,73,LIKELY,HF,target,left,aqua,imageability,conservative,no,m,0,0.616869228706,-1,598
2019_Oct_21,19,001,4,recog,74,DOUBT,HF,lure,-,-,-,conservative,no,m,1,1.00022839554,3,601
2019_Oct_21,19,001,4,recog,75,TRUTH,HF,target,left,aqua,imageability,conservative,no,m,0,0.70008365949,-1,600
2019_Oct_21,19,001,4,recog,76,SUAVE,LF,target,left,aqua,imageability,conservative,no,z,1,0.56701117855,1,601
2019_Oct_21,19,001,4,recog,77,LOYALIST,LF,target,right,yellow,pleasantness,liberal,no,z,1,0.783602006655,3,604
2019_Oct_21,19,001,4,recog,78,HEDGED,LF,target,right,yellow,pleasantness,conservative,no,z,1,0.816907062444,1,605
2019_Oct_21,19,001,4,recog,79,MOMENT,HF,target,left,aqua,imageability,liberal,no,z,1,0.583572238247,3,608
2019_Oct_21,19,001,4,recog,80,TWENTY,HF,lure,-,-,-,liberal,no,m,1,0.700250098616,1,609
2019_Oct_21,19,001,4,recog,81,MAYBE,HF,target,right,yellow,pleasantness,liberal,no,z,1,1.11688645919,3,612
2019_Oct_21,19,001,4,recog,82,YACHTING,LF,lure,-,-,-,liberal,no,m,1,0.616850165193,1,613
2019_Oct_21,19,001,4,recog,83,SEEMED,HF,lure,-,-,-,liberal,no,z,0,0.916883086412,-1,612
2019_Oct_21,19,001,4,recog,84,ITSELF,HF,target,left,aqua,imageability,liberal,no,m,0,0.583581403397,-3,609
2019_Oct_21,19,001,4,recog,85,ARGUABLE,LF,lure,-,-,-,conservative,no,m,1,0.750289985351,3,612
2019_Oct_21,19,001,4,recog,86,POTASH,LF,target,left,aqua,imageability,liberal,no,z,1,0.700033434468,3,615
2019_Oct_21,19,001,4,recog,87,SIBLINGS,LF,lure,-,-,-,liberal,no,z,0,0.700043699436,-1,614
2019_Oct_21,19,001,4,recog,88,DEJECTED,LF,lure,-,-,-,liberal,no,m,1,0.63336979841,1,615
2019_Oct_21,19,001,4,recog,89,WOMAN,HF,target,right,yellow,pleasantness,conservative,no,z,1,0.683419950113,1,616
2019_Oct_21,19,001,4,recog,90,BOXCAR,LF,lure,-,-,-,liberal,yes,m,1,0.683375224179,1,617
2019_Oct_21,19,001,4,recog,91,PALATABLE,LF,target,right,yellow,pleasantness,conservative,no,z,1,1.00029548444,1,618
2019_Oct_21,19,001,4,recog,92,LUGGED,LF,target,left,aqua,imageability,liberal,no,z,1,1.11668006001,3,621
2019_Oct_21,19,001,4,recog,93,THANK,HF,lure,-,-,-,liberal,no,m,1,0.916946509251,1,622
2019_Oct_21,19,001,4,recog,94,CHAIR,HF,target,left,aqua,imageability,conservative,no,z,1,0.650246505878,1,623
2019_Oct_21,19,001,4,recog,95,WAITING,HF,target,right,yellow,pleasantness,conservative,no,z,1,0.783535650968,1,624
