subj,session,cycle,task,trial,item,wf,type,source,colour,encoding,bias,null,response,corr,rt,points,total
2,001,0,source,0,GOBBLE,LF,target,right,aqua,imageability,liberal,no,1,0,7.97030073203,-,-
2,001,0,source,1,ANSWER,HF,target,right,aqua,imageability,conservative,no,1,0,4.91837540473,-,-
2,001,0,source,2,SHUNNED,LF,target,left,yellow,pleasantness,liberal,no,1,1,3.09244709181,-,-
2,001,0,source,3,SEDAN,LF,target,left,yellow,pleasantness,liberal,no,1,1,1.74609640787,-,-
2,001,0,source,4,SORRY,HF,target,right,aqua,imageability,liberal,no,9,1,2.58576977898,-,-
2,001,0,source,5,TOTAL,HF,target,right,aqua,imageability,liberal,yes,9,1,3.11780027745,-,-
2,001,0,source,6,RIVER,HF,target,left,yellow,pleasantness,liberal,no,1,1,1.38656046902,-,-
2,001,0,source,7,PENALIZED,LF,target,left,yellow,pleasantness,conservative,no,1,1,1.89302185249,-,-
2,001,0,source,8,TAGGED,LF,target,left,yellow,pleasantness,conservative,yes,9,0,1.34626416555,-,-
2,001,0,source,9,HIMSELF,HF,target,left,yellow,pleasantness,conservative,no,1,1,1.19985783123,-,-
2,001,0,source,10,PLEASE,HF,target,left,yellow,pleasantness,conservative,yes,9,0,1.86623011544,-,-
2,001,0,source,11,POINT,HF,target,right,aqua,imageability,conservative,no,9,1,1.89299912308,-,-
2,001,0,source,12,AXIOM,LF,target,left,yellow,pleasantness,liberal,no,1,1,1.27984407628,-,-
2,001,0,source,13,MAILBOX,LF,target,left,yellow,pleasantness,liberal,no,2,1,2.26590875097,-,-
2,001,0,source,14,BEHIND,HF,target,left,yellow,pleasantness,liberal,no,1,1,2.75924170303,-,-
2,001,0,source,15,OCCUPANCY,LF,target,right,aqua,imageability,liberal,yes,9,1,0.666512693273,-,-
2,001,0,source,16,MODERN,HF,target,right,aqua,imageability,conservative,no,1,0,3.46532225898,-,-
2,001,0,source,17,HERSELF,HF,target,left,yellow,pleasantness,liberal,no,7,0,4.11847556076,-,-
2,001,0,source,18,LIKELY,HF,target,right,aqua,imageability,liberal,no,7,1,1.79940382968,-,-
2,001,0,source,19,SYSTEM,HF,target,left,yellow,pleasantness,liberal,no,1,1,2.22613925647,-,-
2,001,0,source,20,HOEING,LF,target,left,yellow,pleasantness,conservative,no,1,1,0.826690481218,-,-
2,001,0,source,21,TWENTY,HF,target,right,aqua,imageability,conservative,no,9,1,1.78634248668,-,-
2,001,0,source,22,VOICE,HF,target,left,yellow,pleasantness,conservative,no,1,1,1.15988340548,-,-
2,001,0,source,23,WIRING,LF,target,right,aqua,imageability,liberal,no,7,1,2.30603311748,-,-
2,001,0,source,24,UNION,HF,target,left,yellow,pleasantness,conservative,no,7,0,1.19986919594,-,-
2,001,0,source,25,EATERS,LF,target,right,aqua,imageability,liberal,no,1,0,1.31987862497,-,-
2,001,0,source,26,CAMPANILE,LF,target,left,yellow,pleasantness,liberal,no,1,1,1.29295711034,-,-
2,001,0,source,27,TELEPHONE,HF,target,right,aqua,imageability,liberal,no,8,1,1.82642616023,-,-
2,001,0,source,28,KERNEL,LF,target,right,aqua,imageability,conservative,no,3,0,3.3057262705,-,-
2,001,0,source,29,VANDALS,LF,target,left,yellow,pleasantness,liberal,no,1,1,1.09325545212,-,-
2,001,0,source,30,QUESTION,HF,target,right,aqua,imageability,conservative,no,1,0,1.5195150278,-,-
2,001,0,source,31,ARPEGGIO,LF,target,right,aqua,imageability,conservative,no,8,1,4.87848639755,-,-
2,001,0,source,32,ZIPPED,LF,target,right,aqua,imageability,conservative,no,2,0,2.06593397328,-,-
2,001,0,source,33,VESTIBULE,LF,target,left,yellow,pleasantness,conservative,no,9,0,1.94600922961,-,-
2,001,0,source,34,DOUBT,HF,target,left,yellow,pleasantness,liberal,no,8,0,1.67283220126,-,-
2,001,0,source,35,LIGHT,HF,target,left,yellow,pleasantness,conservative,no,8,0,1.53286525422,-,-
2,001,0,source,36,HASSLE,LF,target,right,aqua,imageability,conservative,no,2,0,1.33318375918,-,-
2,001,0,source,37,EGGSHELL,LF,target,left,yellow,pleasantness,conservative,no,1,1,1.03930354168,-,-
2,001,0,source,38,TULIPS,LF,target,right,aqua,imageability,conservative,no,1,0,3.26573094836,-,-
2,001,0,source,39,DUNGEON,LF,target,right,aqua,imageability,liberal,no,9,1,1.53316843516,-,-
2,001,0,source,40,TOYED,LF,target,right,aqua,imageability,liberal,no,1,0,1.1466468261,-,-
2,001,0,source,41,QUICKLY,HF,target,right,aqua,imageability,liberal,no,1,0,0.92001082213,-,-
2,001,0,source,42,ITSELF,HF,target,left,yellow,pleasantness,liberal,no,2,1,2.06598713076,-,-
2,001,0,source,43,SPICED,LF,target,left,yellow,pleasantness,conservative,no,1,1,1.74655796145,-,-
2,001,0,source,44,MEANS,HF,target,right,aqua,imageability,liberal,no,3,0,2.90584563654,-,-
2,001,0,source,45,ACROSS,HF,target,left,yellow,pleasantness,conservative,no,1,1,0.999960406842,-,-
2,001,0,source,46,MOVED,HF,target,right,aqua,imageability,conservative,no,1,0,1.06662722015,-,-
2,001,0,source,47,EVADING,LF,target,right,aqua,imageability,conservative,no,1,0,0.800131903874,-,-
2,001,0,recog,0,ACCORDING,HF,lure,-,-,-,liberal,no,z,0,3.45230490838,-1,-1
2,001,0,recog,1,SYSTEM,HF,target,left,yellow,pleasantness,liberal,no,z,1,1.54641784566,3,2
2,001,0,recog,2,TOTAL,HF,target,right,aqua,imageability,liberal,no,z,1,1.42623831269,3,5
2,001,0,recog,3,CRUCIALLY,LF,lure,-,-,-,conservative,no,m,1,2.54604244387,3,8
2,001,0,recog,4,PLEASE,HF,target,left,yellow,pleasantness,conservative,no,m,0,2.41282429729,-1,7
2,001,0,recog,5,DUNGEON,LF,target,right,aqua,imageability,liberal,no,z,1,1.30622815044,3,10
2,001,0,recog,6,FIELD,HF,lure,-,-,-,liberal,no,m,1,1.65303965475,1,11
2,001,0,recog,7,ZOOLOGY,LF,lure,-,-,-,conservative,no,m,1,1.09323822177,3,14
2,001,0,recog,8,HASSLE,LF,target,right,aqua,imageability,conservative,no,z,1,1.59955882957,1,15
2,001,0,recog,9,TELEPHONE,HF,target,right,aqua,imageability,liberal,no,z,1,3.50485016189,3,18
2,001,0,recog,10,INORGANIC,LF,lure,-,-,-,liberal,no,m,1,1.17344296239,1,19
2,001,0,recog,11,OCCUPANCY,LF,target,right,aqua,imageability,liberal,no,m,0,1.63972718848,-3,16
2,001,0,recog,12,TOYED,LF,target,right,aqua,imageability,liberal,no,m,0,1.53308118357,-3,13
2,001,0,recog,13,CAMPANILE,LF,target,left,yellow,pleasantness,liberal,no,z,1,1.3198042045,3,16
2,001,0,recog,14,EGGSHELL,LF,target,left,yellow,pleasantness,conservative,no,z,1,1.85294587762,1,17
2,001,0,recog,15,MAKES,HF,lure,-,-,-,liberal,no,m,1,2.85265149515,1,18
2,001,0,recog,16,TWENTY,HF,target,right,aqua,imageability,conservative,no,z,1,1.18672426738,1,19
2,001,0,recog,17,TRUTH,HF,lure,-,-,-,conservative,yes,m,1,1.19987432838,3,22
2,001,0,recog,18,GROUND,HF,lure,-,-,-,liberal,no,m,1,2.98586340947,1,23
2,001,0,recog,19,ITSELF,HF,target,left,yellow,pleasantness,liberal,no,m,0,1.70636504012,-3,20
2,001,0,recog,20,KITCHEN,HF,lure,-,-,-,liberal,no,m,1,1.41312491202,1,21
2,001,0,recog,21,ARPEGGIO,LF,target,right,aqua,imageability,conservative,no,z,1,1.26653307642,1,22
2,001,0,recog,22,MEANS,HF,target,right,aqua,imageability,liberal,no,m,0,1.7998250569,-3,19
2,001,0,recog,23,SCRABBLE,LF,lure,-,-,-,liberal,no,z,0,1.54643764224,-1,18
2,001,0,recog,24,MOVED,HF,target,right,aqua,imageability,conservative,no,m,0,1.62642058786,-1,17
2,001,0,recog,25,QUESTION,HF,target,right,aqua,imageability,conservative,no,z,1,1.2265406871,1,18
2,001,0,recog,26,RIVER,HF,target,left,yellow,pleasantness,liberal,no,z,1,0.919993591774,3,21
2,001,0,recog,27,GETTING,HF,lure,-,-,-,conservative,no,m,1,2.31922350485,3,24
2,001,0,recog,28,VORACIOUS,LF,lure,-,-,-,liberal,no,m,1,1.67967558539,1,25
2,001,0,recog,29,HAVING,HF,lure,-,-,-,liberal,no,m,1,1.0799921107,1,26
2,001,0,recog,30,ERODE,LF,lure,-,-,-,conservative,no,z,0,1.3198489301,-3,23
2,001,0,recog,31,VIVACIOUS,LF,lure,-,-,-,conservative,no,z,0,1.05326709545,-3,20
2,001,0,recog,32,TAGGED,LF,target,left,yellow,pleasantness,conservative,no,m,0,1.49309905915,-1,19
2,001,0,recog,33,UNDER,HF,lure,-,-,-,liberal,no,z,0,3.5589644776,-1,18
2,001,0,recog,34,RAGES,LF,lure,-,-,-,conservative,no,z,0,0.920034651346,-3,15
2,001,0,recog,35,EVADING,LF,target,right,aqua,imageability,conservative,no,z,1,0.86644934422,1,16
2,001,0,recog,36,AXIOM,LF,target,left,yellow,pleasantness,liberal,no,z,1,0.893562225781,3,19
2,001,0,recog,37,VOICE,HF,target,left,yellow,pleasantness,conservative,no,z,1,1.62633956852,1,20
2,001,0,recog,38,TULIPS,LF,target,right,aqua,imageability,conservative,no,z,1,0.866471340419,1,21
2,001,0,recog,39,SMEARING,LF,lure,-,-,-,conservative,no,z,0,1.15965794444,-3,18
2,001,0,recog,40,MOISTENED,LF,lure,-,-,-,conservative,no,m,1,1.49308622803,3,21
2,001,0,recog,41,SNAGS,LF,lure,-,-,-,liberal,no,m,1,2.02622313531,1,22
2,001,0,recog,42,QUICKLY,HF,target,right,aqua,imageability,liberal,no,z,1,0.98640268295,3,25
2,001,0,recog,43,USUAL,HF,lure,-,-,-,liberal,no,z,0,2.25296215481,-1,24
2,001,0,recog,44,HUMAN,HF,lure,-,-,-,conservative,no,m,1,1.26662216102,3,27
2,001,0,recog,45,VANDALS,LF,target,left,yellow,pleasantness,liberal,no,z,1,1.11997790115,3,30
2,001,0,recog,46,NOTHING,HF,lure,-,-,-,conservative,no,m,1,1.35983398735,3,33
2,001,0,recog,47,SHUNNED,LF,target,left,yellow,pleasantness,liberal,no,z,1,1.41321326341,3,36
2,001,0,recog,48,MODERN,HF,target,right,aqua,imageability,conservative,no,z,1,2.10617491964,1,37
2,001,0,recog,49,ELICIT,LF,lure,-,-,-,liberal,no,z,0,0.853348041458,-1,36
2,001,0,recog,50,ENTIRELY,HF,lure,-,-,-,conservative,yes,m,1,1.03984281516,3,39
2,001,0,recog,51,SORRY,HF,target,right,aqua,imageability,liberal,no,m,0,1.4265271961,-3,36
2,001,0,recog,52,VESTIBULE,LF,target,left,yellow,pleasantness,conservative,no,z,1,1.0533840419,1,37
2,001,0,recog,53,ODDER,LF,lure,-,-,-,conservative,no,m,1,1.62614563537,3,40
2,001,0,recog,54,BRUISING,LF,lure,-,-,-,conservative,no,m,1,2.54611649774,3,43
2,001,0,recog,55,ACROSS,HF,target,left,yellow,pleasantness,conservative,no,z,1,1.01342794632,1,44
2,001,0,recog,56,SEVEN,HF,lure,-,-,-,conservative,no,m,1,2.70595297799,3,47
2,001,0,recog,57,LIKELY,HF,target,right,aqua,imageability,liberal,no,z,1,2.51935702177,3,50
2,001,0,recog,58,USING,HF,lure,-,-,-,liberal,no,m,1,2.10594322634,1,51
2,001,0,recog,59,WIRING,LF,target,right,aqua,imageability,liberal,no,z,1,1.6930474414,3,54
2,001,0,recog,60,VECTORS,LF,lure,-,-,-,liberal,no,z,0,2.09314913716,-1,53
2,001,0,recog,61,NEITHER,HF,lure,-,-,-,conservative,no,m,1,1.05326269621,3,56
2,001,0,recog,62,HOEING,LF,target,left,yellow,pleasantness,conservative,no,z,1,1.2798682721,1,57
2,001,0,recog,63,PASSED,HF,lure,-,-,-,liberal,no,z,0,2.73249139215,-1,56
2,001,0,recog,64,HERSELF,HF,target,left,yellow,pleasantness,liberal,no,m,0,1.39975488902,-3,53
2,001,0,recog,65,CAUGHT,HF,lure,-,-,-,liberal,no,z,0,0.906552081134,-1,52
2,001,0,recog,66,HINDERED,LF,lure,-,-,-,conservative,no,m,1,1.47986137995,3,55
2,001,0,recog,67,HIMSELF,HF,target,left,yellow,pleasantness,conservative,no,z,1,0.986649406982,1,56
2,001,0,recog,68,DERANGED,LF,lure,-,-,-,conservative,no,z,0,1.1466248299,-3,53
2,001,0,recog,69,MAILBOX,LF,target,left,yellow,pleasantness,liberal,no,z,1,0.959981215246,3,56
2,001,0,recog,70,KNOWLEDGE,HF,lure,-,-,-,conservative,no,z,0,1.186527768,-3,53
2,001,0,recog,71,UNION,HF,target,left,yellow,pleasantness,conservative,no,z,1,1.09326205098,1,54
2,001,0,recog,72,ARRIVED,HF,lure,-,-,-,liberal,no,m,1,1.34647532906,1,55
2,001,0,recog,73,ZIPPED,LF,target,right,aqua,imageability,conservative,no,z,1,1.13324894125,1,56
2,001,0,recog,74,UNVEILED,LF,lure,-,-,-,conservative,no,z,0,2.45277196101,-3,53
2,001,0,recog,75,ANAEMIC,LF,lure,-,-,-,liberal,no,z,0,0.88004226203,-1,52
2,001,0,recog,76,GOBBLE,LF,target,right,aqua,imageability,liberal,no,z,1,0.986448141761,3,55
2,001,0,recog,77,ANTELOPES,LF,lure,-,-,-,liberal,no,m,1,0.959910460806,1,56
2,001,0,recog,78,SEDAN,LF,target,left,yellow,pleasantness,liberal,no,z,1,0.986605414584,3,59
2,001,0,recog,79,HONKING,LF,lure,-,-,-,liberal,no,z,0,1.14662116386,-1,58
2,001,0,recog,80,ETHER,LF,lure,-,-,-,liberal,no,m,1,1.0132937695,1,59
2,001,0,recog,81,PENALIZED,LF,target,left,yellow,pleasantness,conservative,no,z,1,1.0799261221,1,60
2,001,0,recog,82,IDIOCY,LF,lure,-,-,-,liberal,no,m,1,1.14659000258,1,61
2,001,0,recog,83,PHYSICAL,HF,lure,-,-,-,conservative,no,m,1,1.13333399322,3,64
2,001,0,recog,84,PREPARED,HF,lure,-,-,-,conservative,no,m,1,1.62637256282,3,67
2,001,0,recog,85,ANSWER,HF,target,right,aqua,imageability,conservative,no,m,0,1.27984957533,-1,66
2,001,0,recog,86,DOING,HF,lure,-,-,-,conservative,no,m,1,1.22651282525,3,69
2,001,0,recog,87,DOUBT,HF,target,left,yellow,pleasantness,liberal,no,z,1,1.11991777821,3,72
2,001,0,recog,88,ACTION,HF,lure,-,-,-,conservative,no,z,0,2.19945273457,-3,69
2,001,0,recog,89,KERNEL,LF,target,right,aqua,imageability,conservative,no,z,1,1.06663345241,1,70
2,001,0,recog,90,POINT,HF,target,right,aqua,imageability,conservative,no,m,0,1.35978926175,-1,69
2,001,0,recog,91,LIGHT,HF,target,left,yellow,pleasantness,conservative,no,z,1,0.814243931982,1,70
2,001,0,recog,92,SPICED,LF,target,left,yellow,pleasantness,conservative,yes,m,0,0.866736394618,-1,69
2,001,0,recog,93,EATERS,LF,target,right,aqua,imageability,liberal,no,z,1,6.05105537763,3,72
2,001,0,recog,94,ROBBERIES,LF,lure,-,-,-,liberal,no,m,1,1.133265805,1,73
2,001,0,recog,95,BEHIND,HF,target,left,yellow,pleasantness,liberal,yes,m,0,0.786496826682,-3,70
2,001,1,source,0,METABOLIC,LF,target,left,yellow,pleasantness,liberal,no,1,1,1.69314862392,-,-
2,001,1,source,1,BELIEVE,HF,target,left,yellow,pleasantness,liberal,no,1,1,1.5730424116,-,-
2,001,1,source,2,BUSINESS,HF,target,right,aqua,imageability,liberal,no,9,1,1.65282555841,-,-
2,001,1,source,3,BLACK,HF,target,left,yellow,pleasantness,liberal,no,1,1,1.81306713533,-,-
2,001,1,source,4,TYCOONS,LF,target,left,yellow,pleasantness,liberal,no,1,1,0.933361415147,-,-
2,001,1,source,5,NUMBER,HF,target,left,yellow,pleasantness,conservative,yes,7,0,3.39902828125,-,-
2,001,1,source,6,TIMES,HF,target,left,yellow,pleasantness,liberal,no,3,1,2.89262372129,-,-
2,001,1,source,7,VAGABOND,LF,target,right,aqua,imageability,conservative,no,1,0,1.41308788508,-,-
2,001,1,source,8,UTILIZE,LF,target,left,yellow,pleasantness,conservative,no,1,1,0.719799585298,-,-
2,001,1,source,9,DOODLE,LF,target,left,yellow,pleasantness,conservative,no,1,1,0.720204315361,-,-
2,001,1,source,10,CADDIE,LF,target,left,yellow,pleasantness,conservative,no,1,1,0.653491676638,-,-
2,001,1,source,11,LAGER,LF,target,right,aqua,imageability,conservative,no,1,0,1.49316834718,-,-
2,001,1,source,12,UNCANNILY,LF,target,right,aqua,imageability,liberal,no,7,1,1.53283629256,-,-
2,001,1,source,13,EQUALLED,LF,target,right,aqua,imageability,liberal,no,8,1,1.59969667241,-,-
2,001,1,source,14,PUBLIC,HF,target,left,yellow,pleasantness,liberal,no,7,0,1.37315011966,-,-
2,001,1,source,15,FAMILY,HF,target,right,aqua,imageability,liberal,no,9,1,1.71961408402,-,-
2,001,1,source,16,MOSAICS,LF,target,right,aqua,imageability,conservative,no,2,0,1.37292832465,-,-
2,001,1,source,17,IRRIGATED,LF,target,left,yellow,pleasantness,liberal,yes,7,0,1.62617019779,-,-
2,001,1,source,18,HAUNCHES,LF,target,left,yellow,pleasantness,liberal,no,1,1,1.50644891896,-,-
2,001,1,source,19,CENTRAL,HF,target,right,aqua,imageability,liberal,no,8,1,2.02621287042,-,-
2,001,1,source,20,FINAL,HF,target,right,aqua,imageability,liberal,no,9,1,1.31882464044,-,-
2,001,1,source,21,TINGLING,LF,target,left,yellow,pleasantness,conservative,no,9,0,1.14657203902,-,-
2,001,1,source,22,TOKENS,LF,target,left,yellow,pleasantness,liberal,no,8,0,1.23983262359,-,-
2,001,1,source,23,VAULTED,LF,target,left,yellow,pleasantness,conservative,no,1,1,0.906417537716,-,-
2,001,1,source,24,LATER,HF,target,left,yellow,pleasantness,conservative,no,8,0,0.586546611412,-,-
2,001,1,source,25,THANK,HF,target,right,aqua,imageability,conservative,no,1,0,0.919755666221,-,-
2,001,1,source,26,COMES,HF,target,left,yellow,pleasantness,liberal,no,1,1,0.853383235377,-,-
2,001,1,source,27,ALMOST,HF,target,left,yellow,pleasantness,conservative,no,1,1,0.853393866873,-,-
2,001,1,source,28,OMELETTE,LF,target,right,aqua,imageability,liberal,yes,7,1,1.25321034525,-,-
2,001,1,source,29,DOCTOR,HF,target,left,yellow,pleasantness,conservative,no,1,1,0.840004047301,-,-
2,001,1,source,30,OTHERS,HF,target,left,yellow,pleasantness,conservative,no,8,0,1.55974204324,-,-
2,001,1,source,31,HOWEVER,HF,target,right,aqua,imageability,conservative,no,8,1,1.53310537939,-,-
2,001,1,source,32,BICEPS,LF,target,right,aqua,imageability,liberal,no,9,1,2.47913293916,-,-
2,001,1,source,33,RETURN,HF,target,right,aqua,imageability,conservative,yes,7,1,1.27985030853,-,-
2,001,1,source,34,TALKING,HF,target,right,aqua,imageability,liberal,no,8,1,0.866502868304,-,-
2,001,1,source,35,BEAUTIFUL,HF,target,left,yellow,pleasantness,liberal,no,9,0,0.866747759321,-,-
2,001,1,source,36,CHLORIDE,LF,target,right,aqua,imageability,liberal,no,9,1,1.21298406302,-,-
2,001,1,source,37,UDDER,LF,target,left,yellow,pleasantness,conservative,no,9,0,0.866753624974,-,-
2,001,1,source,38,WATCH,HF,target,right,aqua,imageability,conservative,no,9,1,0.666771148612,-,-
2,001,1,source,39,DOGMAS,LF,target,right,aqua,imageability,conservative,no,9,1,0.533561067314,-,-
2,001,1,source,40,TAILED,LF,target,right,aqua,imageability,conservative,no,2,0,1.78635165177,-,-
2,001,1,source,41,RANGE,HF,target,right,aqua,imageability,liberal,no,3,0,2.37275162185,-,-
2,001,1,source,42,DIZZINESS,LF,target,right,aqua,imageability,conservative,no,1,0,1.0532733277,-,-
2,001,1,source,43,APPEARED,HF,target,right,aqua,imageability,conservative,no,1,0,0.746509569813,-,-
2,001,1,source,44,SILENCER,LF,target,right,aqua,imageability,liberal,no,9,1,1.54624187607,-,-
2,001,1,source,45,NEEDED,HF,target,left,yellow,pleasantness,conservative,no,9,0,2.07960827702,-,-
2,001,1,source,46,FLICKS,LF,target,left,yellow,pleasantness,liberal,no,9,0,1.10645427137,-,-
2,001,1,source,47,FRIEND,HF,target,right,aqua,imageability,conservative,no,9,1,0.693082635321,-,-
2,001,1,recog,0,ENHANCES,LF,lure,-,-,-,conservative,no,z,0,3.1326572435,-3,67
2,001,1,recog,1,LAGER,LF,target,right,aqua,imageability,conservative,no,m,0,2.02596504657,-1,66
2,001,1,recog,2,ROUND,HF,lure,-,-,-,conservative,no,m,1,1.23964785552,3,69
2,001,1,recog,3,DUGOUTS,LF,lure,-,-,-,liberal,no,m,1,3.23910308299,1,70
2,001,1,recog,4,IDEAS,HF,lure,-,-,-,liberal,no,m,1,1.73301233547,1,71
2,001,1,recog,5,TOMBSTONE,LF,lure,-,-,-,conservative,no,m,1,1.39983150912,3,74
2,001,1,recog,6,UTILIZE,LF,target,left,yellow,pleasantness,conservative,no,z,1,1.41313591011,1,75
2,001,1,recog,7,FAMILY,HF,target,right,aqua,imageability,liberal,no,z,1,1.26638900131,3,78
2,001,1,recog,8,BUMBLING,LF,lure,-,-,-,liberal,yes,m,1,1.09337276519,1,79
2,001,1,recog,9,UNTIL,HF,lure,-,-,-,conservative,no,m,1,1.59996502604,3,82
2,001,1,recog,10,RELAXES,LF,lure,-,-,-,conservative,no,m,1,1.29317890535,3,85
2,001,1,recog,11,HIGHER,HF,lure,-,-,-,liberal,no,m,1,1.14657717146,1,86
2,001,1,recog,12,HAUNCHES,LF,target,left,yellow,pleasantness,liberal,no,z,1,0.893127434246,3,89
2,001,1,recog,13,MOSAICS,LF,target,right,aqua,imageability,conservative,no,z,1,2.30609763966,1,90
2,001,1,recog,14,TOKENS,LF,target,left,yellow,pleasantness,liberal,no,m,0,1.47975103235,-3,87
2,001,1,recog,15,PUBLIC,HF,target,left,yellow,pleasantness,liberal,no,m,0,1.25320154677,-3,84
2,001,1,recog,16,AFTERNOON,HF,lure,-,-,-,conservative,no,m,1,1.00006085615,3,87
2,001,1,recog,17,ATROCITY,LF,lure,-,-,-,liberal,no,m,1,0.946796326928,1,88
2,001,1,recog,18,POWER,HF,lure,-,-,-,conservative,no,m,1,1.51975661939,3,91
2,001,1,recog,19,SEEMED,HF,lure,-,-,-,liberal,no,z,0,3.66559471857,-1,90
2,001,1,recog,20,MURPHY,LF,lure,-,-,-,liberal,no,z,0,0.98648443549,-1,89
2,001,1,recog,21,APPEARED,HF,target,right,aqua,imageability,conservative,no,z,1,0.839829910725,1,90
2,001,1,recog,22,ALONE,HF,lure,-,-,-,liberal,no,m,1,0.999935844419,1,91
2,001,1,recog,23,BLACK,HF,target,left,yellow,pleasantness,liberal,no,z,1,2.07952982391,3,94
2,001,1,recog,24,TATTERS,LF,lure,-,-,-,conservative,no,m,1,3.30571343938,3,97
2,001,1,recog,25,TYCOONS,LF,target,left,yellow,pleasantness,liberal,no,z,1,1.06658102813,3,100
2,001,1,recog,26,DOGMAS,LF,target,right,aqua,imageability,conservative,no,z,1,2.66711318951,1,101
2,001,1,recog,27,IRRIGATED,LF,target,left,yellow,pleasantness,liberal,no,z,1,1.98623477863,3,104
2,001,1,recog,28,TAILED,LF,target,right,aqua,imageability,conservative,no,z,1,1.3731545189,1,105
2,001,1,recog,29,BREAK,HF,lure,-,-,-,liberal,no,m,1,1.27999438364,1,106
2,001,1,recog,30,CADDIE,LF,target,left,yellow,pleasantness,conservative,no,z,1,0.94666398313,1,107
2,001,1,recog,31,UMPIRE,LF,lure,-,-,-,liberal,no,m,1,1.55974057683,1,108
2,001,1,recog,32,LOLLED,LF,lure,-,-,-,conservative,no,m,1,0.906675259848,3,111
2,001,1,recog,33,BECAME,HF,lure,-,-,-,liberal,no,m,1,1.37315561871,1,112
2,001,1,recog,34,VILLAGE,HF,lure,-,-,-,liberal,no,m,1,1.38622979283,1,113
2,001,1,recog,35,HOWEVER,HF,target,right,aqua,imageability,conservative,no,m,0,1.31961283757,-1,112
2,001,1,recog,36,TINGLING,LF,target,left,yellow,pleasantness,conservative,no,z,1,1.10673838894,1,113
2,001,1,recog,37,FRIEND,HF,target,right,aqua,imageability,conservative,no,z,1,1.27970366721,1,114
2,001,1,recog,38,VAULTED,LF,target,left,yellow,pleasantness,conservative,no,z,1,1.59969410619,1,115
2,001,1,recog,39,UNHEEDED,LF,lure,-,-,-,conservative,no,z,0,1.00001283112,-3,112
2,001,1,recog,40,RETURN,HF,target,right,aqua,imageability,conservative,no,z,1,1.15977745712,1,113
2,001,1,recog,41,BELIEVE,HF,target,left,yellow,pleasantness,liberal,yes,m,0,1.05332318575,-3,110
2,001,1,recog,42,WESTERN,HF,lure,-,-,-,conservative,no,z,0,1.15997139028,-3,107
2,001,1,recog,43,HOURS,HF,lure,-,-,-,liberal,no,z,0,2.42606674233,-1,106
2,001,1,recog,44,OBVIOUSLY,HF,lure,-,-,-,conservative,no,m,1,0.920301171957,3,109
2,001,1,recog,45,DWINDLE,LF,lure,-,-,-,conservative,no,z,0,1.46645249701,-3,106
2,001,1,recog,46,AEGIS,LF,lure,-,-,-,liberal,no,m,1,1.31983096654,1,107
2,001,1,recog,47,THANK,HF,target,right,aqua,imageability,conservative,no,z,1,1.39982747648,1,108
2,001,1,recog,48,ATONEMENT,LF,lure,-,-,-,liberal,no,z,0,1.69278568663,-1,107
2,001,1,recog,49,RANGE,HF,target,right,aqua,imageability,liberal,no,z,1,1.17320906947,3,110
2,001,1,recog,50,ALMOST,HF,target,left,yellow,pleasantness,conservative,yes,m,0,0.786709456606,-1,109
2,001,1,recog,51,GASEOUS,LF,lure,-,-,-,liberal,no,z,0,1.31982473429,-1,108
2,001,1,recog,52,FRONT,HF,lure,-,-,-,conservative,no,z,0,1.63979354368,-3,105
2,001,1,recog,53,ENSCONCED,LF,lure,-,-,-,conservative,no,z,0,0.666801576687,-3,102
2,001,1,recog,54,UNLESS,HF,lure,-,-,-,conservative,no,z,0,1.38648494873,-3,99
2,001,1,recog,55,DIZZINESS,LF,target,right,aqua,imageability,conservative,no,m,0,1.05303540215,-1,98
2,001,1,recog,56,BAWLED,LF,lure,-,-,-,liberal,no,m,1,0.77338672544,1,99
2,001,1,recog,57,UDDER,LF,target,left,yellow,pleasantness,conservative,no,m,0,2.34607499824,-1,98
2,001,1,recog,58,DUMMIES,LF,lure,-,-,-,liberal,no,z,0,0.38689554445,-1,97
2,001,1,recog,59,DRINK,HF,lure,-,-,-,conservative,no,m,1,1.67966935314,3,100
2,001,1,recog,60,METABOLIC,LF,target,left,yellow,pleasantness,liberal,no,z,1,1.57308127156,3,103
2,001,1,recog,61,ENDEARING,LF,lure,-,-,-,conservative,no,z,0,1.01340228409,-3,100
2,001,1,recog,62,SECOND,HF,lure,-,-,-,liberal,no,m,1,0.813352352713,1,101
2,001,1,recog,63,WREATH,LF,lure,-,-,-,conservative,no,m,1,1.48000362204,3,104
2,001,1,recog,64,BUSINESS,HF,target,right,aqua,imageability,liberal,no,m,0,1.31985332934,-3,101
2,001,1,recog,65,UNCANNILY,LF,target,right,aqua,imageability,liberal,no,z,1,0.520189211304,3,104
2,001,1,recog,66,BRING,HF,lure,-,-,-,conservative,no,m,1,2.42606051008,3,107
2,001,1,recog,67,OMELETTE,LF,target,right,aqua,imageability,liberal,no,z,1,1.49318961017,3,110
2,001,1,recog,68,ICEBOX,LF,lure,-,-,-,conservative,no,m,1,1.17321896776,3,113
2,001,1,recog,69,VAGABOND,LF,target,right,aqua,imageability,conservative,no,z,1,1.13320604866,1,114
2,001,1,recog,70,CENTRAL,HF,target,right,aqua,imageability,liberal,no,z,1,1.33318925823,3,117
2,001,1,recog,71,BEAUTIFUL,HF,target,left,yellow,pleasantness,liberal,no,m,0,1.46645396342,-3,114
2,001,1,recog,72,OTHERS,HF,target,left,yellow,pleasantness,conservative,no,z,1,0.826741805683,1,115
2,001,1,recog,73,SUDDENLY,HF,lure,-,-,-,conservative,no,m,1,1.39991619448,3,118
2,001,1,recog,74,COMES,HF,target,left,yellow,pleasantness,liberal,no,m,0,2.73238947643,-3,115
2,001,1,recog,75,NUMBER,HF,target,left,yellow,pleasantness,conservative,no,z,1,0.760071692945,1,116
2,001,1,recog,76,WATCH,HF,target,right,aqua,imageability,conservative,no,m,0,0.999954907792,-1,115
2,001,1,recog,77,FLICKS,LF,target,left,yellow,pleasantness,liberal,no,z,1,0.386938070435,3,118
2,001,1,recog,78,TALKING,HF,target,right,aqua,imageability,liberal,no,z,1,2.49270422738,3,121
2,001,1,recog,79,DOCTOR,HF,target,left,yellow,pleasantness,conservative,no,z,1,0.999971404941,1,122
2,001,1,recog,80,BICEPS,LF,target,right,aqua,imageability,liberal,no,z,1,1.45329583715,3,125
2,001,1,recog,81,SOAPY,LF,lure,-,-,-,conservative,no,z,0,1.31964839809,-3,122
2,001,1,recog,82,CHLORIDE,LF,target,right,aqua,imageability,liberal,no,z,1,1.12029794585,3,125
2,001,1,recog,83,VENDETTA,LF,lure,-,-,-,liberal,no,z,0,1.29320126815,-1,124
2,001,1,recog,84,MYSELF,HF,lure,-,-,-,liberal,no,m,1,1.14656873959,1,125
2,001,1,recog,85,EQUALLED,LF,target,right,aqua,imageability,liberal,no,z,1,1.02657910713,3,128
2,001,1,recog,86,NEEDED,HF,target,left,yellow,pleasantness,conservative,no,z,1,0.826737773046,1,129
2,001,1,recog,87,SILENCER,LF,target,right,aqua,imageability,liberal,no,z,1,0.986529894301,3,132
2,001,1,recog,88,ALTHOUGH,HF,lure,-,-,-,conservative,no,m,1,1.06663638523,3,135
2,001,1,recog,89,DOODLE,LF,target,left,yellow,pleasantness,conservative,no,z,1,1.07995471716,1,136
2,001,1,recog,90,TIMES,HF,target,left,yellow,pleasantness,liberal,no,z,1,1.17322410021,3,139
2,001,1,recog,91,QUALITY,HF,lure,-,-,-,liberal,no,m,1,1.4133437742,1,140
2,001,1,recog,92,LATER,HF,target,left,yellow,pleasantness,conservative,no,m,0,1.1599409622,-1,139
2,001,1,recog,93,FINAL,HF,target,right,aqua,imageability,liberal,no,z,1,0.973270952113,3,142
2,001,1,recog,94,SAWDUST,LF,lure,-,-,-,liberal,yes,z,0,1.37300347833,-1,141
2,001,1,recog,95,PRIVATE,HF,lure,-,-,-,liberal,no,z,0,1.9729164467,-1,140
2,001,2,source,0,VARIOUS,HF,target,right,aqua,imageability,liberal,no,1,0,1.25300431419,-,-
2,001,2,source,1,TREES,HF,target,left,yellow,pleasantness,liberal,no,1,1,2.06620635954,-,-
2,001,2,source,2,REACHED,HF,target,right,aqua,imageability,conservative,no,1,0,0.813180782361,-,-
2,001,2,source,3,MYOPIC,LF,target,left,yellow,pleasantness,conservative,no,9,0,2.34588619753,-,-
2,001,2,source,4,BONANZA,LF,target,right,aqua,imageability,liberal,no,1,0,2.11930811689,-,-
2,001,2,source,5,OFTEN,HF,target,left,yellow,pleasantness,liberal,no,1,1,0.880096152718,-,-
2,001,2,source,6,OFFER,HF,target,left,yellow,pleasantness,conservative,no,1,1,0.78646346578,-,-
2,001,2,source,7,IMPORTANT,HF,target,right,aqua,imageability,conservative,no,1,0,0.560146406701,-,-
2,001,2,source,8,KIBBUTZIM,LF,target,right,aqua,imageability,conservative,no,2,0,0.479956330213,-,-
2,001,2,source,9,MORNING,HF,target,right,aqua,imageability,liberal,no,7,1,2.06622945555,-,-
2,001,2,source,10,RAYON,LF,target,right,aqua,imageability,liberal,no,8,1,2.83924774466,-,-
2,001,2,source,11,ENVIRONS,LF,target,left,yellow,pleasantness,conservative,no,2,1,1.13340474766,-,-
2,001,2,source,12,EITHER,HF,target,left,yellow,pleasantness,liberal,no,1,1,2.03955429835,-,-
2,001,2,source,13,SELECTS,LF,target,left,yellow,pleasantness,conservative,no,1,1,2.41251085146,-,-
2,001,2,source,14,GAZELLE,LF,target,left,yellow,pleasantness,conservative,no,1,1,1.09325948476,-,-
2,001,2,source,15,RUGGER,LF,target,right,aqua,imageability,conservative,no,1,0,1.66638841475,-,-
2,001,2,source,16,ANIMAL,HF,target,right,aqua,imageability,liberal,no,2,0,0.320022333474,-,-
2,001,2,source,17,SUMMER,HF,target,left,yellow,pleasantness,conservative,no,3,1,0.160295101007,-,-
2,001,2,source,18,RUNNING,HF,target,right,aqua,imageability,liberal,no,2,0,0.653430820488,-,-
2,001,2,source,19,THEORY,HF,target,left,yellow,pleasantness,conservative,no,1,1,0.813037440464,-,-
2,001,2,source,20,NAGGED,LF,target,left,yellow,pleasantness,conservative,no,9,0,0.866684336947,-,-
2,001,2,source,21,LETTER,HF,target,left,yellow,pleasantness,conservative,no,1,1,0.666890661294,-,-
2,001,2,source,22,UNPACK,LF,target,right,aqua,imageability,liberal,yes,8,1,0.893134033106,-,-
2,001,2,source,23,AGONIZED,LF,target,right,aqua,imageability,conservative,no,8,1,0.839746691772,-,-
2,001,2,source,24,FUTURE,HF,target,right,aqua,imageability,liberal,no,7,1,0.640077661247,-,-
2,001,2,source,25,GULLIBLE,LF,target,left,yellow,pleasantness,liberal,no,8,0,0.600178755778,-,-
2,001,2,source,26,HEMMED,LF,target,left,yellow,pleasantness,liberal,no,1,1,0.906699089064,-,-
2,001,2,source,27,WAFER,LF,target,right,aqua,imageability,conservative,no,2,0,0.613550245184,-,-
2,001,2,source,28,IRONICAL,LF,target,left,yellow,pleasantness,conservative,no,9,0,0.73352521351,-,-
2,001,2,source,29,SHALL,HF,target,left,yellow,pleasantness,liberal,yes,8,0,0.74674676216,-,-
2,001,2,source,30,GENERAL,HF,target,left,yellow,pleasantness,liberal,no,7,0,0.600127797916,-,-
2,001,2,source,31,CODING,LF,target,right,aqua,imageability,liberal,no,3,0,0.826504979939,-,-
2,001,2,source,32,ABOVE,HF,target,right,aqua,imageability,liberal,no,9,1,1.99955640999,-,-
2,001,2,source,33,GUSHED,LF,target,right,aqua,imageability,conservative,no,9,1,0.946419825321,-,-
2,001,2,source,34,GREATER,HF,target,left,yellow,pleasantness,conservative,no,9,0,0.880036762981,-,-
2,001,2,source,35,REFECTORY,LF,target,right,aqua,imageability,conservative,no,1,0,0.799857317989,-,-
2,001,2,source,36,GEYSER,LF,target,left,yellow,pleasantness,liberal,no,9,0,0.613436964759,-,-
2,001,2,source,37,GLEANED,LF,target,right,aqua,imageability,liberal,yes,7,1,1.45302015145,-,-
2,001,2,source,38,WEBBED,LF,target,left,yellow,pleasantness,liberal,no,9,0,0.653548500153,-,-
2,001,2,source,39,TOWARDS,HF,target,right,aqua,imageability,conservative,no,8,1,0.560269585416,-,-
2,001,2,source,40,WRONG,HF,target,right,aqua,imageability,conservative,yes,9,1,0.653267682011,-,-
2,001,2,source,41,SUBJECT,HF,target,left,yellow,pleasantness,conservative,no,9,0,0.613188774313,-,-
2,001,2,source,42,HARDLY,HF,target,left,yellow,pleasantness,liberal,no,9,0,0.599935331175,-,-
2,001,2,source,43,GABLE,LF,target,left,yellow,pleasantness,liberal,no,9,0,0.627017051454,-,-
2,001,2,source,44,MUSIC,HF,target,right,aqua,imageability,conservative,no,1,0,0.733360242017,-,-
2,001,2,source,45,AREAS,HF,target,right,aqua,imageability,conservative,no,2,0,0.680091680158,-,-
2,001,2,source,46,DRUDGERY,LF,target,right,aqua,imageability,liberal,no,1,0,0.666590413177,-,-
2,001,2,source,47,CRACKLE,LF,target,left,yellow,pleasantness,liberal,no,1,1,0.640275260435,-,-
2,001,2,recog,0,THING,HF,lure,-,-,-,conservative,no,z,0,4.14557157856,-3,137
2,001,2,recog,1,PIVOT,LF,lure,-,-,-,liberal,no,m,1,1.74611400483,1,138
2,001,2,recog,2,AREAS,HF,target,right,aqua,imageability,conservative,no,m,0,3.83881478614,-1,137
2,001,2,recog,3,SELECTS,LF,target,left,yellow,pleasantness,conservative,no,m,0,0.880031997138,-1,136
2,001,2,recog,4,EBONY,LF,lure,-,-,-,liberal,no,m,1,0.773370961498,1,137
2,001,2,recog,5,CRACKLE,LF,target,left,yellow,pleasantness,liberal,no,m,0,1.08003243706,-3,134
2,001,2,recog,6,IRONICAL,LF,target,left,yellow,pleasantness,conservative,no,m,0,0.893107271064,-1,133
2,001,2,recog,7,EITHER,HF,target,left,yellow,pleasantness,liberal,no,z,1,1.41328805049,3,136
2,001,2,recog,8,MUSIC,HF,target,right,aqua,imageability,conservative,no,z,1,1.31984416426,1,137
2,001,2,recog,9,RAYON,LF,target,right,aqua,imageability,liberal,no,z,1,1.05309845792,3,140
2,001,2,recog,10,REFECTORY,LF,target,right,aqua,imageability,conservative,no,z,1,1.34647202963,1,141
2,001,2,recog,11,VARIOUS,HF,target,right,aqua,imageability,liberal,no,m,0,4.27863318552,-3,138
2,001,2,recog,12,GULLIBLE,LF,target,left,yellow,pleasantness,liberal,no,z,1,0.693505695549,3,141
2,001,2,recog,13,UNPACK,LF,target,right,aqua,imageability,liberal,no,m,0,1.14658230391,-3,138
2,001,2,recog,14,SOUND,HF,lure,-,-,-,liberal,no,z,0,0.440174737805,-1,137
2,001,2,recog,15,REACHED,HF,target,right,aqua,imageability,conservative,no,m,0,0.520200576007,-1,136
2,001,2,recog,16,IMPORTANT,HF,target,right,aqua,imageability,conservative,no,z,1,4.73170869407,1,137
2,001,2,recog,17,ECONOMIC,HF,lure,-,-,-,liberal,no,z,0,4.09213327937,-1,136
2,001,2,recog,18,EXACTLY,HF,lure,-,-,-,conservative,no,m,1,0.999777105183,3,139
2,001,2,recog,19,ANIMAL,HF,target,right,aqua,imageability,liberal,no,z,1,2.7459556322,3,142
2,001,2,recog,20,GABLE,LF,target,left,yellow,pleasantness,liberal,no,z,1,2.61265939912,3,145
2,001,2,recog,21,KRONOR,LF,lure,-,-,-,conservative,yes,m,1,1.21335323256,3,148
2,001,2,recog,22,TREES,HF,target,left,yellow,pleasantness,liberal,no,z,1,3.11914424521,3,151
2,001,2,recog,23,ORDER,HF,lure,-,-,-,liberal,no,z,0,2.25292402806,-1,150
2,001,2,recog,24,NAGGED,LF,target,left,yellow,pleasantness,conservative,yes,m,0,1.13325517351,-1,149
2,001,2,recog,25,JOYFULLY,LF,lure,-,-,-,liberal,no,z,0,1.2398560862,-1,148
2,001,2,recog,26,MYOPIC,LF,target,left,yellow,pleasantness,conservative,no,m,0,0.560121111072,-1,147
2,001,2,recog,27,ADULATION,LF,lure,-,-,-,liberal,no,z,0,0.760067293705,-1,146
2,001,2,recog,28,CODING,LF,target,right,aqua,imageability,liberal,no,z,1,0.480185457286,3,149
2,001,2,recog,29,GNOMES,LF,lure,-,-,-,liberal,no,z,0,1.0530515327,-1,148
2,001,2,recog,30,SUMMER,HF,target,left,yellow,pleasantness,conservative,no,m,0,0.400299294949,-1,147
2,001,2,recog,31,ABOVE,HF,target,right,aqua,imageability,liberal,no,m,0,0.266994629995,-3,144
2,001,2,recog,32,STICKER,LF,lure,-,-,-,conservative,no,m,1,0.426875102649,3,147
2,001,2,recog,33,WRONG,HF,target,right,aqua,imageability,conservative,no,m,0,0.746532299219,-1,146
2,001,2,recog,34,WEBBED,LF,target,left,yellow,pleasantness,liberal,no,z,1,0.333722299453,3,149
2,001,2,recog,35,OUTSIDE,HF,lure,-,-,-,liberal,no,z,0,1.17311668544,-1,148
2,001,2,recog,36,WOODCOCK,LF,lure,-,-,-,conservative,no,z,0,0.773348232092,-3,145
2,001,2,recog,37,MOTHER,HF,lure,-,-,-,liberal,no,m,1,0.266725176556,1,146
2,001,2,recog,38,SHALL,HF,target,left,yellow,pleasantness,liberal,no,z,1,0.786785710096,3,149
2,001,2,recog,39,GLEANED,LF,target,right,aqua,imageability,liberal,no,m,0,0.97332374299,-3,146
2,001,2,recog,40,DRUDGERY,LF,target,right,aqua,imageability,liberal,no,z,1,0.280366119401,3,149
2,001,2,recog,41,HAPPEN,HF,lure,-,-,-,conservative,no,m,1,0.919999090824,3,152
2,001,2,recog,42,ALDER,LF,lure,-,-,-,conservative,no,z,0,3.47896796767,-3,149
2,001,2,recog,43,PAUNCH,LF,lure,-,-,-,liberal,no,m,1,0.893112770113,1,150
2,001,2,recog,44,FUSELAGE,LF,lure,-,-,-,liberal,no,m,1,1.1597418966,1,151
2,001,2,recog,45,COUNCIL,HF,lure,-,-,-,liberal,no,m,1,1.21338586026,1,152
2,001,2,recog,46,LETTER,HF,target,left,yellow,pleasantness,conservative,no,z,1,1.15992043242,1,153
2,001,2,recog,47,WHOLE,HF,lure,-,-,-,conservative,no,z,0,1.34648742697,-3,150
2,001,2,recog,48,GREATER,HF,target,left,yellow,pleasantness,conservative,no,m,0,0.999964072875,-1,149
2,001,2,recog,49,JANGLING,LF,lure,-,-,-,liberal,no,z,0,0.307109464818,-1,148
2,001,2,recog,50,GIRLS,HF,lure,-,-,-,conservative,no,m,1,0.573590116961,3,151
2,001,2,recog,51,GEYSER,LF,target,left,yellow,pleasantness,liberal,no,z,1,1.27988550245,3,154
2,001,2,recog,52,GUSHED,LF,target,right,aqua,imageability,conservative,no,z,1,2.53255620762,1,155
2,001,2,recog,53,RUGGER,LF,target,right,aqua,imageability,conservative,no,z,1,1.10666140224,1,156
2,001,2,recog,54,WINDOW,HF,lure,-,-,-,liberal,no,m,1,1.73305119542,1,157
2,001,2,recog,55,KIBBUTZIM,LF,target,right,aqua,imageability,conservative,no,m,0,2.03964484937,-1,156
2,001,2,recog,56,BONANZA,LF,target,right,aqua,imageability,liberal,no,z,1,1.27985434117,3,159
2,001,2,recog,57,TONAL,LF,lure,-,-,-,liberal,no,m,1,2.22621331034,1,160
2,001,2,recog,58,TOWARDS,HF,target,right,aqua,imageability,conservative,no,z,1,1.85297923852,1,161
2,001,2,recog,59,NEWMARKET,LF,lure,-,-,-,conservative,no,m,1,1.05304383403,3,164
2,001,2,recog,60,HEMMED,LF,target,left,yellow,pleasantness,liberal,no,z,1,1.42650886593,3,167
2,001,2,recog,61,BEDLAM,LF,lure,-,-,-,conservative,no,z,0,2.07933552415,-3,164
2,001,2,recog,62,PAWNS,LF,lure,-,-,-,conservative,no,m,1,1.15967370838,3,167
2,001,2,recog,63,ACQUIRES,LF,lure,-,-,-,conservative,no,z,0,1.17329522125,-3,164
2,001,2,recog,64,NECESSARY,HF,lure,-,-,-,conservative,no,z,0,1.82630994697,-3,161
2,001,2,recog,65,PUNCTUAL,LF,lure,-,-,-,conservative,no,m,1,0.800046851904,3,164
2,001,2,recog,66,SERIOUS,HF,lure,-,-,-,conservative,no,m,1,1.41309338413,3,167
2,001,2,recog,67,MORNING,HF,target,right,aqua,imageability,liberal,no,m,0,1.22660814211,-3,164
2,001,2,recog,68,GAZELLE,LF,target,left,yellow,pleasantness,conservative,no,z,1,0.720138326764,1,165
2,001,2,recog,69,HARDLY,HF,target,left,yellow,pleasantness,liberal,no,z,1,1.82780752153,3,168
2,001,2,recog,70,FUTURE,HF,target,right,aqua,imageability,liberal,no,m,0,1.31981190317,-3,165
2,001,2,recog,71,AGONIZED,LF,target,right,aqua,imageability,conservative,no,z,1,1.07994518547,1,166
2,001,2,recog,72,THEORY,HF,target,left,yellow,pleasantness,conservative,no,m,0,1.18654609817,-1,165
2,001,2,recog,73,SIGNPOST,LF,lure,-,-,-,conservative,no,z,0,0.573488934446,-3,162
2,001,2,recog,74,FOLLOWED,HF,lure,-,-,-,conservative,no,m,1,1.47996696171,3,165
2,001,2,recog,75,REGAINING,LF,lure,-,-,-,liberal,no,m,1,1.22656341651,1,166
2,001,2,recog,76,WAFER,LF,target,right,aqua,imageability,conservative,no,m,0,1.0665777287,-1,165
2,001,2,recog,77,TABLE,HF,lure,-,-,-,liberal,no,m,1,1.06640505854,1,166
2,001,2,recog,78,PLACE,HF,lure,-,-,-,liberal,no,m,1,1.0932642506,1,167
2,001,2,recog,79,EXPECT,HF,lure,-,-,-,conservative,no,m,1,1.11991997783,3,170
2,001,2,recog,80,BLEACH,LF,lure,-,-,-,conservative,no,z,0,2.14594478074,-3,167
2,001,2,recog,81,HANDS,HF,lure,-,-,-,conservative,no,m,1,1.30616179524,3,170
2,001,2,recog,82,CHOICE,HF,lure,-,-,-,conservative,no,z,0,1.25335698658,-3,167
2,001,2,recog,83,OFFER,HF,target,left,yellow,pleasantness,conservative,no,m,0,1.06635520049,-1,166
2,001,2,recog,84,ENVIRONS,LF,target,left,yellow,pleasantness,conservative,no,m,0,0.773515036602,-1,165
2,001,2,recog,85,POSITION,HF,lure,-,-,-,liberal,no,m,1,0.986728593299,1,166
2,001,2,recog,86,HUSBAND,HF,lure,-,-,-,liberal,no,m,1,1.39982051102,1,167
2,001,2,recog,87,HAIRDO,LF,lure,-,-,-,liberal,no,m,1,1.15986874135,1,168
2,001,2,recog,88,AMONG,HF,lure,-,-,-,liberal,no,z,0,1.34659447514,-1,167
2,001,2,recog,89,FLYWHEEL,LF,lure,-,-,-,conservative,no,m,1,1.03972366908,3,170
2,001,2,recog,90,DICHOTOMY,LF,lure,-,-,-,liberal,yes,m,1,2.1995223892,1,171
2,001,2,recog,91,SUBJECT,HF,target,left,yellow,pleasantness,conservative,yes,z,1,1.30625271286,1,172
2,001,2,recog,92,CORNER,HF,lure,-,-,-,conservative,no,m,1,3.98540405551,3,175
2,001,2,recog,93,GENERAL,HF,target,left,yellow,pleasantness,liberal,no,z,1,1.55977467094,3,178
2,001,2,recog,94,OFTEN,HF,target,left,yellow,pleasantness,liberal,no,z,1,1.73309408801,3,181
2,001,2,recog,95,RUNNING,HF,target,right,aqua,imageability,liberal,no,m,0,2.01284761327,-3,178
2,001,3,source,0,CAKED,LF,target,right,aqua,imageability,liberal,no,1,0,1.65279256411,-,-
2,001,3,source,1,PUFFS,LF,target,left,yellow,pleasantness,liberal,no,2,1,0.666562917927,-,-
2,001,3,source,2,SUPPORT,HF,target,right,aqua,imageability,liberal,no,3,0,0.359994559607,-,-
2,001,3,source,3,SINCE,HF,target,left,yellow,pleasantness,liberal,yes,1,1,0.25381120809,-,-
2,001,3,source,4,FLOOR,HF,target,left,yellow,pleasantness,conservative,no,2,1,0.360221120457,-,-
2,001,3,source,5,MITIGATE,LF,target,right,aqua,imageability,conservative,no,3,0,0.226720689332,-,-
2,001,3,source,6,SENSE,HF,target,left,yellow,pleasantness,liberal,no,9,0,0.67987208477,-,-
2,001,3,source,7,BABBLED,LF,target,left,yellow,pleasantness,conservative,no,7,0,0.29368591774,-,-
2,001,3,source,8,TUCKER,LF,target,left,yellow,pleasantness,liberal,no,9,0,0.266777234227,-,-
2,001,3,source,9,DEGREE,HF,target,right,aqua,imageability,liberal,no,2,0,0.293569337885,-,-
2,001,3,source,10,MANDARIN,LF,target,left,yellow,pleasantness,liberal,no,8,0,0.293564938645,-,-
2,001,3,source,11,NETTLE,LF,target,right,aqua,imageability,conservative,no,1,0,1.06666278067,-,-
2,001,3,source,12,AGELESS,LF,target,right,aqua,imageability,liberal,no,1,0,0.733182439408,-,-
2,001,3,source,13,ATTACK,HF,target,right,aqua,imageability,liberal,no,9,1,0.786693692663,-,-
2,001,3,source,14,FREEDOM,HF,target,left,yellow,pleasantness,liberal,no,9,0,0.933390743413,-,-
2,001,3,source,15,PLIABLE,LF,target,left,yellow,pleasantness,conservative,no,9,0,0.26696090249,-,-
2,001,3,source,16,STYLED,LF,target,left,yellow,pleasantness,conservative,yes,9,0,0.0403435952931,-,-
2,001,3,source,17,INVOLVED,HF,target,left,yellow,pleasantness,conservative,no,9,0,0.34693138359,-,-
2,001,3,source,18,NATIONAL,HF,target,left,yellow,pleasantness,liberal,no,2,1,0.426835876094,-,-
2,001,3,source,19,CHIEF,HF,target,right,aqua,imageability,conservative,no,9,1,0.213597023768,-,-
2,001,3,source,20,SIMILAR,HF,target,right,aqua,imageability,conservative,no,1,0,0.280256505009,-,-
2,001,3,source,21,TRIED,HF,target,left,yellow,pleasantness,conservative,no,9,0,0.0801050245186,-,-
2,001,3,source,22,GLIDED,LF,target,right,aqua,imageability,liberal,no,9,1,0.37359004364,-,-
2,001,3,source,23,LUCERNE,LF,target,left,yellow,pleasantness,liberal,no,1,1,0.520076664086,-,-
2,001,3,source,24,BEGAN,HF,target,left,yellow,pleasantness,conservative,no,9,0,0.2136006898,-,-
2,001,3,source,25,OPENED,HF,target,left,yellow,pleasantness,conservative,no,1,1,0.306651577274,-,-
2,001,3,source,26,COVER,HF,target,right,aqua,imageability,liberal,no,9,1,0.213631851082,-,-
2,001,3,source,27,LAUNCHER,LF,target,left,yellow,pleasantness,conservative,no,2,1,0.200292622768,-,-
2,001,3,source,28,PROBABLY,HF,target,left,yellow,pleasantness,conservative,no,8,0,0.0671269004715,-,-
2,001,3,source,29,BYGONE,LF,target,left,yellow,pleasantness,liberal,no,1,1,0.240267415124,-,-
2,001,3,source,30,AMICABLY,LF,target,right,aqua,imageability,liberal,no,1,0,0.746472542878,-,-
2,001,3,source,31,JEERED,LF,target,right,aqua,imageability,conservative,yes,9,1,0.906455664461,-,-
2,001,3,source,32,LOCAL,HF,target,right,aqua,imageability,conservative,no,9,1,0.573348525375,-,-
2,001,3,source,33,HOTEL,HF,target,right,aqua,imageability,conservative,no,8,1,0.333597654325,-,-
2,001,3,source,34,AWAITS,LF,target,right,aqua,imageability,conservative,no,8,1,0.333361561789,-,-
2,001,3,source,35,ZENITH,LF,target,right,aqua,imageability,conservative,no,8,1,0.359975129631,-,-
2,001,3,source,36,PUPPETS,LF,target,left,yellow,pleasantness,conservative,no,9,0,0.293591700688,-,-
2,001,3,source,37,JELLIES,LF,target,left,yellow,pleasantness,liberal,no,8,0,0.346762379461,-,-
2,001,3,source,38,UNSAVOURY,LF,target,right,aqua,imageability,liberal,no,9,1,0.93346113125,-,-
2,001,3,source,39,NORTH,HF,target,right,aqua,imageability,liberal,no,1,0,0.54696115178,-,-
2,001,3,source,40,CLEAR,HF,target,right,aqua,imageability,liberal,yes,8,1,0.200268426949,-,-
2,001,3,source,41,STAFF,HF,target,right,aqua,imageability,conservative,no,9,1,0.986644641139,-,-
2,001,3,source,42,RESEARCH,HF,target,right,aqua,imageability,conservative,no,7,1,1.17332674914,-,-
2,001,3,source,43,BIJOU,LF,target,left,yellow,pleasantness,conservative,no,8,0,0.360347231998,-,-
2,001,3,source,44,EMOTIVE,LF,target,right,aqua,imageability,conservative,no,9,1,0.253694994838,-,-
2,001,3,source,45,CUBED,LF,target,right,aqua,imageability,liberal,no,8,1,0.49331132247,-,-
2,001,3,source,46,LEARN,HF,target,left,yellow,pleasantness,liberal,no,7,0,0.21361718695,-,-
2,001,3,source,47,DIFFERENT,HF,target,left,yellow,pleasantness,liberal,no,8,0,0.213631117876,-,-
2,001,3,recog,0,LIZARD,LF,lure,-,-,-,conservative,no,z,0,2.3327328371,-3,175
2,001,3,recog,1,NATIONAL,HF,target,left,yellow,pleasantness,liberal,no,z,1,1.14645765878,3,178
2,001,3,recog,2,CLUBBED,LF,lure,-,-,-,liberal,no,m,1,1.98626923934,1,179
2,001,3,recog,3,HISTORY,HF,lure,-,-,-,conservative,no,z,0,1.78625376868,-3,176
2,001,3,recog,4,PUPPETS,LF,target,left,yellow,pleasantness,conservative,no,z,1,0.706747040778,1,177
2,001,3,recog,5,TRIED,HF,target,left,yellow,pleasantness,conservative,no,z,1,0.813368483259,1,178
2,001,3,recog,6,HOMESTEAD,LF,lure,-,-,-,liberal,no,z,0,1.07993528718,-1,177
2,001,3,recog,7,MAJOR,HF,lure,-,-,-,liberal,no,z,0,0.773389658267,-1,176
2,001,3,recog,8,LOCAL,HF,target,right,aqua,imageability,conservative,no,z,1,0.999946109313,1,177
2,001,3,recog,9,WALKED,HF,lure,-,-,-,liberal,no,z,0,1.14661016576,-1,176
2,001,3,recog,10,PICTURE,HF,lure,-,-,-,liberal,yes,m,1,1.23987368316,1,177
2,001,3,recog,11,LAUNCHER,LF,target,left,yellow,pleasantness,conservative,no,z,1,1.19969652577,1,178
2,001,3,recog,12,SOVIET,HF,lure,-,-,-,liberal,no,z,0,1.34648302773,-1,177
2,001,3,recog,13,LUCERNE,LF,target,left,yellow,pleasantness,liberal,no,z,1,1.06661145621,3,180
2,001,3,recog,14,MELODIC,LF,lure,-,-,-,conservative,no,m,1,1.21301302468,3,183
2,001,3,recog,15,BORAX,LF,lure,-,-,-,liberal,no,m,1,1.15971696757,1,184
2,001,3,recog,16,SIMILAR,HF,target,right,aqua,imageability,conservative,no,z,1,1.13331712947,1,185
2,001,3,recog,17,AWAITS,LF,target,right,aqua,imageability,conservative,no,z,1,1.37312922327,1,186
2,001,3,recog,18,STYLED,LF,target,left,yellow,pleasantness,conservative,no,z,1,1.38650584512,1,187
2,001,3,recog,19,UNSAVOURY,LF,target,right,aqua,imageability,liberal,no,m,0,1.1733553442,-3,184
2,001,3,recog,20,PALATABLE,LF,lure,-,-,-,liberal,no,z,0,0.586802867131,-1,183
2,001,3,recog,21,CHAIR,HF,lure,-,-,-,conservative,no,m,1,0.586885719481,3,186
2,001,3,recog,22,MICROCOSM,LF,lure,-,-,-,liberal,no,m,1,1.17320686985,1,187
2,001,3,recog,23,INDEED,HF,lure,-,-,-,conservative,no,z,0,0.666722023768,-3,184
2,001,3,recog,24,SUPPORT,HF,target,right,aqua,imageability,liberal,no,m,0,0.373553016706,-3,181
2,001,3,recog,25,COVER,HF,target,right,aqua,imageability,liberal,no,m,0,0.773385992234,-3,178
2,001,3,recog,26,TUCKER,LF,target,left,yellow,pleasantness,liberal,no,z,1,0.46681726731,3,181
2,001,3,recog,27,BABBLED,LF,target,left,yellow,pleasantness,conservative,no,m,0,1.09323712196,-1,180
2,001,3,recog,28,INCLUDING,HF,lure,-,-,-,conservative,no,z,0,0.426890133385,-3,177
2,001,3,recog,29,HOTEL,HF,target,right,aqua,imageability,conservative,no,z,1,1.67977016905,1,178
2,001,3,recog,30,EBULLIENT,LF,lure,-,-,-,liberal,no,z,0,1.83968216959,-1,177
2,001,3,recog,31,CLEAR,HF,target,right,aqua,imageability,liberal,no,m,0,0.866703766922,-3,174
2,001,3,recog,32,FREEDOM,HF,target,left,yellow,pleasantness,liberal,no,z,1,0.160458606086,3,177
2,001,3,recog,33,RESEARCH,HF,target,right,aqua,imageability,conservative,no,z,1,1.892945599,1,178
2,001,3,recog,34,FLOOR,HF,target,left,yellow,pleasantness,conservative,no,z,1,0.959745122709,1,179
2,001,3,recog,35,RABBIS,LF,lure,-,-,-,conservative,no,m,1,1.58640216971,3,182
2,001,3,recog,36,BOMBARDED,LF,lure,-,-,-,liberal,no,z,0,1.58637430785,-1,181
2,001,3,recog,37,EMOTIVE,LF,target,right,aqua,imageability,conservative,no,m,0,0.866713665212,-1,180
2,001,3,recog,38,TEACUP,LF,lure,-,-,-,conservative,no,m,1,0.92000642289,3,183
2,001,3,recog,39,SHIELDING,LF,lure,-,-,-,liberal,no,m,1,1.57310950001,1,184
2,001,3,recog,40,DIFFERENT,HF,target,left,yellow,pleasantness,liberal,no,z,1,1.02661320124,3,187
2,001,3,recog,41,AFRAID,HF,lure,-,-,-,conservative,no,m,1,1.34650978978,3,190
2,001,3,recog,42,DEGREE,HF,target,right,aqua,imageability,liberal,no,m,0,1.26659833181,-3,187
2,001,3,recog,43,PLIABLE,LF,target,left,yellow,pleasantness,conservative,no,m,0,0.920150864597,-1,186
2,001,3,recog,44,BYGONE,LF,target,left,yellow,pleasantness,liberal,no,z,1,0.600238878722,3,189
2,001,3,recog,45,ATTACK,HF,target,right,aqua,imageability,liberal,no,z,1,1.43956800931,3,192
2,001,3,recog,46,WAITING,HF,lure,-,-,-,liberal,no,m,1,2.07964860339,1,193
2,001,3,recog,47,STAFF,HF,target,right,aqua,imageability,conservative,no,m,0,1.22655388482,-1,192
2,001,3,recog,48,MANDARIN,LF,target,left,yellow,pleasantness,liberal,no,z,1,0.906636399897,3,195
2,001,3,recog,49,VISCOUS,LF,lure,-,-,-,conservative,yes,z,0,1.94637399991,-3,192
2,001,3,recog,50,MEETING,HF,lure,-,-,-,liberal,no,m,1,1.13309826729,1,193
2,001,3,recog,51,JELLIES,LF,target,left,yellow,pleasantness,liberal,no,m,0,1.18668760705,-3,190
2,001,3,recog,52,CHIEF,HF,target,right,aqua,imageability,conservative,no,m,0,1.05304493384,-1,189
2,001,3,recog,53,PAPER,HF,lure,-,-,-,conservative,no,z,0,1.00003006147,-3,186
2,001,3,recog,54,INVOLVED,HF,target,left,yellow,pleasantness,conservative,no,m,0,0.240264482297,-1,185
2,001,3,recog,55,ALLOWED,HF,lure,-,-,-,liberal,no,m,1,0.760052996176,1,186
2,001,3,recog,56,MITIGATE,LF,target,right,aqua,imageability,conservative,no,m,0,0.666751352033,-1,185
2,001,3,recog,57,LEARN,HF,target,left,yellow,pleasantness,liberal,no,z,1,0.959742923089,3,188
2,001,3,recog,58,ZENITH,LF,target,right,aqua,imageability,conservative,no,z,1,1.2931726731,1,189
2,001,3,recog,59,LEVEL,HF,lure,-,-,-,conservative,no,z,0,1.1865493976,-3,186
2,001,3,recog,60,GLIDED,LF,target,right,aqua,imageability,liberal,no,z,1,0.853328611483,3,189
2,001,3,recog,61,HOSPITAL,HF,lure,-,-,-,liberal,no,m,1,1.18657396002,1,190
2,001,3,recog,62,FIDDLED,LF,lure,-,-,-,conservative,no,m,1,1.11988185108,3,193
2,001,3,recog,63,MALIGNED,LF,lure,-,-,-,liberal,no,z,0,1.15986727493,-1,192
2,001,3,recog,64,REQUIRED,HF,lure,-,-,-,conservative,no,m,1,1.05301340595,3,195
2,001,3,recog,65,CUBED,LF,target,right,aqua,imageability,liberal,no,m,0,1.07861404883,-3,192
2,001,3,recog,66,STRAIGHT,HF,lure,-,-,-,liberal,no,z,0,0.759819469862,-1,191
2,001,3,recog,67,GORGED,LF,lure,-,-,-,liberal,yes,z,0,1.71970756787,-1,190
2,001,3,recog,68,LIVED,HF,lure,-,-,-,conservative,no,m,1,0.826470885831,3,193
2,001,3,recog,69,CAKED,LF,target,right,aqua,imageability,liberal,no,m,0,1.90650515591,-3,190
2,001,3,recog,70,ADVERSELY,LF,lure,-,-,-,liberal,no,z,0,0.773375727341,-1,189
2,001,3,recog,71,HOPPER,LF,lure,-,-,-,conservative,no,m,1,2.17281607072,3,192
2,001,3,recog,72,SINCE,HF,target,left,yellow,pleasantness,liberal,no,m,0,1.47991893667,-3,189
2,001,3,recog,73,NORTH,HF,target,right,aqua,imageability,liberal,no,z,1,1.6664269081,3,192
2,001,3,recog,74,BEGAN,HF,target,left,yellow,pleasantness,conservative,no,z,1,1.266508514,1,193
2,001,3,recog,75,GEARING,LF,lure,-,-,-,conservative,no,z,0,1.99953661341,-3,190
2,001,3,recog,76,PROBABLY,HF,target,left,yellow,pleasantness,conservative,no,m,0,2.47944748481,-1,189
2,001,3,recog,77,PUFFS,LF,target,left,yellow,pleasantness,liberal,no,z,1,1.23990631086,3,192
2,001,3,recog,78,GLASS,HF,lure,-,-,-,conservative,no,z,0,3.05226626839,-3,189
2,001,3,recog,79,TOGETHER,HF,lure,-,-,-,conservative,no,z,0,0.97333144166,-3,186
2,001,3,recog,80,ADOPTIVE,LF,lure,-,-,-,conservative,no,m,1,1.00012831116,3,189
2,001,3,recog,81,JEALOUSLY,LF,lure,-,-,-,conservative,no,m,1,2.3327434686,3,192
2,001,3,recog,82,NETTLE,LF,target,right,aqua,imageability,conservative,no,z,1,1.31983426597,1,193
2,001,3,recog,83,OPENED,HF,target,left,yellow,pleasantness,conservative,no,z,1,1.43978137245,1,194
2,001,3,recog,84,HUNDRED,HF,lure,-,-,-,conservative,no,m,1,1.18654059912,3,197
2,001,3,recog,85,SENSE,HF,target,left,yellow,pleasantness,liberal,yes,m,0,1.4798217868,-3,194
2,001,3,recog,86,EXCEPT,HF,lure,-,-,-,liberal,no,m,1,1.11970221546,1,195
2,001,3,recog,87,JEERED,LF,target,right,aqua,imageability,conservative,no,z,1,1.65307998111,1,196
2,001,3,recog,88,PACIFISM,LF,lure,-,-,-,liberal,no,m,1,1.34647459586,1,197
2,001,3,recog,89,EASILY,HF,lure,-,-,-,liberal,no,m,1,1.27991519732,1,198
2,001,3,recog,90,MOUTH,HF,lure,-,-,-,liberal,no,m,1,1.10670356162,1,199
2,001,3,recog,91,JUNCTURE,LF,lure,-,-,-,conservative,no,z,0,1.10635052263,-3,196
2,001,3,recog,92,BIJOU,LF,target,left,yellow,pleasantness,conservative,no,m,0,1.17323803114,-1,195
2,001,3,recog,93,AMICABLY,LF,target,right,aqua,imageability,liberal,no,m,0,1.39983444194,-3,192
2,001,3,recog,94,AGELESS,LF,target,right,aqua,imageability,liberal,no,z,1,1.03995279616,3,195
2,001,3,recog,95,VOUCH,LF,lure,-,-,-,conservative,no,z,0,1.04013243178,-3,192
2,001,4,source,0,ACACIA,LF,target,right,aqua,imageability,liberal,no,1,0,1.79963515638,-,-
2,001,4,source,1,CASES,HF,target,right,aqua,imageability,liberal,yes,7,1,2.86584298233,-,-
2,001,4,source,2,INSIDE,HF,target,left,yellow,pleasantness,liberal,no,2,1,1.826047459,-,-
2,001,4,source,3,ANYONE,HF,target,left,yellow,pleasantness,conservative,yes,7,0,3.39902791464,-,-
2,001,4,source,4,LEFTISTS,LF,target,left,yellow,pleasantness,liberal,no,1,1,3.02583123636,-,-
2,001,4,source,5,CERTAIN,HF,target,left,yellow,pleasantness,conservative,no,9,0,1.51950256329,-,-
2,001,4,source,6,JOTTED,LF,target,right,aqua,imageability,conservative,no,9,1,0.147021128083,-,-
2,001,4,source,7,FOAMING,LF,target,left,yellow,pleasantness,conservative,no,1,1,0.33358482321,-,-
2,001,4,source,8,TODAY,HF,target,right,aqua,imageability,conservative,no,9,1,0.41331664555,-,-
2,001,4,source,9,WHATEVER,HF,target,right,aqua,imageability,conservative,no,1,0,0.333600953755,-,-
2,001,4,source,10,TETHER,LF,target,left,yellow,pleasantness,conservative,no,8,0,0.346860995753,-,-
2,001,4,source,11,ENERGY,HF,target,right,aqua,imageability,liberal,yes,2,0,0.240059184439,-,-
2,001,4,source,12,STUDENT,HF,target,right,aqua,imageability,conservative,no,9,1,0.213564762676,-,-
2,001,4,source,13,FEELING,HF,target,right,aqua,imageability,liberal,no,3,0,0.160272004998,-,-
2,001,4,source,14,SPACE,HF,target,left,yellow,pleasantness,conservative,no,2,1,0.293310882546,-,-
2,001,4,source,15,HYSTERICS,LF,target,right,aqua,imageability,conservative,no,9,1,0.333650811806,-,-
2,001,4,source,16,WITHIN,HF,target,left,yellow,pleasantness,conservative,no,2,1,0.306695936276,-,-
2,001,4,source,17,WONDROUS,LF,target,left,yellow,pleasantness,liberal,no,9,0,0.320257692804,-,-
2,001,4,source,18,WHITE,HF,target,right,aqua,imageability,conservative,no,8,1,0.253552019544,-,-
2,001,4,source,19,TROUBLE,HF,target,right,aqua,imageability,liberal,no,9,1,0.133674567701,-,-
2,001,4,source,20,DIVAN,LF,target,right,aqua,imageability,liberal,no,9,1,0.333411053236,-,-
2,001,4,source,21,CEMENTED,LF,target,right,aqua,imageability,liberal,no,9,1,0.266698781117,-,-
2,001,4,source,22,FAKING,LF,target,left,yellow,pleasantness,conservative,no,9,0,0.533508276436,-,-
2,001,4,source,23,VALUE,HF,target,left,yellow,pleasantness,liberal,no,2,1,0.106783847751,-,-
2,001,4,source,24,EIGHT,HF,target,left,yellow,pleasantness,liberal,no,9,0,0.359998592243,-,-
2,001,4,source,25,THOUSAND,HF,target,right,aqua,imageability,conservative,no,2,0,0.400214976185,-,-
2,001,4,source,26,ARMAMENT,LF,target,right,aqua,imageability,conservative,no,1,0,0.226503293564,-,-
2,001,4,source,27,MOMENT,HF,target,left,yellow,pleasantness,conservative,no,9,0,0.22707849417,-,-
2,001,4,source,28,INROADS,LF,target,left,yellow,pleasantness,liberal,no,2,1,0.200353478919,-,-
2,001,4,source,29,BEREAVED,LF,target,right,aqua,imageability,conservative,no,9,1,0.120328740527,-,-
2,001,4,source,30,SIZZLING,LF,target,right,aqua,imageability,conservative,no,2,0,0.253384481828,-,-
2,001,4,source,31,DULLED,LF,target,left,yellow,pleasantness,conservative,no,1,1,0.453567123601,-,-
2,001,4,source,32,FURTHER,HF,target,left,yellow,pleasantness,liberal,no,2,1,0.386877947491,-,-
2,001,4,source,33,POLICE,HF,target,right,aqua,imageability,conservative,no,1,0,0.719826713944,-,-
2,001,4,source,34,KILOWATT,LF,target,left,yellow,pleasantness,liberal,no,2,1,0.933390010206,-,-
2,001,4,source,35,GIVEN,HF,target,right,aqua,imageability,liberal,no,2,0,0.426896365641,-,-
2,001,4,source,36,POUNDS,HF,target,left,yellow,pleasantness,liberal,no,3,1,0.36046784449,-,-
2,001,4,source,37,VINEYARDS,LF,target,right,aqua,imageability,liberal,no,1,0,0.346676960888,-,-
2,001,4,source,38,DAWDLING,LF,target,left,yellow,pleasantness,liberal,no,8,0,0.814252363858,-,-
2,001,4,source,39,VEGAN,LF,target,right,aqua,imageability,liberal,no,7,1,0.240265582107,-,-
2,001,4,source,40,DYEING,LF,target,right,aqua,imageability,liberal,no,9,1,0.280267869712,-,-
2,001,4,source,41,TERMS,HF,target,left,yellow,pleasantness,liberal,no,9,0,0.360405888529,-,-
2,001,4,source,42,LOUDEST,LF,target,right,aqua,imageability,conservative,no,9,1,0.360204256704,-,-
2,001,4,source,43,FIGURE,HF,target,right,aqua,imageability,liberal,no,2,0,0.226929653223,-,-
2,001,4,source,44,FUDGE,LF,target,left,yellow,pleasantness,conservative,no,8,0,0.120367233876,-,-
2,001,4,source,45,LESSENED,LF,target,left,yellow,pleasantness,conservative,no,9,0,0.173691886042,-,-
2,001,4,source,46,REPORT,HF,target,left,yellow,pleasantness,conservative,no,9,0,0.160079538256,-,-
2,001,4,source,47,NOMAD,LF,target,left,yellow,pleasantness,liberal,yes,9,0,0.146963937965,-,-
2,001,4,recog,0,CRONE,LF,lure,-,-,-,liberal,no,z,0,1.23988651428,-1,191
2,001,4,recog,1,LONGER,HF,lure,-,-,-,conservative,no,z,0,1.39984727306,-3,188
2,001,4,recog,2,FURTHER,HF,target,left,yellow,pleasantness,liberal,no,m,0,1.05328249279,-3,185
2,001,4,recog,3,CASES,HF,target,right,aqua,imageability,liberal,no,m,0,0.826701845921,-3,182
2,001,4,recog,4,ACACIA,LF,target,right,aqua,imageability,liberal,no,m,0,0.866695335046,-3,179
2,001,4,recog,5,ARMAMENT,LF,target,right,aqua,imageability,conservative,no,z,1,1.70649958354,1,180
2,001,4,recog,6,FAKING,LF,target,left,yellow,pleasantness,conservative,no,m,0,1.39980034783,-1,179
2,001,4,recog,7,NOMAD,LF,target,left,yellow,pleasantness,liberal,no,z,1,0.879778307642,3,182
2,001,4,recog,8,BUILDING,HF,lure,-,-,-,conservative,no,z,0,1.95957721839,-3,179
2,001,4,recog,9,MOMENT,HF,target,left,yellow,pleasantness,conservative,no,z,1,0.906473994627,1,180
2,001,4,recog,10,IMMEDIACY,LF,lure,-,-,-,conservative,no,m,1,1.15958828981,3,183
2,001,4,recog,11,LESSENED,LF,target,left,yellow,pleasantness,conservative,no,z,1,2.79931401187,1,184
2,001,4,recog,12,DOSSIERS,LF,lure,-,-,-,liberal,no,z,0,1.93294092114,-1,183
2,001,4,recog,13,SMUDGE,LF,lure,-,-,-,conservative,no,z,0,0.866653542268,-3,180
2,001,4,recog,14,WOMAN,HF,lure,-,-,-,liberal,no,m,1,0.826658220126,1,181
2,001,4,recog,15,SNOBBISH,LF,lure,-,-,-,liberal,no,z,0,1.15990173565,-1,180
2,001,4,recog,16,WITHIN,HF,target,left,yellow,pleasantness,conservative,no,m,0,0.546618377678,-1,179
2,001,4,recog,17,KILOWATT,LF,target,left,yellow,pleasantness,liberal,no,z,1,0.466891687783,3,182
2,001,4,recog,18,BINDINGS,LF,lure,-,-,-,conservative,no,z,0,1.13301798116,-3,179
2,001,4,recog,19,EVENING,HF,lure,-,-,-,liberal,no,m,1,0.386950534947,1,180
2,001,4,recog,20,POUNDS,HF,target,left,yellow,pleasantness,liberal,no,z,1,1.13336882053,3,183
2,001,4,recog,21,TODAY,HF,target,right,aqua,imageability,conservative,no,z,1,1.07985536766,1,184
2,001,4,recog,22,SPACE,HF,target,left,yellow,pleasantness,conservative,no,m,0,1.46621823749,-1,183
2,001,4,recog,23,SOCIAL,HF,lure,-,-,-,conservative,no,m,1,0.88006865747,3,186
2,001,4,recog,24,GIVEN,HF,target,right,aqua,imageability,liberal,no,z,1,3.05244223798,3,189
2,001,4,recog,25,RAREFIED,LF,lure,-,-,-,conservative,yes,m,1,1.98633816077,3,192
2,001,4,recog,26,TROUBLE,HF,target,right,aqua,imageability,liberal,no,z,1,2.15961101922,3,195
2,001,4,recog,27,VEGAN,LF,target,right,aqua,imageability,liberal,no,z,1,1.25321767732,3,198
2,001,4,recog,28,ANYONE,HF,target,left,yellow,pleasantness,conservative,no,m,0,1.9993918051,-1,197
2,001,4,recog,29,INSIDE,HF,target,left,yellow,pleasantness,liberal,no,z,1,0.653349067948,3,200
2,001,4,recog,30,TRADE,HF,lure,-,-,-,liberal,no,m,1,2.71927277633,1,201
2,001,4,recog,31,MIDDLE,HF,lure,-,-,-,conservative,no,z,0,3.13229137338,-3,198
2,001,4,recog,32,DYEING,LF,target,right,aqua,imageability,liberal,no,m,0,1.11988698353,-3,195
2,001,4,recog,33,HACKNEY,LF,lure,-,-,-,liberal,no,m,1,1.23986048544,1,196
2,001,4,recog,34,MILES,HF,lure,-,-,-,liberal,no,m,1,1.50619706248,1,197
2,001,4,recog,35,FOAMING,LF,target,left,yellow,pleasantness,conservative,no,z,1,1.23965078834,1,198
2,001,4,recog,36,AUGMENT,LF,lure,-,-,-,liberal,no,z,0,2.95923957673,-1,197
2,001,4,recog,37,BRACES,LF,lure,-,-,-,conservative,yes,z,0,1.67970124762,-3,194
2,001,4,recog,38,LOUDEST,LF,target,right,aqua,imageability,conservative,no,m,0,1.11995260552,-1,193
2,001,4,recog,39,BETTER,HF,lure,-,-,-,conservative,no,m,1,0.706756939068,3,196
2,001,4,recog,40,CHROMIUM,LF,lure,-,-,-,conservative,no,z,0,1.27997568687,-3,193
2,001,4,recog,41,TURNED,HF,lure,-,-,-,liberal,no,m,1,0.440237426973,1,194
2,001,4,recog,42,DECIDED,HF,lure,-,-,-,conservative,no,z,0,0.760153812088,-3,191
2,001,4,recog,43,JOTTED,LF,target,right,aqua,imageability,conservative,no,m,0,0.22667633033,-1,190
2,001,4,recog,44,CEMENTED,LF,target,right,aqua,imageability,liberal,no,z,1,1.15967810762,3,193
2,001,4,recog,45,WONDROUS,LF,target,left,yellow,pleasantness,liberal,yes,z,1,1.27974802621,3,196
2,001,4,recog,46,ENERGY,HF,target,right,aqua,imageability,liberal,no,z,1,1.00018660109,3,199
2,001,4,recog,47,TETHER,LF,target,left,yellow,pleasantness,conservative,no,z,1,1.02636757702,1,200
2,001,4,recog,48,GALACTIC,LF,lure,-,-,-,liberal,no,z,0,1.26651327984,-1,199
2,001,4,recog,49,UNBEATEN,LF,lure,-,-,-,liberal,no,z,0,0.893314035335,-1,198
2,001,4,recog,50,SMIRK,LF,lure,-,-,-,conservative,no,z,0,1.15993656296,-3,195
2,001,4,recog,51,OUGHT,HF,lure,-,-,-,conservative,no,z,0,0.77340322259,-3,192
2,001,4,recog,52,VINEYARDS,LF,target,right,aqua,imageability,liberal,no,z,1,0.90663016764,3,195
2,001,4,recog,53,TAKEN,HF,lure,-,-,-,liberal,no,m,1,1.22650256036,1,196
2,001,4,recog,54,SLYLY,LF,lure,-,-,-,conservative,no,z,0,1.63968759532,-3,193
2,001,4,recog,55,CHEEKBONE,LF,lure,-,-,-,conservative,no,m,1,1.25330052967,3,196
2,001,4,recog,56,WHITE,HF,target,right,aqua,imageability,conservative,no,m,0,0.999917514254,-1,195
2,001,4,recog,57,THOUSAND,HF,target,right,aqua,imageability,conservative,no,z,1,0.933288461087,1,196
2,001,4,recog,58,WANTED,HF,lure,-,-,-,liberal,no,z,0,0.98671319596,-1,195
2,001,4,recog,59,STUDENT,HF,target,right,aqua,imageability,conservative,no,z,1,0.893330532484,1,196
2,001,4,recog,60,SEPULCHRE,LF,lure,-,-,-,liberal,no,m,1,1.30629890488,1,197
2,001,4,recog,61,HYSTERICS,LF,target,right,aqua,imageability,conservative,no,z,1,1.09332693977,1,198
2,001,4,recog,62,EARLIER,HF,lure,-,-,-,conservative,no,z,0,1.17321346871,-3,195
2,001,4,recog,63,SIZZLING,LF,target,right,aqua,imageability,conservative,no,m,0,0.559960172216,-1,194
2,001,4,recog,64,MONEY,HF,lure,-,-,-,liberal,no,z,0,0.813400744351,-1,193
2,001,4,recog,65,LOOKED,HF,lure,-,-,-,liberal,no,m,1,0.466584474203,1,194
2,001,4,recog,66,CERTAIN,HF,target,left,yellow,pleasantness,conservative,no,m,0,1.43977477359,-1,193
2,001,4,recog,67,DIVAN,LF,target,right,aqua,imageability,liberal,no,z,1,1.07992685531,3,196
2,001,4,recog,68,LAPELS,LF,lure,-,-,-,liberal,no,z,0,2.18625281551,-1,195
2,001,4,recog,69,MEMBERS,HF,lure,-,-,-,conservative,no,m,1,0.613423033833,3,198
2,001,4,recog,70,INLAID,LF,lure,-,-,-,liberal,no,m,1,2.5860810252,1,199
2,001,4,recog,71,TERMS,HF,target,left,yellow,pleasantness,liberal,no,z,1,1.35979659382,3,202
2,001,4,recog,72,BEREAVED,LF,target,right,aqua,imageability,conservative,no,m,0,1.74632516834,-1,201
2,001,4,recog,73,SLOWLY,HF,lure,-,-,-,liberal,no,z,0,0.720158489946,-1,200
2,001,4,recog,74,GANGWAY,LF,lure,-,-,-,conservative,no,m,1,0.653675711504,3,203
2,001,4,recog,75,LEFTISTS,LF,target,left,yellow,pleasantness,liberal,no,m,0,1.74633836606,-3,200
2,001,4,recog,76,HOLED,LF,lure,-,-,-,liberal,no,z,0,0.66651782572,-1,199
2,001,4,recog,77,UPROOTED,LF,lure,-,-,-,conservative,no,m,1,0.439964307501,3,202
2,001,4,recog,78,INROADS,LF,target,left,yellow,pleasantness,liberal,no,m,0,1.65302719023,-3,199
2,001,4,recog,79,REPORT,HF,target,left,yellow,pleasantness,conservative,no,m,0,1.78630106051,-1,198
2,001,4,recog,80,NIGHT,HF,lure,-,-,-,conservative,no,m,1,0.920009355717,3,201
2,001,4,recog,81,FUDGE,LF,target,left,yellow,pleasantness,conservative,yes,m,0,1.82628355154,-1,200
2,001,4,recog,82,FIGURE,HF,target,right,aqua,imageability,liberal,no,z,1,1.14858689085,3,203
2,001,4,recog,83,WHATEVER,HF,target,right,aqua,imageability,conservative,no,m,0,1.38649154759,-1,202
2,001,4,recog,84,FEELING,HF,target,right,aqua,imageability,liberal,no,z,1,1.49316358133,3,205
2,001,4,recog,85,DURING,HF,lure,-,-,-,liberal,no,z,0,1.61306706201,-1,204
2,001,4,recog,86,ENOUGH,HF,lure,-,-,-,conservative,no,z,0,1.01329816874,-3,201
2,001,4,recog,87,MERELY,HF,lure,-,-,-,liberal,no,z,0,0.89334556322,-1,200
2,001,4,recog,88,EIGHT,HF,target,left,yellow,pleasantness,liberal,no,m,0,1.4930935601,-3,197
2,001,4,recog,89,VALUE,HF,target,left,yellow,pleasantness,liberal,no,z,1,1.00010301553,3,200
2,001,4,recog,90,DULLED,LF,target,left,yellow,pleasantness,conservative,no,z,1,1.57302261503,1,201
2,001,4,recog,91,ALREADY,HF,lure,-,-,-,conservative,no,z,0,1.29321116644,-3,198
2,001,4,recog,92,POLICE,HF,target,right,aqua,imageability,conservative,no,z,1,1.15992556486,1,199
2,001,4,recog,93,PEPPERED,LF,lure,-,-,-,liberal,no,z,0,1.4665283839,-1,198
2,001,4,recog,94,TIPSY,LF,lure,-,-,-,conservative,no,m,1,0.999984969264,3,201
2,001,4,recog,95,DAWDLING,LF,target,left,yellow,pleasantness,liberal,no,z,1,5.01166678398,3,204
