date,subj,session,cycle,task,trial,item,wf,type,source,colour,encoding,bias,null,response,corr,rt,points,total
2019_Oct_23,20,001,0,source,0,ASCEND,LF,target,left,yellow,imageability,conservative,yes,1,1,3.90011892699,-,-
2019_Oct_23,20,001,0,source,1,WETTER,LF,target,left,yellow,imageability,liberal,no,1,1,1.36687876046,-,-
2019_Oct_23,20,001,0,source,2,SUPPORT,HF,target,left,yellow,imageability,conservative,no,8,0,1.85026380968,-,-
2019_Oct_23,20,001,0,source,3,GAPED,LF,target,left,yellow,imageability,liberal,no,7,0,3.30012530593,-,-
2019_Oct_23,20,001,0,source,4,LATER,HF,target,left,yellow,imageability,conservative,no,2,1,2.08342669566,-,-
2019_Oct_23,20,001,0,source,5,REACHED,HF,target,left,yellow,imageability,liberal,no,2,1,3.45014378288,-,-
2019_Oct_23,20,001,0,source,6,ROBBERIES,LF,target,left,yellow,imageability,conservative,no,1,1,1.70020463947,-,-
2019_Oct_23,20,001,0,source,7,LAGER,LF,target,right,aqua,pleasantness,conservative,no,3,0,4.06651516062,-,-
2019_Oct_23,20,001,0,source,8,MENFOLK,LF,target,right,aqua,pleasantness,liberal,no,9,1,2.33346372287,-,-
2019_Oct_23,20,001,0,source,9,PELTED,LF,target,left,yellow,imageability,conservative,no,8,0,1.56682750894,-,-
2019_Oct_23,20,001,0,source,10,STUDENT,HF,target,right,aqua,pleasantness,liberal,yes,7,1,1.80018762895,-,-
2019_Oct_23,20,001,0,source,11,ALREADY,HF,target,right,aqua,pleasantness,liberal,no,2,0,1.61686116337,-,-
2019_Oct_23,20,001,0,source,12,SMALL,HF,target,right,aqua,pleasantness,liberal,no,9,1,2.00016937197,-,-
2019_Oct_23,20,001,0,source,13,WHETHER,HF,target,left,yellow,imageability,liberal,no,3,1,1.73352252647,-,-
2019_Oct_23,20,001,0,source,14,TIGHTNESS,LF,target,right,aqua,pleasantness,liberal,no,9,1,1.45027832728,-,-
2019_Oct_23,20,001,0,source,15,MESSED,LF,target,left,yellow,imageability,conservative,no,1,1,2.899850938,-,-
2019_Oct_23,20,001,0,source,16,MOUTH,HF,target,left,yellow,imageability,conservative,no,1,1,2.83348938529,-,-
2019_Oct_23,20,001,0,source,17,BEHIND,HF,target,right,aqua,pleasantness,conservative,no,8,1,1.26665527744,-,-
2019_Oct_23,20,001,0,source,18,SPEAK,HF,target,left,yellow,imageability,liberal,no,2,1,1.70021673747,-,-
2019_Oct_23,20,001,0,source,19,MAMMAL,LF,target,right,aqua,pleasantness,conservative,no,9,1,1.58348205317,-,-
2019_Oct_23,20,001,0,source,20,MOTHER,HF,target,right,aqua,pleasantness,conservative,no,9,1,3.10007134153,-,-
2019_Oct_23,20,001,0,source,21,JEOPARDY,LF,target,left,yellow,imageability,liberal,no,1,1,1.2335243595,-,-
2019_Oct_23,20,001,0,source,22,GUSHED,LF,target,right,aqua,pleasantness,conservative,no,2,0,1.93354972864,-,-
2019_Oct_23,20,001,0,source,23,YONDER,LF,target,right,aqua,pleasantness,conservative,no,9,1,1.33359936709,-,-
2019_Oct_23,20,001,0,source,24,ADENOIDS,LF,target,left,yellow,imageability,liberal,no,1,1,1.31685170494,-,-
2019_Oct_23,20,001,0,source,25,GLASS,HF,target,left,yellow,imageability,liberal,yes,2,1,1.21694900217,-,-
2019_Oct_23,20,001,0,source,26,DEVELOPED,HF,target,right,aqua,pleasantness,liberal,no,9,1,1.18355302809,-,-
2019_Oct_23,20,001,0,source,27,NAUGHT,LF,target,left,yellow,imageability,conservative,yes,7,0,1.35001121814,-,-
2019_Oct_23,20,001,0,source,28,ALLOWED,HF,target,right,aqua,pleasantness,liberal,no,8,1,1.25022399627,-,-
2019_Oct_23,20,001,0,source,29,INSIDE,HF,target,left,yellow,imageability,liberal,no,1,1,1.61666172971,-,-
2019_Oct_23,20,001,0,source,30,OFFER,HF,target,left,yellow,imageability,conservative,no,7,0,1.1169847096,-,-
2019_Oct_23,20,001,0,source,31,LIGHT,HF,target,left,yellow,imageability,conservative,no,7,0,1.38354393626,-,-
2019_Oct_23,20,001,0,source,32,CAVERN,LF,target,right,aqua,pleasantness,liberal,no,9,1,1.31691916044,-,-
2019_Oct_23,20,001,0,source,33,HIKING,LF,target,left,yellow,imageability,liberal,no,1,1,4.13325835019,-,-
2019_Oct_23,20,001,0,source,34,LUCERNE,LF,target,left,yellow,imageability,conservative,no,1,1,1.16688711908,-,-
2019_Oct_23,20,001,0,source,35,KITCHEN,HF,target,left,yellow,imageability,conservative,no,1,1,1.56690522941,-,-
2019_Oct_23,20,001,0,source,36,POACHED,LF,target,left,yellow,imageability,liberal,no,1,1,1.25005535751,-,-
2019_Oct_23,20,001,0,source,37,GUARDSMEN,LF,target,right,aqua,pleasantness,liberal,no,9,1,1.31686196991,-,-
2019_Oct_23,20,001,0,source,38,WELCOMES,LF,target,right,aqua,pleasantness,conservative,no,8,1,1.63360589268,-,-
2019_Oct_23,20,001,0,source,39,EASILY,HF,target,right,aqua,pleasantness,conservative,no,3,0,1.46701095859,-,-
2019_Oct_23,20,001,0,source,40,DOING,HF,target,right,aqua,pleasantness,conservative,no,3,0,1.66690911544,-,-
2019_Oct_23,20,001,0,source,41,MADDENED,LF,target,right,aqua,pleasantness,liberal,no,3,0,1.73348476605,-,-
2019_Oct_23,20,001,0,source,42,TOTAL,HF,target,right,aqua,pleasantness,conservative,no,2,0,2.01696689254,-,-
2019_Oct_23,20,001,0,source,43,FUSELAGE,LF,target,right,aqua,pleasantness,conservative,no,8,1,2.93351820052,-,-
2019_Oct_23,20,001,0,source,44,TREES,HF,target,right,aqua,pleasantness,liberal,no,9,1,2.78351255479,-,-
2019_Oct_23,20,001,0,source,45,ALMOST,HF,target,left,yellow,imageability,liberal,no,8,0,0.933644679594,-,-
2019_Oct_23,20,001,0,source,46,BASIC,HF,target,right,aqua,pleasantness,conservative,no,9,1,4.25009201811,-,-
2019_Oct_23,20,001,0,source,47,CUSTODIAN,LF,target,right,aqua,pleasantness,liberal,no,9,1,1.23351152829,-,-
2019_Oct_23,20,001,0,recog,0,JINGLE,LF,lure,-,-,-,liberal,no,m,1,1.70013498433,1,1
2019_Oct_23,20,001,0,recog,1,ALLOWED,HF,target,right,aqua,pleasantness,liberal,no,z,1,2.46678109662,3,4
2019_Oct_23,20,001,0,recog,2,VAULTED,LF,lure,-,-,-,liberal,no,m,1,0.866898557186,1,5
2019_Oct_23,20,001,0,recog,3,SYSTEM,HF,lure,-,-,-,liberal,no,m,1,0.650283899691,1,6
2019_Oct_23,20,001,0,recog,4,MUGGING,LF,lure,-,-,-,liberal,no,m,1,2.00009238471,1,7
2019_Oct_23,20,001,0,recog,5,ROBBERIES,LF,target,left,yellow,imageability,conservative,no,z,1,1.1001857226,1,8
2019_Oct_23,20,001,0,recog,6,TIPSY,LF,lure,-,-,-,conservative,no,m,1,1.91689115174,3,11
2019_Oct_23,20,001,0,recog,7,PELTED,LF,target,left,yellow,imageability,conservative,no,z,1,1.30019716071,1,12
2019_Oct_23,20,001,0,recog,8,MOUTH,HF,target,left,yellow,imageability,conservative,no,z,1,0.950326352666,1,13
2019_Oct_23,20,001,0,recog,9,ORCHARDS,LF,lure,-,-,-,conservative,no,m,1,0.81700018037,3,16
2019_Oct_23,20,001,0,recog,10,MOTHER,HF,target,right,aqua,pleasantness,conservative,no,z,1,1.26690860219,1,17
2019_Oct_23,20,001,0,recog,11,SIESTA,LF,lure,-,-,-,conservative,no,m,1,1.06689129839,3,20
2019_Oct_23,20,001,0,recog,12,SMALL,HF,target,right,aqua,pleasantness,liberal,yes,z,1,1.43346907532,3,23
2019_Oct_23,20,001,0,recog,13,TIGHTNESS,LF,target,right,aqua,pleasantness,liberal,no,z,1,2.14996421925,3,26
2019_Oct_23,20,001,0,recog,14,GAPED,LF,target,left,yellow,imageability,liberal,no,z,1,0.900242473212,3,29
2019_Oct_23,20,001,0,recog,15,BEHIND,HF,target,right,aqua,pleasantness,conservative,no,z,1,0.833370604944,1,30
2019_Oct_23,20,001,0,recog,16,SHORT,HF,lure,-,-,-,conservative,no,m,1,1.06668819866,3,33
2019_Oct_23,20,001,0,recog,17,USUAL,HF,lure,-,-,-,liberal,no,m,1,0.966903543027,1,34
2019_Oct_23,20,001,0,recog,18,CAVERN,LF,target,right,aqua,pleasantness,liberal,no,z,1,0.800331705114,3,37
2019_Oct_23,20,001,0,recog,19,CUSTODIAN,LF,target,right,aqua,pleasantness,liberal,no,z,1,0.733660736937,3,40
2019_Oct_23,20,001,0,recog,20,ALREADY,HF,target,right,aqua,pleasantness,liberal,no,z,1,0.716864682791,3,43
2019_Oct_23,20,001,0,recog,21,PNEUMATIC,LF,lure,-,-,-,conservative,no,m,1,0.916661289779,3,46
2019_Oct_23,20,001,0,recog,22,POACHED,LF,target,left,yellow,imageability,liberal,yes,z,1,0.966924072963,3,49
2019_Oct_23,20,001,0,recog,23,SOUND,HF,lure,-,-,-,liberal,no,m,1,1.15025823727,1,50
2019_Oct_23,20,001,0,recog,24,SUDDENLY,HF,lure,-,-,-,liberal,no,m,1,1.85017912369,1,51
2019_Oct_23,20,001,0,recog,25,EVADING,LF,lure,-,-,-,conservative,no,m,1,0.850242913139,3,54
2019_Oct_23,20,001,0,recog,26,WHETHER,HF,target,left,yellow,imageability,liberal,no,z,1,0.833590201941,3,57
2019_Oct_23,20,001,0,recog,27,ASCEND,LF,target,left,yellow,imageability,conservative,no,z,1,1.10022274981,1,58
2019_Oct_23,20,001,0,recog,28,BRACES,LF,lure,-,-,-,conservative,no,m,1,0.766907502372,3,61
2019_Oct_23,20,001,0,recog,29,NAUGHT,LF,target,left,yellow,imageability,conservative,no,z,1,0.800300543603,1,62
2019_Oct_23,20,001,0,recog,30,KITCHEN,HF,target,left,yellow,imageability,conservative,no,z,1,0.800208525496,1,63
2019_Oct_23,20,001,0,recog,31,WELCOMES,LF,target,right,aqua,pleasantness,conservative,no,z,1,1.75025552439,1,64
2019_Oct_23,20,001,0,recog,32,SYNDICATE,LF,lure,-,-,-,liberal,no,m,1,1.58353594425,1,65
2019_Oct_23,20,001,0,recog,33,OFFER,HF,target,left,yellow,imageability,conservative,no,z,1,1.11689672416,1,66
2019_Oct_23,20,001,0,recog,34,AUDACIOUS,LF,lure,-,-,-,conservative,no,m,1,2.88351130833,3,69
2019_Oct_23,20,001,0,recog,35,MODERN,HF,lure,-,-,-,conservative,no,m,1,2.8334655559,3,72
2019_Oct_23,20,001,0,recog,36,KICKER,LF,lure,-,-,-,conservative,no,m,1,1.2169570675,3,75
2019_Oct_23,20,001,0,recog,37,BASIC,HF,target,right,aqua,pleasantness,conservative,no,z,1,0.766837480625,1,76
2019_Oct_23,20,001,0,recog,38,MAMMAL,LF,target,right,aqua,pleasantness,conservative,no,z,1,0.750246725842,1,77
2019_Oct_23,20,001,0,recog,39,ABHORRENT,LF,lure,-,-,-,liberal,no,m,1,0.916915714346,1,78
2019_Oct_23,20,001,0,recog,40,LATER,HF,target,left,yellow,imageability,conservative,no,m,0,0.966705575784,-1,77
2019_Oct_23,20,001,0,recog,41,WETTER,LF,target,left,yellow,imageability,liberal,no,z,1,1.48336965177,3,80
2019_Oct_23,20,001,0,recog,42,SEINE,LF,lure,-,-,-,liberal,no,m,1,0.683528832096,1,81
2019_Oct_23,20,001,0,recog,43,LAGER,LF,target,right,aqua,pleasantness,conservative,no,z,1,1.133515341,1,82
2019_Oct_23,20,001,0,recog,44,SENSE,HF,lure,-,-,-,liberal,no,m,1,0.916869888596,1,83
2019_Oct_23,20,001,0,recog,45,TIMES,HF,lure,-,-,-,conservative,no,z,0,1.88345595082,-3,80
2019_Oct_23,20,001,0,recog,46,UNDER,HF,lure,-,-,-,liberal,no,m,1,1.00025442457,1,81
2019_Oct_23,20,001,0,recog,47,GLASS,HF,target,left,yellow,imageability,liberal,no,z,1,0.783415404198,3,84
2019_Oct_23,20,001,0,recog,48,HIKING,LF,target,left,yellow,imageability,liberal,yes,z,1,0.866895990943,3,87
2019_Oct_23,20,001,0,recog,49,LARGE,HF,lure,-,-,-,liberal,no,z,0,1.10025977702,-1,86
2019_Oct_23,20,001,0,recog,50,EDUCATION,HF,lure,-,-,-,liberal,no,m,1,0.783644899557,1,87
2019_Oct_23,20,001,0,recog,51,FLYWHEEL,LF,lure,-,-,-,liberal,no,m,1,0.783560580176,1,88
2019_Oct_23,20,001,0,recog,52,ADENOIDS,LF,target,left,yellow,imageability,liberal,yes,m,0,0.916932944829,-3,85
2019_Oct_23,20,001,0,recog,53,LUCERNE,LF,target,left,yellow,imageability,conservative,no,z,1,1.38351387457,1,86
2019_Oct_23,20,001,0,recog,54,ENVIRONS,LF,lure,-,-,-,liberal,no,m,1,0.716881180061,1,87
2019_Oct_23,20,001,0,recog,55,PATCHY,LF,lure,-,-,-,conservative,no,z,0,0.966911241753,-3,84
2019_Oct_23,20,001,0,recog,56,VARIOUS,HF,lure,-,-,-,conservative,no,m,1,2.03351402121,3,87
2019_Oct_23,20,001,0,recog,57,BUILDING,HF,lure,-,-,-,liberal,no,m,1,0.983558453861,1,88
2019_Oct_23,20,001,0,recog,58,INSIDE,HF,target,left,yellow,imageability,liberal,no,z,1,3.00012024677,3,91
2019_Oct_23,20,001,0,recog,59,HIVES,LF,lure,-,-,-,conservative,no,m,1,1.03360823896,3,94
2019_Oct_23,20,001,0,recog,60,EASILY,HF,target,right,aqua,pleasantness,conservative,no,z,1,2.01684407953,1,95
2019_Oct_23,20,001,0,recog,61,HANDS,HF,lure,-,-,-,conservative,no,m,1,1.18331876685,3,98
2019_Oct_23,20,001,0,recog,62,NEITHER,HF,lure,-,-,-,conservative,no,z,0,1.20032085358,-3,95
2019_Oct_23,20,001,0,recog,63,GUSHED,LF,target,right,aqua,pleasantness,conservative,no,z,1,1.9835302252,1,96
2019_Oct_23,20,001,0,recog,64,MESSED,LF,target,left,yellow,imageability,conservative,no,z,1,0.9169006835,1,97
2019_Oct_23,20,001,0,recog,65,YONDER,LF,target,right,aqua,pleasantness,conservative,no,z,1,1.1002282489,1,98
2019_Oct_23,20,001,0,recog,66,SUPPORT,HF,target,left,yellow,imageability,conservative,no,m,0,0.950029768408,-1,97
2019_Oct_23,20,001,0,recog,67,LABOUR,HF,lure,-,-,-,conservative,no,m,1,1.1336440197,3,100
2019_Oct_23,20,001,0,recog,68,SECOND,HF,lure,-,-,-,conservative,no,m,1,1.33359790067,3,103
2019_Oct_23,20,001,0,recog,69,ROSEBUD,LF,lure,-,-,-,liberal,no,m,1,0.883604426254,1,104
2019_Oct_23,20,001,0,recog,70,MENFOLK,LF,target,right,aqua,pleasantness,liberal,no,z,1,0.816900830143,3,107
2019_Oct_23,20,001,0,recog,71,FUSELAGE,LF,target,right,aqua,pleasantness,conservative,no,z,1,1.06690816226,1,108
2019_Oct_23,20,001,0,recog,72,LASER,LF,lure,-,-,-,conservative,no,m,1,0.933605452751,3,111
2019_Oct_23,20,001,0,recog,73,DEVELOPED,HF,target,right,aqua,pleasantness,liberal,no,m,0,1.61688572598,-3,108
2019_Oct_23,20,001,0,recog,74,SPEAK,HF,target,left,yellow,imageability,liberal,no,z,1,2.31687810057,3,111
2019_Oct_23,20,001,0,recog,75,GUARDSMEN,LF,target,right,aqua,pleasantness,liberal,no,z,1,1.61690002361,3,114
2019_Oct_23,20,001,0,recog,76,DEDICATE,LF,lure,-,-,-,liberal,no,m,1,0.900252371574,1,115
2019_Oct_23,20,001,0,recog,77,VACATED,LF,lure,-,-,-,liberal,no,m,1,1.16684202654,1,116
2019_Oct_23,20,001,0,recog,78,EITHER,HF,lure,-,-,-,liberal,no,m,1,1.08366242332,1,117
2019_Oct_23,20,001,0,recog,79,TREES,HF,target,right,aqua,pleasantness,liberal,no,z,1,0.933556327546,3,120
2019_Oct_23,20,001,0,recog,80,VOICE,HF,lure,-,-,-,conservative,no,m,1,0.750372838308,3,123
2019_Oct_23,20,001,0,recog,81,REACHED,HF,target,left,yellow,imageability,liberal,no,m,0,0.983606112642,-3,120
2019_Oct_23,20,001,0,recog,82,STUDENT,HF,target,right,aqua,pleasantness,liberal,no,z,1,2.78350228982,3,123
2019_Oct_23,20,001,0,recog,83,JEOPARDY,LF,target,left,yellow,imageability,liberal,no,z,1,0.733578250585,3,126
2019_Oct_23,20,001,0,recog,84,YACHTING,LF,lure,-,-,-,conservative,no,m,1,0.833643726418,3,129
2019_Oct_23,20,001,0,recog,85,OBVIOUSLY,HF,lure,-,-,-,conservative,no,m,1,1.6335278056,3,132
2019_Oct_23,20,001,0,recog,86,HAPPEN,HF,lure,-,-,-,liberal,no,m,1,0.80024298646,1,133
2019_Oct_23,20,001,0,recog,87,ALMOST,HF,target,left,yellow,imageability,liberal,no,m,0,0.733573851313,-3,130
2019_Oct_23,20,001,0,recog,88,WALKED,HF,lure,-,-,-,liberal,no,z,0,0.91701726421,-1,129
2019_Oct_23,20,001,0,recog,89,SOMEONE,HF,lure,-,-,-,conservative,no,m,1,0.850235947625,3,132
2019_Oct_23,20,001,0,recog,90,TOTAL,HF,target,right,aqua,pleasantness,conservative,no,z,1,0.933503902887,1,133
2019_Oct_23,20,001,0,recog,91,FASCINATE,LF,lure,-,-,-,liberal,no,m,1,0.867117420971,1,134
2019_Oct_23,20,001,0,recog,92,DOING,HF,target,right,aqua,pleasantness,conservative,no,z,1,1.18357465785,1,135
2019_Oct_23,20,001,0,recog,93,LIGHT,HF,target,left,yellow,imageability,conservative,no,z,1,1.25016203985,1,136
2019_Oct_23,20,001,0,recog,94,MADDENED,LF,target,right,aqua,pleasantness,liberal,no,z,1,0.8500390802,3,139
2019_Oct_23,20,001,0,recog,95,PRIVATE,HF,lure,-,-,-,conservative,no,m,1,0.883567032442,3,142
2019_Oct_23,20,001,1,source,0,FOLLOWED,HF,target,left,yellow,imageability,conservative,no,1,1,2.38348711233,-,-
2019_Oct_23,20,001,1,source,1,GALACTIC,LF,target,left,yellow,imageability,conservative,yes,2,1,0.866903689669,-,-
2019_Oct_23,20,001,1,source,2,HOTEL,HF,target,left,yellow,imageability,liberal,no,1,1,1.40027876721,-,-
2019_Oct_23,20,001,1,source,3,LUNACY,LF,target,right,aqua,pleasantness,conservative,no,1,0,1.05035810075,-,-
2019_Oct_23,20,001,1,source,4,SLIGHTLY,HF,target,right,aqua,pleasantness,liberal,no,8,1,0.933605452751,-,-
2019_Oct_23,20,001,1,source,5,DOUBT,HF,target,left,yellow,imageability,liberal,no,7,0,0.750285219472,-,-
2019_Oct_23,20,001,1,source,6,ENZYME,LF,target,right,aqua,pleasantness,conservative,no,9,1,0.750276054322,-,-
2019_Oct_23,20,001,1,source,7,SLOWLY,HF,target,right,aqua,pleasantness,conservative,no,9,1,1.28333915015,-,-
2019_Oct_23,20,001,1,source,8,SUGARY,LF,target,left,yellow,imageability,liberal,no,1,1,0.950276494249,-,-
2019_Oct_23,20,001,1,source,9,POETICAL,LF,target,left,yellow,imageability,liberal,yes,2,1,0.700253764677,-,-
2019_Oct_23,20,001,1,source,10,CIPHER,LF,target,right,aqua,pleasantness,liberal,no,1,0,0.783584776172,-,-
2019_Oct_23,20,001,1,source,11,SORRY,HF,target,right,aqua,pleasantness,conservative,no,8,1,0.80020999192,-,-
2019_Oct_23,20,001,1,source,12,LEGALITY,LF,target,right,aqua,pleasantness,conservative,no,7,1,0.783577810658,-,-
2019_Oct_23,20,001,1,source,13,TRIED,HF,target,left,yellow,imageability,conservative,no,3,1,0.667018730634,-,-
2019_Oct_23,20,001,1,source,14,DRINK,HF,target,right,aqua,pleasantness,conservative,no,9,1,1.41686072345,-,-
2019_Oct_23,20,001,1,source,15,ENCLOSE,LF,target,right,aqua,pleasantness,liberal,no,8,1,0.700279793703,-,-
2019_Oct_23,20,001,1,source,16,DAUGHTER,HF,target,right,aqua,pleasantness,liberal,no,9,1,1.01695589436,-,-
2019_Oct_23,20,001,1,source,17,FAMILY,HF,target,right,aqua,pleasantness,conservative,no,9,1,0.583556107583,-,-
2019_Oct_23,20,001,1,source,18,SQUADRONS,LF,target,right,aqua,pleasantness,conservative,no,9,1,1.18354349634,-,-
2019_Oct_23,20,001,1,source,19,NOSTRIL,LF,target,left,yellow,imageability,liberal,no,1,1,1.01689503777,-,-
2019_Oct_23,20,001,1,source,20,PEACEABLY,LF,target,left,yellow,imageability,conservative,no,2,1,1.20024239989,-,-
2019_Oct_23,20,001,1,source,21,STAFF,HF,target,right,aqua,pleasantness,conservative,no,3,0,0.850229715323,-,-
2019_Oct_23,20,001,1,source,22,REDDENED,LF,target,right,aqua,pleasantness,conservative,no,1,0,1.10021285145,-,-
2019_Oct_23,20,001,1,source,23,POUNDS,HF,target,left,yellow,imageability,liberal,no,1,1,0.767002453327,-,-
2019_Oct_23,20,001,1,source,24,MEANS,HF,target,right,aqua,pleasantness,conservative,no,9,1,1.15022230988,-,-
2019_Oct_23,20,001,1,source,25,APART,HF,target,left,yellow,imageability,conservative,no,2,1,1.3668322015,-,-
2019_Oct_23,20,001,1,source,26,PLEASE,HF,target,left,yellow,imageability,liberal,no,7,0,1.51689943704,-,-
2019_Oct_23,20,001,1,source,27,NIGHT,HF,target,left,yellow,imageability,liberal,no,1,1,1.26687487444,-,-
2019_Oct_23,20,001,1,source,28,MIXER,LF,target,left,yellow,imageability,conservative,no,3,1,0.933573191423,-,-
2019_Oct_23,20,001,1,source,29,SALAMI,LF,target,left,yellow,imageability,liberal,no,1,1,0.683478607073,-,-
2019_Oct_23,20,001,1,source,30,JOBLESS,LF,target,right,aqua,pleasantness,liberal,no,9,1,1.00026542275,-,-
2019_Oct_23,20,001,1,source,31,HISTORY,HF,target,right,aqua,pleasantness,liberal,no,9,1,0.783370678265,-,-
2019_Oct_23,20,001,1,source,32,FRACTIONS,LF,target,left,yellow,imageability,conservative,no,1,1,0.883500676755,-,-
2019_Oct_23,20,001,1,source,33,BRING,HF,target,left,yellow,imageability,conservative,no,8,0,0.850035780746,-,-
2019_Oct_23,20,001,1,source,34,SUNBURN,LF,target,left,yellow,imageability,conservative,no,1,1,1.16689298477,-,-
2019_Oct_23,20,001,1,source,35,SPICED,LF,target,right,aqua,pleasantness,conservative,yes,3,0,0.816900830143,-,-
2019_Oct_23,20,001,1,source,36,CAMPANILE,LF,target,left,yellow,imageability,liberal,no,1,1,1.00029951711,-,-
2019_Oct_23,20,001,1,source,37,CENTRAL,HF,target,right,aqua,pleasantness,liberal,no,7,1,1.01688000692,-,-
2019_Oct_23,20,001,1,source,38,PROBABLY,HF,target,left,yellow,imageability,liberal,no,8,0,0.933390255026,-,-
2019_Oct_23,20,001,1,source,39,ENOUGH,HF,target,right,aqua,pleasantness,liberal,no,9,1,0.966899510361,-,-
2019_Oct_23,20,001,1,source,40,VENDETTA,LF,target,right,aqua,pleasantness,liberal,no,3,0,1.50020016688,-,-
2019_Oct_23,20,001,1,source,41,PYJAMA,LF,target,right,aqua,pleasantness,liberal,no,9,1,0.800238587188,-,-
2019_Oct_23,20,001,1,source,42,RUNNING,HF,target,left,yellow,imageability,conservative,no,1,1,1.68367950716,-,-
2019_Oct_23,20,001,1,source,43,LANGUAGE,HF,target,right,aqua,pleasantness,liberal,no,9,1,0.933603619721,-,-
2019_Oct_23,20,001,1,source,44,PURCHASER,LF,target,right,aqua,pleasantness,liberal,no,8,1,1.36662946838,-,-
2019_Oct_23,20,001,1,source,45,COUNCIL,HF,target,left,yellow,imageability,conservative,no,1,1,1.1002102852,-,-
2019_Oct_23,20,001,1,source,46,CREAK,LF,target,left,yellow,imageability,liberal,yes,7,0,1.05006408273,-,-
2019_Oct_23,20,001,1,source,47,GUMMED,LF,target,left,yellow,imageability,conservative,no,2,1,0.916897750652,-,-
2019_Oct_23,20,001,1,recog,0,CHOICE,HF,lure,-,-,-,conservative,no,m,1,1.04999552741,3,145
2019_Oct_23,20,001,1,recog,1,CAUGHT,HF,lure,-,-,-,conservative,no,m,1,1.01689320474,3,148
2019_Oct_23,20,001,1,recog,2,DWINDLE,LF,lure,-,-,-,conservative,no,m,1,0.683417750476,3,151
2019_Oct_23,20,001,1,recog,3,NIBBLE,LF,lure,-,-,-,conservative,no,m,1,0.700248632193,3,154
2019_Oct_23,20,001,1,recog,4,DILATED,LF,lure,-,-,-,conservative,no,m,1,0.750239760328,3,157
2019_Oct_23,20,001,1,recog,5,LEGALITY,LF,target,right,aqua,pleasantness,conservative,no,z,1,1.0334887254,1,158
2019_Oct_23,20,001,1,recog,6,VENDETTA,LF,target,right,aqua,pleasantness,liberal,no,z,1,0.766894671162,3,161
2019_Oct_23,20,001,1,recog,7,PLIABLE,LF,lure,-,-,-,liberal,no,m,1,0.900077133904,1,162
2019_Oct_23,20,001,1,recog,8,HEDGED,LF,lure,-,-,-,liberal,no,m,1,0.883575830986,1,163
2019_Oct_23,20,001,1,recog,9,UNION,HF,lure,-,-,-,liberal,no,m,1,0.916883453018,1,164
2019_Oct_23,20,001,1,recog,10,ASKED,HF,lure,-,-,-,conservative,no,m,1,0.933520400158,3,167
2019_Oct_23,20,001,1,recog,11,FRACTIONS,LF,target,left,yellow,imageability,conservative,no,z,1,0.733265169057,1,168
2019_Oct_23,20,001,1,recog,12,CENTRAL,HF,target,right,aqua,pleasantness,liberal,no,z,1,0.76694159673,3,171
2019_Oct_23,20,001,1,recog,13,LUNACY,LF,target,right,aqua,pleasantness,conservative,no,z,1,0.7169629332,1,172
2019_Oct_23,20,001,1,recog,14,DIVAN,LF,lure,-,-,-,liberal,no,m,1,0.68353213155,1,173
2019_Oct_23,20,001,1,recog,15,DECIDED,HF,lure,-,-,-,conservative,no,m,1,1.35017105836,3,176
2019_Oct_23,20,001,1,recog,16,STAFF,HF,target,right,aqua,pleasantness,conservative,no,z,1,0.900242106606,1,177
2019_Oct_23,20,001,1,recog,17,FAMILY,HF,target,right,aqua,pleasantness,conservative,no,z,1,0.666874287868,1,178
2019_Oct_23,20,001,1,recog,18,OUGHT,HF,lure,-,-,-,liberal,no,m,1,0.816718993564,1,179
2019_Oct_23,20,001,1,recog,19,UPHEAVALS,LF,lure,-,-,-,liberal,no,m,1,0.716938003992,1,180
2019_Oct_23,20,001,1,recog,20,ENCLOSE,LF,target,right,aqua,pleasantness,liberal,no,z,1,1.00002749545,3,183
2019_Oct_23,20,001,1,recog,21,SMOCK,LF,lure,-,-,-,liberal,no,m,1,0.783575244416,1,184
2019_Oct_23,20,001,1,recog,22,SUGARY,LF,target,left,yellow,imageability,liberal,no,z,1,0.750187335669,3,187
2019_Oct_23,20,001,1,recog,23,KERNEL,LF,lure,-,-,-,liberal,no,m,1,0.700267329099,1,188
2019_Oct_23,20,001,1,recog,24,SPICED,LF,target,right,aqua,pleasantness,conservative,no,z,1,0.816906695839,1,189
2019_Oct_23,20,001,1,recog,25,SWOOPING,LF,lure,-,-,-,liberal,no,m,1,0.883562999776,1,190
2019_Oct_23,20,001,1,recog,26,SLOWLY,HF,target,right,aqua,pleasantness,conservative,no,z,1,0.983583016464,1,191
2019_Oct_23,20,001,1,recog,27,SLIGHTLY,HF,target,right,aqua,pleasantness,liberal,no,m,0,0.850246945805,-3,188
2019_Oct_23,20,001,1,recog,28,GOBBLE,LF,lure,-,-,-,liberal,no,m,1,1.08355427455,1,189
2019_Oct_23,20,001,1,recog,29,LOCAL,HF,lure,-,-,-,liberal,no,m,1,1.83354437619,1,190
2019_Oct_23,20,001,1,recog,30,WADDLED,LF,lure,-,-,-,conservative,no,z,0,1.8335264125,-3,187
2019_Oct_23,20,001,1,recog,31,THOUSAND,HF,lure,-,-,-,conservative,no,m,1,1.30024152004,3,190
2019_Oct_23,20,001,1,recog,32,GALACTIC,LF,target,left,yellow,imageability,conservative,no,z,1,0.900253104786,1,191
2019_Oct_23,20,001,1,recog,33,VICEREGAL,LF,lure,-,-,-,conservative,no,m,1,0.950263296433,3,194
2019_Oct_23,20,001,1,recog,34,MEMBERS,HF,lure,-,-,-,liberal,no,z,0,1.45021893711,-1,193
2019_Oct_23,20,001,1,recog,35,MIXER,LF,target,left,yellow,imageability,conservative,no,z,1,0.900029841729,1,194
2019_Oct_23,20,001,1,recog,36,PLEASE,HF,target,left,yellow,imageability,liberal,no,z,1,0.783595774353,3,197
2019_Oct_23,20,001,1,recog,37,ENOUGH,HF,target,right,aqua,pleasantness,liberal,no,z,1,0.950223702985,3,200
2019_Oct_23,20,001,1,recog,38,NIGHT,HF,target,left,yellow,imageability,liberal,no,z,1,0.766933164792,3,203
2019_Oct_23,20,001,1,recog,39,BLOOD,HF,lure,-,-,-,conservative,no,m,1,0.783581843324,3,206
2019_Oct_23,20,001,1,recog,40,SALAMI,LF,target,left,yellow,imageability,liberal,no,z,1,0.800286979181,3,209
2019_Oct_23,20,001,1,recog,41,POETICAL,LF,target,left,yellow,imageability,liberal,no,z,1,1.28359614096,3,212
2019_Oct_23,20,001,1,recog,42,DRINK,HF,target,right,aqua,pleasantness,conservative,no,z,1,1.01686534268,1,213
2019_Oct_23,20,001,1,recog,43,CIPHER,LF,target,right,aqua,pleasantness,liberal,no,z,1,0.666922679861,3,216
2019_Oct_23,20,001,1,recog,44,PYJAMA,LF,target,right,aqua,pleasantness,liberal,no,z,1,0.8002393204,3,219
2019_Oct_23,20,001,1,recog,45,ENZYME,LF,target,right,aqua,pleasantness,conservative,no,z,1,0.766918133946,1,220
2019_Oct_23,20,001,1,recog,46,LANGUAGE,HF,target,right,aqua,pleasantness,liberal,no,z,1,0.766656010652,3,223
2019_Oct_23,20,001,1,recog,47,ATTACK,HF,lure,-,-,-,conservative,no,z,0,1.70019804056,-3,220
2019_Oct_23,20,001,1,recog,48,DAUGHTER,HF,target,right,aqua,pleasantness,liberal,no,z,1,0.783592108293,3,223
2019_Oct_23,20,001,1,recog,49,TABLE,HF,lure,-,-,-,liberal,no,m,1,0.96693177169,1,224
2019_Oct_23,20,001,1,recog,50,HISTORY,HF,target,right,aqua,pleasantness,liberal,no,z,1,0.816672434601,3,227
2019_Oct_23,20,001,1,recog,51,NEARLY,HF,lure,-,-,-,conservative,no,m,1,0.800308242329,3,230
2019_Oct_23,20,001,1,recog,52,CESSATION,LF,lure,-,-,-,liberal,no,m,1,0.816925392745,1,231
2019_Oct_23,20,001,1,recog,53,EXACTLY,HF,lure,-,-,-,liberal,no,z,0,0.766747662154,-1,230
2019_Oct_23,20,001,1,recog,54,SOLEMNITY,LF,lure,-,-,-,conservative,no,m,1,0.766904202918,3,233
2019_Oct_23,20,001,1,recog,55,FOLLOWED,HF,target,left,yellow,imageability,conservative,no,z,1,0.95020757232,1,234
2019_Oct_23,20,001,1,recog,56,FURTHER,HF,lure,-,-,-,liberal,no,m,1,0.800281113485,1,235
2019_Oct_23,20,001,1,recog,57,NOSTRIL,LF,target,left,yellow,imageability,liberal,no,z,1,0.800236387553,3,238
2019_Oct_23,20,001,1,recog,58,PICTURE,HF,lure,-,-,-,conservative,no,m,1,0.950244232921,3,241
2019_Oct_23,20,001,1,recog,59,HOTEL,HF,target,left,yellow,imageability,liberal,no,z,1,0.650321660109,3,244
2019_Oct_23,20,001,1,recog,60,ARTIFACTS,LF,lure,-,-,-,conservative,no,m,1,0.666923046467,3,247
2019_Oct_23,20,001,1,recog,61,SUNBURN,LF,target,left,yellow,imageability,conservative,yes,z,1,1.21685441782,1,248
2019_Oct_23,20,001,1,recog,62,HOURS,HF,lure,-,-,-,conservative,no,m,1,0.900243206424,3,251
2019_Oct_23,20,001,1,recog,63,DEGREE,HF,lure,-,-,-,liberal,no,z,0,1.00002272957,-1,250
2019_Oct_23,20,001,1,recog,64,PASSED,HF,lure,-,-,-,liberal,no,m,1,0.733548922105,1,251
2019_Oct_23,20,001,1,recog,65,QUESTION,HF,lure,-,-,-,liberal,no,m,1,0.750241593358,1,252
2019_Oct_23,20,001,1,recog,66,SQUADRONS,LF,target,right,aqua,pleasantness,conservative,no,z,1,0.850237780655,1,253
2019_Oct_23,20,001,1,recog,67,MEANS,HF,target,right,aqua,pleasantness,conservative,no,z,1,0.683543496336,1,254
2019_Oct_23,20,001,1,recog,68,BRING,HF,target,left,yellow,imageability,conservative,yes,m,0,1.06691806062,-1,253
2019_Oct_23,20,001,1,recog,69,HOPPER,LF,lure,-,-,-,conservative,no,m,1,1.333618064,3,256
2019_Oct_23,20,001,1,recog,70,COUNCIL,HF,target,left,yellow,imageability,conservative,yes,z,1,0.766896137586,1,257
2019_Oct_23,20,001,1,recog,71,GUMMED,LF,target,left,yellow,imageability,conservative,no,z,1,0.983560286891,1,258
2019_Oct_23,20,001,1,recog,72,DETACH,LF,lure,-,-,-,conservative,no,m,1,1.23339091492,3,261
2019_Oct_23,20,001,1,recog,73,DOUBT,HF,target,left,yellow,imageability,liberal,no,m,0,1.50023462784,-3,258
2019_Oct_23,20,001,1,recog,74,CAMPANILE,LF,target,left,yellow,imageability,liberal,no,z,1,0.933568425545,3,261
2019_Oct_23,20,001,1,recog,75,CHURCH,HF,lure,-,-,-,liberal,no,m,1,0.733665502815,1,262
2019_Oct_23,20,001,1,recog,76,APART,HF,target,left,yellow,imageability,conservative,no,z,1,0.733588515554,1,263
2019_Oct_23,20,001,1,recog,77,PEACEABLY,LF,target,left,yellow,imageability,conservative,no,z,1,0.833605232787,1,264
2019_Oct_23,20,001,1,recog,78,JADED,LF,lure,-,-,-,conservative,no,m,1,0.80024298646,3,267
2019_Oct_23,20,001,1,recog,79,TRIED,HF,target,left,yellow,imageability,conservative,no,z,1,0.833582503215,1,268
2019_Oct_23,20,001,1,recog,80,PROBABLY,HF,target,left,yellow,imageability,liberal,yes,m,0,0.733622243306,-3,265
2019_Oct_23,20,001,1,recog,81,REDDENED,LF,target,right,aqua,pleasantness,conservative,no,z,1,0.766897237404,1,266
2019_Oct_23,20,001,1,recog,82,GREATER,HF,lure,-,-,-,conservative,no,m,1,0.883607725708,3,269
2019_Oct_23,20,001,1,recog,83,CREAK,LF,target,left,yellow,imageability,liberal,no,m,0,0.833667922415,-3,266
2019_Oct_23,20,001,1,recog,84,MINISTER,HF,lure,-,-,-,liberal,no,m,1,0.833328078647,1,267
2019_Oct_23,20,001,1,recog,85,RUNNING,HF,target,left,yellow,imageability,conservative,no,z,1,0.666671921353,1,268
2019_Oct_23,20,001,1,recog,86,POUNDS,HF,target,left,yellow,imageability,liberal,no,z,1,0.600282506588,3,271
2019_Oct_23,20,001,1,recog,87,JOBLESS,LF,target,right,aqua,pleasantness,liberal,no,z,1,0.6668823532,3,274
2019_Oct_23,20,001,1,recog,88,PURCHASER,LF,target,right,aqua,pleasantness,liberal,no,z,1,0.650269968663,3,277
2019_Oct_23,20,001,1,recog,89,SUBJECT,HF,lure,-,-,-,conservative,no,m,1,0.800220623494,3,280
2019_Oct_23,20,001,1,recog,90,GLUTINOUS,LF,lure,-,-,-,conservative,no,m,1,0.866854931071,3,283
2019_Oct_23,20,001,1,recog,91,BACHELORS,LF,lure,-,-,-,conservative,no,m,1,0.733642406636,3,286
2019_Oct_23,20,001,1,recog,92,PRYING,LF,lure,-,-,-,liberal,no,m,1,0.700250465223,1,287
2019_Oct_23,20,001,1,recog,93,AFIELD,LF,lure,-,-,-,liberal,no,m,1,0.650234041274,1,288
2019_Oct_23,20,001,1,recog,94,SORRY,HF,target,right,aqua,pleasantness,conservative,no,m,0,0.950188508808,-1,287
2019_Oct_23,20,001,1,recog,95,LOANED,LF,lure,-,-,-,liberal,no,m,1,0.866658796858,1,288
2019_Oct_23,20,001,2,source,0,SKYLIGHT,LF,target,right,aqua,pleasantness,liberal,no,8,1,1.60025684417,-,-
2019_Oct_23,20,001,2,source,1,COERCION,LF,target,right,aqua,pleasantness,conservative,no,8,1,0.950063862766,-,-
2019_Oct_23,20,001,2,source,2,YOUNG,HF,target,right,aqua,pleasantness,conservative,no,8,1,0.766944529578,-,-
2019_Oct_23,20,001,2,source,3,TODAY,HF,target,left,yellow,imageability,conservative,no,7,0,0.883557867292,-,-
2019_Oct_23,20,001,2,source,4,BAOBAB,LF,target,right,aqua,pleasantness,liberal,no,9,1,0.750345342857,-,-
2019_Oct_23,20,001,2,source,5,VALUE,HF,target,right,aqua,pleasantness,liberal,no,3,0,1.15022854218,-,-
2019_Oct_23,20,001,2,source,6,SPOKE,HF,target,left,yellow,imageability,conservative,no,1,1,1.08355940704,-,-
2019_Oct_23,20,001,2,source,7,TIERS,LF,target,right,aqua,pleasantness,liberal,no,9,1,1.00027678753,-,-
2019_Oct_23,20,001,2,source,8,HURDLES,LF,target,right,aqua,pleasantness,conservative,no,3,0,1.53352721903,-,-
2019_Oct_23,20,001,2,source,9,BOOKS,HF,target,right,aqua,pleasantness,liberal,yes,2,0,0.633569232078,-,-
2019_Oct_23,20,001,2,source,10,SARDINES,LF,target,right,aqua,pleasantness,conservative,no,9,1,0.999980569882,-,-
2019_Oct_23,20,001,2,source,11,POSITION,HF,target,left,yellow,imageability,liberal,no,1,1,1.35018975527,-,-
2019_Oct_23,20,001,2,source,12,JABBED,LF,target,left,yellow,imageability,liberal,no,1,1,0.900230008608,-,-
2019_Oct_23,20,001,2,source,13,AREAS,HF,target,left,yellow,imageability,liberal,no,1,1,0.850198553813,-,-
2019_Oct_23,20,001,2,source,14,MAPPED,LF,target,left,yellow,imageability,conservative,no,1,1,0.750035194176,-,-
2019_Oct_23,20,001,2,source,15,CALLED,HF,target,right,aqua,pleasantness,conservative,no,3,0,1.01688953868,-,-
2019_Oct_23,20,001,2,source,16,WAITING,HF,target,left,yellow,imageability,conservative,no,8,0,1.28356681248,-,-
2019_Oct_23,20,001,2,source,17,GIRLS,HF,target,left,yellow,imageability,liberal,no,1,1,0.650338890592,-,-
2019_Oct_23,20,001,2,source,18,LUSCIOUS,LF,target,right,aqua,pleasantness,conservative,no,9,1,1.06688763233,-,-
2019_Oct_23,20,001,2,source,19,RIOTERS,LF,target,left,yellow,imageability,conservative,no,8,0,1.58347912032,-,-
2019_Oct_23,20,001,2,source,20,YEOMAN,LF,target,left,yellow,imageability,conservative,no,9,0,1.35025721077,-,-
2019_Oct_23,20,001,2,source,21,HIMSELF,HF,target,right,aqua,pleasantness,liberal,no,9,1,0.983564686163,-,-
2019_Oct_23,20,001,2,source,22,EMPATHY,LF,target,left,yellow,imageability,liberal,no,1,1,1.11693961706,-,-
2019_Oct_23,20,001,2,source,23,WIRING,LF,target,right,aqua,pleasantness,liberal,no,9,1,0.933525532642,-,-
2019_Oct_23,20,001,2,source,24,UNTIL,HF,target,right,aqua,pleasantness,liberal,no,2,0,1.36687069513,-,-
2019_Oct_23,20,001,2,source,25,HOSPITAL,HF,target,left,yellow,imageability,conservative,no,3,1,2.05025105179,-,-
2019_Oct_23,20,001,2,source,26,SOPHISTS,LF,target,right,aqua,pleasantness,conservative,no,9,1,1.13355456784,-,-
2019_Oct_23,20,001,2,source,27,EXPECT,HF,target,right,aqua,pleasantness,conservative,no,7,1,0.850231181747,-,-
2019_Oct_23,20,001,2,source,28,LOGGED,LF,target,left,yellow,imageability,liberal,no,1,1,1.21694386969,-,-
2019_Oct_23,20,001,2,source,29,ANGERS,LF,target,left,yellow,imageability,conservative,no,8,0,0.916875387686,-,-
2019_Oct_23,20,001,2,source,30,SUAVE,LF,target,left,yellow,imageability,liberal,no,1,1,1.36684869877,-,-
2019_Oct_23,20,001,2,source,31,LINEAGE,LF,target,right,aqua,pleasantness,liberal,no,1,0,2.80017993023,-,-
2019_Oct_23,20,001,2,source,32,ARPEGGIO,LF,target,right,aqua,pleasantness,liberal,no,9,1,0.733376983888,-,-
2019_Oct_23,20,001,2,source,33,REPORT,HF,target,left,yellow,imageability,liberal,no,8,0,1.61690735573,-,-
2019_Oct_23,20,001,2,source,34,FIELD,HF,target,left,yellow,imageability,liberal,no,1,1,0.800242619855,-,-
2019_Oct_23,20,001,2,source,35,ABSENCES,LF,target,left,yellow,imageability,conservative,no,1,1,1.9999754374,-,-
2019_Oct_23,20,001,2,source,36,WESTERN,HF,target,right,aqua,pleasantness,liberal,no,9,1,1.5166648092,-,-
2019_Oct_23,20,001,2,source,37,SINCE,HF,target,left,yellow,imageability,conservative,yes,8,0,0.700255597707,-,-
2019_Oct_23,20,001,2,source,38,PAMPERED,LF,target,left,yellow,imageability,liberal,no,7,0,1.03339267463,-,-
2019_Oct_23,20,001,2,source,39,ALONE,HF,target,right,aqua,pleasantness,conservative,no,9,1,0.983561753315,-,-
2019_Oct_23,20,001,2,source,40,AMONG,HF,target,left,yellow,imageability,liberal,no,3,1,1.11668262625,-,-
2019_Oct_23,20,001,2,source,41,KNUCKLE,LF,target,left,yellow,imageability,liberal,no,1,1,0.733596580886,-,-
2019_Oct_23,20,001,2,source,42,CANNOT,HF,target,right,aqua,pleasantness,conservative,no,9,1,0.933544596154,-,-
2019_Oct_23,20,001,2,source,43,TALKING,HF,target,right,aqua,pleasantness,conservative,yes,2,0,0.733386515645,-,-
2019_Oct_23,20,001,2,source,44,AHEAD,HF,target,left,yellow,imageability,conservative,no,3,1,0.850287639072,-,-
2019_Oct_23,20,001,2,source,45,MAKES,HF,target,right,aqua,pleasantness,liberal,yes,2,0,0.650283533085,-,-
2019_Oct_23,20,001,2,source,46,GAUCHE,LF,target,left,yellow,imageability,conservative,no,1,1,0.750347909099,-,-
2019_Oct_23,20,001,2,source,47,ANNALS,LF,target,right,aqua,pleasantness,conservative,no,9,1,1.10025647756,-,-
2019_Oct_23,20,001,2,recog,0,ALDER,LF,lure,-,-,-,liberal,no,m,1,1.16687758732,1,289
2019_Oct_23,20,001,2,recog,1,RUPTURE,LF,lure,-,-,-,liberal,no,z,0,2.93343461435,-1,288
2019_Oct_23,20,001,2,recog,2,AHEAD,HF,target,left,yellow,imageability,conservative,no,m,0,1.26695956042,-1,287
2019_Oct_23,20,001,2,recog,3,SADDER,LF,lure,-,-,-,liberal,no,m,1,1.25024709245,1,288
2019_Oct_23,20,001,2,recog,4,SARDINES,LF,target,right,aqua,pleasantness,conservative,yes,z,1,0.700218937106,1,289
2019_Oct_23,20,001,2,recog,5,SPRATS,LF,lure,-,-,-,liberal,no,m,1,0.750296584258,1,290
2019_Oct_23,20,001,2,recog,6,HURDLES,LF,target,right,aqua,pleasantness,conservative,no,z,1,0.683551561668,1,291
2019_Oct_23,20,001,2,recog,7,POWER,HF,lure,-,-,-,conservative,no,m,1,0.700281260128,3,294
2019_Oct_23,20,001,2,recog,8,CIRCUSES,LF,lure,-,-,-,liberal,no,m,1,0.999946842129,1,295
2019_Oct_23,20,001,2,recog,9,LINEAGE,LF,target,right,aqua,pleasantness,liberal,no,z,1,1.71685368461,3,298
2019_Oct_23,20,001,2,recog,10,SUAVE,LF,target,left,yellow,imageability,liberal,no,z,1,0.716907575693,3,301
2019_Oct_23,20,001,2,recog,11,SUMMER,HF,lure,-,-,-,conservative,no,m,1,1.0502272224,3,304
2019_Oct_23,20,001,2,recog,12,POINT,HF,lure,-,-,-,conservative,no,z,0,1.01697935715,-3,301
2019_Oct_23,20,001,2,recog,13,ARPEGGIO,LF,target,right,aqua,pleasantness,liberal,no,z,1,0.73357605095,3,304
2019_Oct_23,20,001,2,recog,14,TRYING,HF,lure,-,-,-,liberal,no,z,0,1.10026051023,-1,303
2019_Oct_23,20,001,2,recog,15,SOVIET,HF,lure,-,-,-,conservative,yes,z,0,0.583570038611,-3,300
2019_Oct_23,20,001,2,recog,16,CORNER,HF,lure,-,-,-,liberal,no,m,1,0.733553687983,1,301
2019_Oct_23,20,001,2,recog,17,SOPHISTS,LF,target,right,aqua,pleasantness,conservative,no,z,1,2.91689665083,1,302
2019_Oct_23,20,001,2,recog,18,REPORT,HF,target,left,yellow,imageability,liberal,no,z,1,3.28346892867,3,305
2019_Oct_23,20,001,2,recog,19,ASHEN,LF,lure,-,-,-,conservative,no,m,1,0.733377717101,3,308
2019_Oct_23,20,001,2,recog,20,NECESSARY,HF,lure,-,-,-,liberal,no,m,1,1.00015544095,1,309
2019_Oct_23,20,001,2,recog,21,WRONG,HF,lure,-,-,-,conservative,no,z,0,1.35018278975,-3,306
2019_Oct_23,20,001,2,recog,22,DODGED,LF,lure,-,-,-,conservative,no,m,1,1.10026747574,3,309
2019_Oct_23,20,001,2,recog,23,DOCTOR,HF,lure,-,-,-,liberal,no,m,1,0.883550168565,1,310
2019_Oct_23,20,001,2,recog,24,FIELD,HF,target,left,yellow,imageability,liberal,no,z,1,0.633580230258,3,313
2019_Oct_23,20,001,2,recog,25,GIRLS,HF,target,left,yellow,imageability,liberal,no,z,1,0.666912414893,3,316
2019_Oct_23,20,001,2,recog,26,TIERS,LF,target,right,aqua,pleasantness,liberal,no,z,1,0.60004274626,3,319
2019_Oct_23,20,001,2,recog,27,CANNOT,HF,target,right,aqua,pleasantness,conservative,no,z,1,0.633603326436,1,320
2019_Oct_23,20,001,2,recog,28,ACCORDING,HF,lure,-,-,-,conservative,no,m,1,0.750195767607,3,323
2019_Oct_23,20,001,2,recog,29,PREPARED,HF,lure,-,-,-,liberal,no,z,0,0.683562559848,-1,322
2019_Oct_23,20,001,2,recog,30,FUTURE,HF,lure,-,-,-,liberal,no,m,1,0.7835803769,1,323
2019_Oct_23,20,001,2,recog,31,SPUDS,LF,lure,-,-,-,liberal,no,m,1,0.66689518441,1,324
2019_Oct_23,20,001,2,recog,32,BAOBAB,LF,target,right,aqua,pleasantness,liberal,no,z,1,0.666958973855,3,327
2019_Oct_23,20,001,2,recog,33,EMPATHY,LF,target,left,yellow,imageability,liberal,no,z,1,0.76691043522,3,330
2019_Oct_23,20,001,2,recog,34,AREAS,HF,target,left,yellow,imageability,liberal,no,z,1,0.683592621541,3,333
2019_Oct_23,20,001,2,recog,35,LUSCIOUS,LF,target,right,aqua,pleasantness,conservative,no,z,1,0.566915494383,1,334
2019_Oct_23,20,001,2,recog,36,VALUE,HF,target,right,aqua,pleasantness,liberal,no,z,1,0.650177950555,3,337
2019_Oct_23,20,001,2,recog,37,FALCON,LF,lure,-,-,-,liberal,no,m,1,0.667005166212,1,338
2019_Oct_23,20,001,2,recog,38,HOBBLE,LF,lure,-,-,-,conservative,no,m,1,0.650204712793,3,341
2019_Oct_23,20,001,2,recog,39,WESTERN,HF,target,right,aqua,pleasantness,liberal,no,z,1,0.666916814164,3,344
2019_Oct_23,20,001,2,recog,40,NEPHEWS,LF,lure,-,-,-,liberal,no,m,1,0.85029057192,1,345
2019_Oct_23,20,001,2,recog,41,BOOKS,HF,target,right,aqua,pleasantness,liberal,no,z,1,0.800221356707,3,348
2019_Oct_23,20,001,2,recog,42,ALONE,HF,target,right,aqua,pleasantness,conservative,no,z,1,1.43356695912,1,349
2019_Oct_23,20,001,2,recog,43,NAPPY,LF,lure,-,-,-,conservative,no,m,1,0.733676867601,3,352
2019_Oct_23,20,001,2,recog,44,SNOBBISH,LF,lure,-,-,-,conservative,no,m,1,0.600042379654,3,355
2019_Oct_23,20,001,2,recog,45,SINCE,HF,target,left,yellow,imageability,conservative,no,z,1,0.650113794504,1,356
2019_Oct_23,20,001,2,recog,46,BELIEVE,HF,lure,-,-,-,liberal,no,m,1,0.716905009451,1,357
2019_Oct_23,20,001,2,recog,47,BORAX,LF,lure,-,-,-,conservative,no,m,1,0.650327892411,3,360
2019_Oct_23,20,001,2,recog,48,UNBEATEN,LF,lure,-,-,-,liberal,no,m,1,0.650216810792,1,361
2019_Oct_23,20,001,2,recog,49,WANTED,HF,lure,-,-,-,conservative,no,m,1,0.95033515121,3,364
2019_Oct_23,20,001,2,recog,50,AMONG,HF,target,left,yellow,imageability,liberal,no,z,1,0.716932871508,3,367
2019_Oct_23,20,001,2,recog,51,CALLED,HF,target,right,aqua,pleasantness,conservative,no,z,1,0.783633168165,1,368
2019_Oct_23,20,001,2,recog,52,YOUNG,HF,target,right,aqua,pleasantness,conservative,no,z,1,0.700287125824,1,369
2019_Oct_23,20,001,2,recog,53,UNTIL,HF,target,right,aqua,pleasantness,liberal,no,z,1,0.716894377877,3,372
2019_Oct_23,20,001,2,recog,54,INMATE,LF,lure,-,-,-,conservative,no,m,1,0.633630455281,3,375
2019_Oct_23,20,001,2,recog,55,MAKES,HF,target,right,aqua,pleasantness,liberal,no,m,0,0.716910508541,-3,372
2019_Oct_23,20,001,2,recog,56,SKYLIGHT,LF,target,right,aqua,pleasantness,liberal,no,z,1,0.566917327413,3,375
2019_Oct_23,20,001,2,recog,57,LIKELY,HF,lure,-,-,-,conservative,no,m,1,0.700285292794,3,378
2019_Oct_23,20,001,2,recog,58,HERSELF,HF,lure,-,-,-,conservative,no,m,1,0.966911241753,3,381
2019_Oct_23,20,001,2,recog,59,WIRING,LF,target,right,aqua,pleasantness,liberal,yes,m,0,0.950213804622,-3,378
2019_Oct_23,20,001,2,recog,60,MAPPED,LF,target,left,yellow,imageability,conservative,no,z,1,1.13359306147,1,379
2019_Oct_23,20,001,2,recog,61,FANATICS,LF,lure,-,-,-,conservative,no,m,1,0.750329212193,3,382
2019_Oct_23,20,001,2,recog,62,GIVEN,HF,lure,-,-,-,conservative,no,m,1,1.55024445288,3,385
2019_Oct_23,20,001,2,recog,63,GAUCHE,LF,target,left,yellow,imageability,conservative,no,z,1,0.666914981135,1,386
2019_Oct_23,20,001,2,recog,64,TODAY,HF,target,left,yellow,imageability,conservative,no,z,1,1.00018550264,1,387
2019_Oct_23,20,001,2,recog,65,TELEPHONE,HF,lure,-,-,-,liberal,no,m,1,0.916965206157,1,388
2019_Oct_23,20,001,2,recog,66,RATHER,HF,lure,-,-,-,liberal,no,m,1,1.05023162167,1,389
2019_Oct_23,20,001,2,recog,67,KNUCKLE,LF,target,left,yellow,imageability,liberal,no,z,1,1.00022509609,3,392
2019_Oct_23,20,001,2,recog,68,MYTHIC,LF,lure,-,-,-,liberal,no,z,0,1.23355222156,-1,391
2019_Oct_23,20,001,2,recog,69,FRIEND,HF,lure,-,-,-,liberal,no,m,1,2.56687260148,1,392
2019_Oct_23,20,001,2,recog,70,BROUGHT,HF,lure,-,-,-,conservative,no,m,1,0.766940863519,3,395
2019_Oct_23,20,001,2,recog,71,COERCION,LF,target,right,aqua,pleasantness,conservative,no,m,0,0.683583089784,-1,394
2019_Oct_23,20,001,2,recog,72,PIECE,HF,lure,-,-,-,liberal,no,m,1,0.783617037501,1,395
2019_Oct_23,20,001,2,recog,73,HAMLETS,LF,lure,-,-,-,conservative,no,m,1,0.800236020946,3,398
2019_Oct_23,20,001,2,recog,74,PAMPERED,LF,target,left,yellow,imageability,liberal,no,z,1,0.716945336112,3,401
2019_Oct_23,20,001,2,recog,75,TALKING,HF,target,right,aqua,pleasantness,conservative,no,m,0,0.966907942299,-1,400
2019_Oct_23,20,001,2,recog,76,WAITING,HF,target,left,yellow,imageability,conservative,no,z,1,2.43356219324,1,401
2019_Oct_23,20,001,2,recog,77,ANGERS,LF,target,left,yellow,imageability,conservative,no,z,1,0.766743262881,1,402
2019_Oct_23,20,001,2,recog,78,AROUND,HF,lure,-,-,-,conservative,no,z,0,0.933563659666,-3,399
2019_Oct_23,20,001,2,recog,79,RIOTERS,LF,target,left,yellow,imageability,conservative,yes,m,0,0.799993327771,-1,398
2019_Oct_23,20,001,2,recog,80,TOOTHACHE,LF,lure,-,-,-,conservative,no,m,1,1.05006628237,3,401
2019_Oct_23,20,001,2,recog,81,HOSPITAL,HF,target,left,yellow,imageability,conservative,no,z,1,1.05018579592,1,402
2019_Oct_23,20,001,2,recog,82,MAJOR,HF,lure,-,-,-,liberal,no,z,0,1.5502330881,-1,401
2019_Oct_23,20,001,2,recog,83,HIMSELF,HF,target,right,aqua,pleasantness,liberal,no,z,1,3.65019334801,3,404
2019_Oct_23,20,001,2,recog,84,JABBED,LF,target,left,yellow,imageability,liberal,no,z,1,0.683583822997,3,407
2019_Oct_23,20,001,2,recog,85,LOGGED,LF,target,left,yellow,imageability,liberal,no,z,1,0.666806465757,3,410
2019_Oct_23,20,001,2,recog,86,YEOMAN,LF,target,left,yellow,imageability,conservative,no,z,1,1.00025699081,1,411
2019_Oct_23,20,001,2,recog,87,GATEHOUSE,LF,lure,-,-,-,liberal,no,m,1,0.983610511914,1,412
2019_Oct_23,20,001,2,recog,88,ABSENCES,LF,target,left,yellow,imageability,conservative,no,z,1,2.63358169668,1,413
2019_Oct_23,20,001,2,recog,89,EXPECT,HF,target,right,aqua,pleasantness,conservative,no,z,1,2.16679363455,1,414
2019_Oct_23,20,001,2,recog,90,ANNALS,LF,target,right,aqua,pleasantness,conservative,no,z,1,1.15022560934,1,415
2019_Oct_23,20,001,2,recog,91,CULINARY,LF,lure,-,-,-,conservative,no,m,1,2.61655101469,3,418
2019_Oct_23,20,001,2,recog,92,POSITION,HF,target,left,yellow,imageability,liberal,no,z,1,1.28357817726,3,421
2019_Oct_23,20,001,2,recog,93,BURGH,LF,lure,-,-,-,liberal,no,m,1,2.48343637406,1,422
2019_Oct_23,20,001,2,recog,94,SPOKE,HF,target,left,yellow,imageability,conservative,no,z,1,1.06687883378,1,423
2019_Oct_23,20,001,2,recog,95,HOVELS,LF,lure,-,-,-,conservative,no,m,1,0.90034732253,3,426
2019_Oct_23,20,001,3,source,0,UPDATE,LF,target,right,aqua,pleasantness,liberal,no,8,1,1.28359540775,-,-
2019_Oct_23,20,001,3,source,1,ARCADES,LF,target,right,aqua,pleasantness,liberal,no,2,0,2.53338644232,-,-
2019_Oct_23,20,001,3,source,2,BIKINI,LF,target,left,yellow,imageability,liberal,yes,2,1,0.850232281565,-,-
2019_Oct_23,20,001,3,source,3,FORCE,HF,target,right,aqua,pleasantness,liberal,no,1,0,0.816696997204,-,-
2019_Oct_23,20,001,3,source,4,LAMENT,LF,target,right,aqua,pleasantness,liberal,no,8,1,1.58348205317,-,-
2019_Oct_23,20,001,3,source,5,RUFFLES,LF,target,left,yellow,imageability,conservative,no,7,0,0.900234774486,-,-
2019_Oct_23,20,001,3,source,6,EVENING,HF,target,left,yellow,imageability,liberal,no,9,0,1.8002272224,-,-
2019_Oct_23,20,001,3,source,7,YOGHURT,LF,target,left,yellow,imageability,conservative,no,1,1,0.816700663263,-,-
2019_Oct_23,20,001,3,source,8,EFFECT,HF,target,left,yellow,imageability,liberal,no,8,0,0.866860063555,-,-
2019_Oct_23,20,001,3,source,9,DULLED,LF,target,left,yellow,imageability,conservative,no,2,1,0.750272388262,-,-
2019_Oct_23,20,001,3,source,10,GENERAL,HF,target,right,aqua,pleasantness,conservative,no,2,0,0.783374710931,-,-
2019_Oct_23,20,001,3,source,11,SEVEN,HF,target,left,yellow,imageability,liberal,no,3,1,0.816930158623,-,-
2019_Oct_23,20,001,3,source,12,REQUIRED,HF,target,left,yellow,imageability,conservative,no,2,1,0.700237267407,-,-
2019_Oct_23,20,001,3,source,13,BREAK,HF,target,right,aqua,pleasantness,liberal,no,9,1,0.833314147619,-,-
2019_Oct_23,20,001,3,source,14,MARKET,HF,target,right,aqua,pleasantness,liberal,no,7,1,1.70022406959,-,-
2019_Oct_23,20,001,3,source,15,IRRIGATED,LF,target,left,yellow,imageability,liberal,no,1,1,1.36687289477,-,-
2019_Oct_23,20,001,3,source,16,UPROOTED,LF,target,right,aqua,pleasantness,conservative,no,9,1,0.866895990943,-,-
2019_Oct_23,20,001,3,source,17,CASES,HF,target,left,yellow,imageability,conservative,no,1,1,1.28355801393,-,-
2019_Oct_23,20,001,3,source,18,AFTERNOON,HF,target,right,aqua,pleasantness,conservative,no,9,1,0.95002683556,-,-
2019_Oct_23,20,001,3,source,19,EXCEPT,HF,target,right,aqua,pleasantness,conservative,no,8,1,0.900191514977,-,-
2019_Oct_23,20,001,3,source,20,ANSWER,HF,target,left,yellow,imageability,liberal,no,2,1,1.01692876552,-,-
2019_Oct_23,20,001,3,source,21,DUCHY,LF,target,left,yellow,imageability,liberal,no,1,1,0.833574804489,-,-
2019_Oct_23,20,001,3,source,22,ARRIVED,HF,target,right,aqua,pleasantness,conservative,no,3,0,0.800262783185,-,-
2019_Oct_23,20,001,3,source,23,VETOED,LF,target,left,yellow,imageability,conservative,no,1,1,0.666938443919,-,-
2019_Oct_23,20,001,3,source,24,APPEARED,HF,target,right,aqua,pleasantness,liberal,yes,2,0,0.65024907212,-,-
2019_Oct_23,20,001,3,source,25,ARDENTLY,LF,target,left,yellow,imageability,conservative,no,1,1,0.900263736361,-,-
2019_Oct_23,20,001,3,source,26,PRACTICE,HF,target,left,yellow,imageability,liberal,yes,8,0,0.700208672139,-,-
2019_Oct_23,20,001,3,source,27,THWART,LF,target,right,aqua,pleasantness,conservative,no,1,0,0.733467535572,-,-
2019_Oct_23,20,001,3,source,28,KRAALS,LF,target,right,aqua,pleasantness,conservative,no,9,1,0.700102723003,-,-
2019_Oct_23,20,001,3,source,29,SMIRK,LF,target,right,aqua,pleasantness,conservative,no,9,1,0.683566959121,-,-
2019_Oct_23,20,001,3,source,30,NAGGED,LF,target,left,yellow,imageability,liberal,no,7,0,1.20026073019,-,-
2019_Oct_23,20,001,3,source,31,PLACE,HF,target,left,yellow,imageability,conservative,no,1,1,0.983560286891,-,-
2019_Oct_23,20,001,3,source,32,NEEDED,HF,target,right,aqua,pleasantness,liberal,yes,2,0,0.666945776039,-,-
2019_Oct_23,20,001,3,source,33,FIGURE,HF,target,right,aqua,pleasantness,liberal,no,3,0,0.850271141802,-,-
2019_Oct_23,20,001,3,source,34,DUSTER,LF,target,right,aqua,pleasantness,conservative,no,9,1,1.08356600594,-,-
2019_Oct_23,20,001,3,source,35,ITSELF,HF,target,left,yellow,imageability,conservative,no,2,1,0.716958900534,-,-
2019_Oct_23,20,001,3,source,36,BUSINESS,HF,target,right,aqua,pleasantness,conservative,no,3,0,1.18355926039,-,-
2019_Oct_23,20,001,3,source,37,MORNING,HF,target,right,aqua,pleasantness,conservative,no,9,1,0.800241520037,-,-
2019_Oct_23,20,001,3,source,38,UNWARY,LF,target,right,aqua,pleasantness,liberal,no,8,1,1.05027158173,-,-
2019_Oct_23,20,001,3,source,39,LOOKED,HF,target,left,yellow,imageability,liberal,no,8,0,0.75024599263,-,-
2019_Oct_23,20,001,3,source,40,HATCHES,LF,target,right,aqua,pleasantness,liberal,no,2,0,2.16679436776,-,-
2019_Oct_23,20,001,3,source,41,GRIEVE,LF,target,right,aqua,pleasantness,conservative,no,9,1,0.816919893655,-,-
2019_Oct_23,20,001,3,source,42,SEEMED,HF,target,left,yellow,imageability,conservative,no,9,0,1.38358572935,-,-
2019_Oct_23,20,001,3,source,43,BEQUEST,LF,target,left,yellow,imageability,conservative,no,2,1,0.866695824064,-,-
2019_Oct_23,20,001,3,source,44,DOODLE,LF,target,right,aqua,pleasantness,liberal,no,9,1,0.866901123427,-,-
2019_Oct_23,20,001,3,source,45,HUNDRED,HF,target,left,yellow,imageability,conservative,no,7,0,1.13357986365,-,-
2019_Oct_23,20,001,3,source,46,EAVES,LF,target,left,yellow,imageability,liberal,no,8,0,0.666915714346,-,-
2019_Oct_23,20,001,3,source,47,JEERED,LF,target,left,yellow,imageability,liberal,no,3,1,1.53350302303,-,-
2019_Oct_23,20,001,3,recog,0,UNWARY,LF,target,right,aqua,pleasantness,liberal,no,z,1,1.11689635755,3,429
2019_Oct_23,20,001,3,recog,1,CLASS,HF,lure,-,-,-,conservative,no,m,1,1.75017230482,3,432
2019_Oct_23,20,001,3,recog,2,BREAK,HF,target,right,aqua,pleasantness,liberal,no,z,1,1.08359863388,3,435
2019_Oct_23,20,001,3,recog,3,ANSWER,HF,target,left,yellow,imageability,liberal,no,z,1,0.666863289688,3,438
2019_Oct_23,20,001,3,recog,4,WRITE,HF,lure,-,-,-,liberal,no,m,1,0.666870621807,1,439
2019_Oct_23,20,001,3,recog,5,MOVED,HF,lure,-,-,-,conservative,no,z,0,0.916849725265,-3,436
2019_Oct_23,20,001,3,recog,6,NAGGED,LF,target,left,yellow,imageability,liberal,no,z,1,1.70021050517,3,439
2019_Oct_23,20,001,3,recog,7,YELLOWED,LF,lure,-,-,-,liberal,no,m,1,0.816945189469,1,440
2019_Oct_23,20,001,3,recog,8,GENERAL,HF,target,right,aqua,pleasantness,conservative,no,z,1,1.00026358972,1,441
2019_Oct_23,20,001,3,recog,9,ERSTWHILE,LF,lure,-,-,-,conservative,no,m,1,0.683610951841,3,444
2019_Oct_23,20,001,3,recog,10,YOGHURT,LF,target,left,yellow,imageability,conservative,no,z,1,0.633527072387,1,445
2019_Oct_23,20,001,3,recog,11,DUNGEON,LF,lure,-,-,-,liberal,no,m,1,0.683591155117,1,446
2019_Oct_23,20,001,3,recog,12,APTLY,LF,lure,-,-,-,liberal,no,m,1,1.80023052186,1,447
2019_Oct_23,20,001,3,recog,13,PLACE,HF,target,left,yellow,imageability,conservative,no,z,1,1.10026124344,1,448
2019_Oct_23,20,001,3,recog,14,OTHERS,HF,lure,-,-,-,conservative,no,m,1,1.35021175163,3,451
2019_Oct_23,20,001,3,recog,15,APPEARED,HF,target,right,aqua,pleasantness,liberal,no,z,1,1.81685317136,3,454
2019_Oct_23,20,001,3,recog,16,MUTATIONS,LF,lure,-,-,-,liberal,no,m,1,2.69993885012,1,455
2019_Oct_23,20,001,3,recog,17,OPENED,HF,lure,-,-,-,liberal,no,m,1,2.26662264951,1,456
2019_Oct_23,20,001,3,recog,18,LAMENT,LF,target,right,aqua,pleasantness,liberal,no,z,1,0.716918207267,3,459
2019_Oct_23,20,001,3,recog,19,DUCHY,LF,target,left,yellow,imageability,liberal,no,z,1,0.666941743373,3,462
2019_Oct_23,20,001,3,recog,20,DAPPER,LF,lure,-,-,-,conservative,no,m,1,1.28354261648,3,465
2019_Oct_23,20,001,3,recog,21,MILES,HF,lure,-,-,-,conservative,no,m,1,1.16697620434,3,468
2019_Oct_23,20,001,3,recog,22,EARLIER,HF,lure,-,-,-,liberal,no,m,1,1.91683689405,1,469
2019_Oct_23,20,001,3,recog,23,HATCHES,LF,target,right,aqua,pleasantness,liberal,no,z,1,0.866867762281,3,472
2019_Oct_23,20,001,3,recog,24,UPROOTED,LF,target,right,aqua,pleasantness,conservative,no,z,1,0.766968358969,1,473
2019_Oct_23,20,001,3,recog,25,HAWKED,LF,lure,-,-,-,liberal,no,z,0,2.01679422112,-1,472
2019_Oct_23,20,001,3,recog,26,SNAGS,LF,lure,-,-,-,conservative,no,m,1,1.50019870045,3,475
2019_Oct_23,20,001,3,recog,27,THWART,LF,target,right,aqua,pleasantness,conservative,no,z,1,1.55013703732,1,476
2019_Oct_23,20,001,3,recog,28,QUALITY,HF,lure,-,-,-,conservative,no,m,1,2.46684781891,3,479
2019_Oct_23,20,001,3,recog,29,TRUTH,HF,lure,-,-,-,liberal,no,m,1,0.850223483021,1,480
2019_Oct_23,20,001,3,recog,30,UPDATE,LF,target,right,aqua,pleasantness,liberal,no,z,1,0.883600760194,3,483
2019_Oct_23,20,001,3,recog,31,EVENING,HF,target,left,yellow,imageability,liberal,no,z,1,0.816931991653,3,486
2019_Oct_23,20,001,3,recog,32,FIGURE,HF,target,right,aqua,pleasantness,liberal,no,z,1,0.6668823532,3,489
2019_Oct_23,20,001,3,recog,33,MAGGOT,LF,lure,-,-,-,conservative,no,m,1,0.95003233465,3,492
2019_Oct_23,20,001,3,recog,34,AFTERNOON,HF,target,right,aqua,pleasantness,conservative,no,m,0,0.733606845854,-1,491
2019_Oct_23,20,001,3,recog,35,ENLIGHTEN,LF,lure,-,-,-,conservative,no,m,1,0.916935144465,3,494
2019_Oct_23,20,001,3,recog,36,INTEREST,HF,lure,-,-,-,conservative,no,m,1,0.800247385733,3,497
2019_Oct_23,20,001,3,recog,37,BAGGY,LF,lure,-,-,-,conservative,no,z,0,1.03335528081,-3,494
2019_Oct_23,20,001,3,recog,38,ARCADES,LF,target,right,aqua,pleasantness,liberal,yes,m,0,0.783572311568,-3,491
2019_Oct_23,20,001,3,recog,39,CUBED,LF,lure,-,-,-,liberal,no,m,1,1.30024445288,1,492
2019_Oct_23,20,001,3,recog,40,ODDER,LF,lure,-,-,-,conservative,no,m,1,1.96688227988,3,495
2019_Oct_23,20,001,3,recog,41,FATHER,HF,lure,-,-,-,liberal,no,m,1,1.00021739736,1,496
2019_Oct_23,20,001,3,recog,42,EFFECT,HF,target,left,yellow,imageability,liberal,no,z,1,1.3169228265,3,499
2019_Oct_23,20,001,3,recog,43,WOODCOCK,LF,lure,-,-,-,liberal,no,m,1,0.700225536015,1,500
2019_Oct_23,20,001,3,recog,44,GNOMES,LF,lure,-,-,-,conservative,no,m,1,0.833406165727,3,503
2019_Oct_23,20,001,3,recog,45,ITSELF,HF,target,left,yellow,imageability,conservative,no,z,1,0.683631481777,1,504
2019_Oct_23,20,001,3,recog,46,MORNING,HF,target,right,aqua,pleasantness,conservative,no,z,1,1.46676533256,1,505
2019_Oct_23,20,001,3,recog,47,MIDDLE,HF,lure,-,-,-,conservative,no,m,1,1.18364834565,3,508
2019_Oct_23,20,001,3,recog,48,JEERED,LF,target,left,yellow,imageability,liberal,no,z,1,1.10022714908,3,511
2019_Oct_23,20,001,3,recog,49,CASES,HF,target,left,yellow,imageability,conservative,no,z,1,0.86669985673,1,512
2019_Oct_23,20,001,3,recog,50,EXCEPT,HF,target,right,aqua,pleasantness,conservative,no,z,1,0.666689518441,1,513
2019_Oct_23,20,001,3,recog,51,ORPHANAGE,LF,lure,-,-,-,liberal,no,m,1,0.750221063421,1,514
2019_Oct_23,20,001,3,recog,52,BUSINESS,HF,target,right,aqua,pleasantness,conservative,no,z,1,1.56690009693,1,515
2019_Oct_23,20,001,3,recog,53,DIFFERENT,HF,lure,-,-,-,conservative,no,m,1,0.850292771556,3,518
2019_Oct_23,20,001,3,recog,54,BIKINI,LF,target,left,yellow,imageability,liberal,no,z,1,0.966938003991,3,521
2019_Oct_23,20,001,3,recog,55,KRAALS,LF,target,right,aqua,pleasantness,conservative,no,z,1,0.733572751496,1,522
2019_Oct_23,20,001,3,recog,56,FORCE,HF,target,right,aqua,pleasantness,liberal,no,z,1,0.716902809815,3,525
2019_Oct_23,20,001,3,recog,57,SEEMED,HF,target,left,yellow,imageability,conservative,no,z,1,0.716604392527,1,526
2019_Oct_23,20,001,3,recog,58,AFRAID,HF,lure,-,-,-,liberal,no,z,0,1.58354364298,-1,525
2019_Oct_23,20,001,3,recog,59,SEVEN,HF,target,left,yellow,imageability,liberal,no,z,1,2.54998672886,3,528
2019_Oct_23,20,001,3,recog,60,GORGED,LF,lure,-,-,-,conservative,no,m,1,1.4503039897,3,531
2019_Oct_23,20,001,3,recog,61,BOWER,LF,lure,-,-,-,conservative,no,m,1,2.28328635888,3,534
2019_Oct_23,20,001,3,recog,62,SHALL,HF,lure,-,-,-,liberal,no,z,0,1.31679964689,-1,533
2019_Oct_23,20,001,3,recog,63,REQUIRED,HF,target,left,yellow,imageability,conservative,no,m,0,1.80014326963,-1,532
2019_Oct_23,20,001,3,recog,64,GRIEVE,LF,target,right,aqua,pleasantness,conservative,no,z,1,0.733572018284,1,533
2019_Oct_23,20,001,3,recog,65,DUSTER,LF,target,right,aqua,pleasantness,conservative,no,z,1,0.61702393644,1,534
2019_Oct_23,20,001,3,recog,66,PRACTICE,HF,target,left,yellow,imageability,liberal,no,z,1,0.916942109979,3,537
2019_Oct_23,20,001,3,recog,67,SAINTLY,LF,lure,-,-,-,conservative,no,z,0,0.950238733831,-3,534
2019_Oct_23,20,001,3,recog,68,RECENT,HF,lure,-,-,-,liberal,no,m,1,1.08353924371,1,535
2019_Oct_23,20,001,3,recog,69,EAVES,LF,target,left,yellow,imageability,liberal,no,z,1,2.48351152829,3,538
2019_Oct_23,20,001,3,recog,70,PUBLIC,HF,lure,-,-,-,conservative,no,m,1,4.70008182646,3,541
2019_Oct_23,20,001,3,recog,71,INCLUDING,HF,lure,-,-,-,conservative,no,m,1,0.733646072697,3,544
2019_Oct_23,20,001,3,recog,72,INVOLVED,HF,lure,-,-,-,liberal,no,m,1,0.600243646351,1,545
2019_Oct_23,20,001,3,recog,73,ENERGY,HF,lure,-,-,-,conservative,no,m,1,0.76692876552,3,548
2019_Oct_23,20,001,3,recog,74,BEQUEST,LF,target,left,yellow,imageability,conservative,no,m,0,0.783368478629,-1,547
2019_Oct_23,20,001,3,recog,75,HUNDRED,HF,target,left,yellow,imageability,conservative,no,m,0,1.90019774728,-1,546
2019_Oct_23,20,001,3,recog,76,LOOKED,HF,target,left,yellow,imageability,liberal,no,m,0,1.00025515778,-3,543
2019_Oct_23,20,001,3,recog,77,VETOED,LF,target,left,yellow,imageability,conservative,no,z,1,0.766935364428,1,544
2019_Oct_23,20,001,3,recog,78,DYNAMISM,LF,lure,-,-,-,liberal,yes,m,1,0.73377145195,1,545
2019_Oct_23,20,001,3,recog,79,IRRIGATED,LF,target,left,yellow,imageability,liberal,no,z,1,0.883573997956,3,548
2019_Oct_23,20,001,3,recog,80,SMIRK,LF,target,right,aqua,pleasantness,conservative,no,z,1,1.00014187652,1,549
2019_Oct_23,20,001,3,recog,81,PIQUE,LF,lure,-,-,-,conservative,no,m,1,1.30027634761,3,552
2019_Oct_23,20,001,3,recog,82,POLICE,HF,lure,-,-,-,liberal,no,m,1,1.3002026598,1,553
2019_Oct_23,20,001,3,recog,83,QUICKLY,HF,lure,-,-,-,conservative,no,m,1,1.20019034184,3,556
2019_Oct_23,20,001,3,recog,84,BOUGH,LF,lure,-,-,-,liberal,no,m,1,0.966898777149,1,557
2019_Oct_23,20,001,3,recog,85,DOODLE,LF,target,right,aqua,pleasantness,liberal,no,z,1,0.683562193242,3,560
2019_Oct_23,20,001,3,recog,86,AVAILABLE,HF,lure,-,-,-,liberal,no,z,0,1.26692803231,-1,559
2019_Oct_23,20,001,3,recog,87,DULLED,LF,target,left,yellow,imageability,conservative,no,m,0,2.11687216155,-1,558
2019_Oct_23,20,001,3,recog,88,MARKET,HF,target,right,aqua,pleasantness,liberal,yes,z,1,0.767000253692,3,561
2019_Oct_23,20,001,3,recog,89,FLUFF,LF,lure,-,-,-,liberal,no,m,1,2.35015566091,1,562
2019_Oct_23,20,001,3,recog,90,ARRIVED,HF,target,right,aqua,pleasantness,conservative,no,z,1,2.28354334969,1,563
2019_Oct_23,20,001,3,recog,91,TRADE,HF,lure,-,-,-,liberal,no,m,1,1.05024775234,1,564
2019_Oct_23,20,001,3,recog,92,RUFFLES,LF,target,left,yellow,imageability,conservative,no,z,1,1.10021871714,1,565
2019_Oct_23,20,001,3,recog,93,NEEDED,HF,target,right,aqua,pleasantness,liberal,no,z,1,1.45025816395,3,568
2019_Oct_23,20,001,3,recog,94,ARDENTLY,LF,target,left,yellow,imageability,conservative,yes,m,0,0.783577810658,-1,567
2019_Oct_23,20,001,3,recog,95,AMALGAM,LF,lure,-,-,-,liberal,no,m,1,2.85003431432,1,568
2019_Oct_23,20,001,4,source,0,TURNED,HF,target,right,aqua,pleasantness,liberal,no,8,1,1.3835465025,-,-
2019_Oct_23,20,001,4,source,1,LONGER,HF,target,right,aqua,pleasantness,liberal,no,7,1,1.06690779566,-,-
2019_Oct_23,20,001,4,source,2,ANYONE,HF,target,right,aqua,pleasantness,liberal,no,2,0,0.883851152096,-,-
2019_Oct_23,20,001,4,source,3,MONEY,HF,target,right,aqua,pleasantness,liberal,no,9,1,0.933590055299,-,-
2019_Oct_23,20,001,4,source,4,MUSIC,HF,target,left,yellow,imageability,conservative,yes,8,0,0.783325585726,-,-
2019_Oct_23,20,001,4,source,5,IDYLL,LF,target,right,aqua,pleasantness,conservative,no,9,1,1.11692311979,-,-
2019_Oct_23,20,001,4,source,6,RUDIMENTS,LF,target,right,aqua,pleasantness,liberal,no,8,1,1.11699350814,-,-
2019_Oct_23,20,001,4,source,7,NATIONAL,HF,target,right,aqua,pleasantness,liberal,no,9,1,0.683482639739,-,-
2019_Oct_23,20,001,4,source,8,TEMERITY,LF,target,left,yellow,imageability,conservative,no,2,1,0.916651391416,-,-
2019_Oct_23,20,001,4,source,9,EVIDENCE,HF,target,left,yellow,imageability,liberal,no,1,1,1.31687773396,-,-
2019_Oct_23,20,001,4,source,10,VOYAGES,LF,target,left,yellow,imageability,conservative,no,1,1,0.766900170252,-,-
2019_Oct_23,20,001,4,source,11,FEVERS,LF,target,left,yellow,imageability,conservative,no,1,1,0.783298090276,-,-
2019_Oct_23,20,001,4,source,12,BOILERS,LF,target,right,aqua,pleasantness,conservative,no,3,0,1.13358352971,-,-
2019_Oct_23,20,001,4,source,13,CLOSE,HF,target,left,yellow,imageability,liberal,no,1,1,0.90023990697,-,-
2019_Oct_23,20,001,4,source,14,NUMBER,HF,target,right,aqua,pleasantness,conservative,yes,3,0,0.833606699211,-,-
2019_Oct_23,20,001,4,source,15,OFTEN,HF,target,left,yellow,imageability,conservative,no,2,1,0.7502808202,-,-
2019_Oct_23,20,001,4,source,16,LEARN,HF,target,right,aqua,pleasantness,conservative,no,9,1,2.25020236652,-,-
2019_Oct_23,20,001,4,source,17,WHITE,HF,target,right,aqua,pleasantness,liberal,no,9,1,0.616955747722,-,-
2019_Oct_23,20,001,4,source,18,ROUND,HF,target,right,aqua,pleasantness,conservative,no,9,1,0.683625616081,-,-
2019_Oct_23,20,001,4,source,19,JUMBO,LF,target,left,yellow,imageability,liberal,no,1,1,0.800261316761,-,-
2019_Oct_23,20,001,4,source,20,OLDER,HF,target,left,yellow,imageability,conservative,no,2,1,0.96685368461,-,-
2019_Oct_23,20,001,4,source,21,PILGRIM,LF,target,left,yellow,imageability,conservative,no,1,1,0.950029035196,-,-
2019_Oct_23,20,001,4,source,22,BEGAN,HF,target,left,yellow,imageability,conservative,no,8,0,0.9169373441,-,-
2019_Oct_23,20,001,4,source,23,MERELY,HF,target,right,aqua,pleasantness,conservative,no,9,1,0.850240346897,-,-
2019_Oct_23,20,001,4,source,24,HEEDED,LF,target,right,aqua,pleasantness,conservative,no,3,0,0.76690493613,-,-
2019_Oct_23,20,001,4,source,25,WIZENED,LF,target,left,yellow,imageability,conservative,no,1,1,0.800287712393,-,-
2019_Oct_23,20,001,4,source,26,PISTONS,LF,target,right,aqua,pleasantness,conservative,no,2,0,1.21668467924,-,-
2019_Oct_23,20,001,4,source,27,ERADICATE,LF,target,right,aqua,pleasantness,liberal,no,8,1,1.11688939204,-,-
2019_Oct_23,20,001,4,source,28,RAVAGES,LF,target,right,aqua,pleasantness,conservative,no,9,1,1.53357597763,-,-
2019_Oct_23,20,001,4,source,29,HUSBAND,HF,target,right,aqua,pleasantness,conservative,yes,7,1,1.00022289645,-,-
2019_Oct_23,20,001,4,source,30,BOVINE,LF,target,left,yellow,imageability,liberal,no,1,1,1.18360325312,-,-
2019_Oct_23,20,001,4,source,31,HEALTH,HF,target,left,yellow,imageability,liberal,no,1,1,0.950231401711,-,-
2019_Oct_23,20,001,4,source,32,AMEND,LF,target,right,aqua,pleasantness,conservative,no,2,0,0.900223776306,-,-
2019_Oct_23,20,001,4,source,33,NEURAL,LF,target,left,yellow,imageability,conservative,yes,2,1,0.700280893521,-,-
2019_Oct_23,20,001,4,source,34,RIDDLES,LF,target,right,aqua,pleasantness,liberal,no,9,1,0.716689078514,-,-
2019_Oct_23,20,001,4,source,35,VILLAGE,HF,target,right,aqua,pleasantness,conservative,no,1,0,0.733612344944,-,-
2019_Oct_23,20,001,4,source,36,NINETIES,LF,target,left,yellow,imageability,liberal,no,1,1,3.01660358599,-,-
2019_Oct_23,20,001,4,source,37,WINDOW,HF,target,left,yellow,imageability,conservative,no,1,1,1.06672669229,-,-
2019_Oct_23,20,001,4,source,38,NEGATION,LF,target,right,aqua,pleasantness,liberal,no,3,0,0.950227735651,-,-
2019_Oct_23,20,001,4,source,39,SULKED,LF,target,left,yellow,imageability,liberal,no,1,1,1.14998584901,-,-
2019_Oct_23,20,001,4,source,40,LESSENED,LF,target,right,aqua,pleasantness,liberal,no,2,0,0.883603326437,-,-
2019_Oct_23,20,001,4,source,41,LUGGED,LF,target,left,yellow,imageability,liberal,no,1,1,0.78353271812,-,-
2019_Oct_23,20,001,4,source,42,ECONOMIC,HF,target,left,yellow,imageability,liberal,no,8,0,0.900277667389,-,-
2019_Oct_23,20,001,4,source,43,HUMAN,HF,target,left,yellow,imageability,conservative,no,1,1,1.36697664426,-,-
2019_Oct_23,20,001,4,source,44,TOGETHER,HF,target,left,yellow,imageability,liberal,no,8,0,1.51690860219,-,-
2019_Oct_23,20,001,4,source,45,MEETING,HF,target,left,yellow,imageability,liberal,no,8,0,0.900208745459,-,-
2019_Oct_23,20,001,4,source,46,SUING,LF,target,right,aqua,pleasantness,liberal,no,9,1,1.56664310612,-,-
2019_Oct_23,20,001,4,source,47,PUMPKIN,LF,target,left,yellow,imageability,liberal,no,1,1,0.750272754868,-,-
2019_Oct_23,20,001,4,recog,0,ROUND,HF,target,right,aqua,pleasantness,conservative,no,z,1,1.31663504079,1,569
2019_Oct_23,20,001,4,recog,1,WINDOW,HF,target,left,yellow,imageability,conservative,no,z,1,0.766935364429,1,570
2019_Oct_23,20,001,4,recog,2,JUDICIOUS,LF,lure,-,-,-,liberal,no,m,1,1.21678476268,1,571
2019_Oct_23,20,001,4,recog,3,HUMAN,HF,target,left,yellow,imageability,conservative,no,z,1,0.716904642845,1,572
2019_Oct_23,20,001,4,recog,4,LUGGED,LF,target,left,yellow,imageability,liberal,no,z,1,0.700278327279,3,575
2019_Oct_23,20,001,4,recog,5,PARENTS,HF,lure,-,-,-,liberal,no,m,1,1.00022729572,1,576
2019_Oct_23,20,001,4,recog,6,BOVINE,LF,target,left,yellow,imageability,liberal,no,z,1,0.816833741244,3,579
2019_Oct_23,20,001,4,recog,7,ZIPPED,LF,lure,-,-,-,conservative,no,m,1,1.01685471111,3,582
2019_Oct_23,20,001,4,recog,8,SERIOUS,HF,lure,-,-,-,liberal,no,m,1,0.80033573778,1,583
2019_Oct_23,20,001,4,recog,9,HUSBAND,HF,target,right,aqua,pleasantness,conservative,yes,m,0,1.31687516772,-1,582
2019_Oct_23,20,001,4,recog,10,CARRIED,HF,lure,-,-,-,liberal,no,z,0,2.28345573086,-1,581
2019_Oct_23,20,001,4,recog,11,GYPSIES,LF,lure,-,-,-,liberal,no,m,1,1.06688946536,1,582
2019_Oct_23,20,001,4,recog,12,CRUCIALLY,LF,lure,-,-,-,conservative,no,m,1,1.03350778891,3,585
2019_Oct_23,20,001,4,recog,13,SULKED,LF,target,left,yellow,imageability,liberal,no,z,1,0.91690434956,3,588
2019_Oct_23,20,001,4,recog,14,EVIDENCE,HF,target,left,yellow,imageability,liberal,no,z,1,0.700257064131,3,591
2019_Oct_23,20,001,4,recog,15,ECONOMIC,HF,target,left,yellow,imageability,liberal,no,z,1,0.783579277082,3,594
2019_Oct_23,20,001,4,recog,16,NEGATION,LF,target,right,aqua,pleasantness,liberal,no,z,1,0.616837333982,3,597
2019_Oct_23,20,001,4,recog,17,REEDY,LF,lure,-,-,-,conservative,no,m,1,1.15022450952,3,600
2019_Oct_23,20,001,4,recog,18,NINETIES,LF,target,left,yellow,imageability,liberal,no,z,1,0.716965866048,3,603
2019_Oct_23,20,001,4,recog,19,BEDLAM,LF,lure,-,-,-,liberal,no,m,1,1.48354415623,1,604
2019_Oct_23,20,001,4,recog,20,SUING,LF,target,right,aqua,pleasantness,liberal,no,z,1,1.05032144015,3,607
2019_Oct_23,20,001,4,recog,21,TURNED,HF,target,right,aqua,pleasantness,liberal,no,m,0,0.816952154983,-3,604
2019_Oct_23,20,001,4,recog,22,HAVING,HF,lure,-,-,-,conservative,no,m,1,2.09997419094,3,607
2019_Oct_23,20,001,4,recog,23,BEGAN,HF,target,left,yellow,imageability,conservative,no,m,0,1.30022465616,-1,606
2019_Oct_23,20,001,4,recog,24,LEARN,HF,target,right,aqua,pleasantness,conservative,no,z,1,0.966886312545,1,607
2019_Oct_23,20,001,4,recog,25,CLOSE,HF,target,left,yellow,imageability,liberal,no,z,1,0.866877660643,3,610
2019_Oct_23,20,001,4,recog,26,BIJOU,LF,lure,-,-,-,liberal,no,m,1,0.76674802876,1,611
2019_Oct_23,20,001,4,recog,27,WOMAN,HF,lure,-,-,-,liberal,no,m,1,1.0500193568,1,612
2019_Oct_23,20,001,4,recog,28,DENIALS,LF,lure,-,-,-,conservative,no,m,1,0.933566225909,3,615
2019_Oct_23,20,001,4,recog,29,PUMPKIN,LF,target,left,yellow,imageability,liberal,no,z,1,0.633617257464,3,618
2019_Oct_23,20,001,4,recog,30,ERADICATE,LF,target,right,aqua,pleasantness,liberal,no,z,1,0.816871135056,3,621
2019_Oct_23,20,001,4,recog,31,VOYAGES,LF,target,left,yellow,imageability,conservative,no,z,1,0.683368991878,1,622
2019_Oct_23,20,001,4,recog,32,LITANY,LF,lure,-,-,-,conservative,no,m,1,0.716904642845,3,625
2019_Oct_23,20,001,4,recog,33,OFTEN,HF,target,left,yellow,imageability,conservative,no,m,0,1.03335968008,-1,624
2019_Oct_23,20,001,4,recog,34,FEVERS,LF,target,left,yellow,imageability,conservative,no,z,1,0.683330131641,1,625
2019_Oct_23,20,001,4,recog,35,TROUBLE,HF,lure,-,-,-,liberal,no,m,1,0.850234847807,1,626
2019_Oct_23,20,001,4,recog,36,RAVAGES,LF,target,right,aqua,pleasantness,conservative,no,z,1,0.866724052727,1,627
2019_Oct_23,20,001,4,recog,37,NUCLEAR,HF,lure,-,-,-,conservative,no,m,1,1.16691168168,3,630
2019_Oct_23,20,001,4,recog,38,TERMS,HF,lure,-,-,-,conservative,no,m,1,0.76691593431,3,633
2019_Oct_23,20,001,4,recog,39,UNGAINLY,LF,lure,-,-,-,conservative,no,m,1,0.65024907212,3,636
2019_Oct_23,20,001,4,recog,40,OLDER,HF,target,left,yellow,imageability,conservative,no,z,1,0.716945702718,1,637
2019_Oct_23,20,001,4,recog,41,AXIOM,LF,lure,-,-,-,liberal,no,m,1,0.666947609069,1,638
2019_Oct_23,20,001,4,recog,42,MONEY,HF,target,right,aqua,pleasantness,liberal,no,z,1,0.833368771914,3,641
2019_Oct_23,20,001,4,recog,43,BOILERS,LF,target,right,aqua,pleasantness,conservative,no,z,1,0.933634414625,1,642
2019_Oct_23,20,001,4,recog,44,SUCCESS,HF,lure,-,-,-,liberal,no,m,1,0.866860430161,1,643
2019_Oct_23,20,001,4,recog,45,LONGER,HF,target,right,aqua,pleasantness,liberal,no,z,1,0.816916960807,3,646
2019_Oct_23,20,001,4,recog,46,GAZELLE,LF,lure,-,-,-,conservative,no,m,1,0.733669535481,3,649
2019_Oct_23,20,001,4,recog,47,UNMADE,LF,lure,-,-,-,conservative,no,m,1,1.51687120838,3,652
2019_Oct_23,20,001,4,recog,48,SCHOOL,HF,lure,-,-,-,conservative,no,m,1,0.63357363135,3,655
2019_Oct_23,20,001,4,recog,49,MYSELF,HF,lure,-,-,-,conservative,no,m,1,0.81687810057,3,658
2019_Oct_23,20,001,4,recog,50,NORTH,HF,lure,-,-,-,conservative,no,m,1,0.683580156937,3,661
2019_Oct_23,20,001,4,recog,51,SCENARIOS,LF,lure,-,-,-,conservative,no,m,1,0.783594307929,3,664
2019_Oct_23,20,001,4,recog,52,PISTONS,LF,target,right,aqua,pleasantness,conservative,no,z,1,0.666952741553,1,665
2019_Oct_23,20,001,4,recog,53,SLEEP,HF,lure,-,-,-,liberal,no,m,1,0.950237267407,1,666
2019_Oct_23,20,001,4,recog,54,BUGGED,LF,lure,-,-,-,conservative,no,m,1,0.833562706491,3,669
2019_Oct_23,20,001,4,recog,55,SOCIAL,HF,lure,-,-,-,conservative,no,z,0,1.03361813732,-3,666
2019_Oct_23,20,001,4,recog,56,COVER,HF,lure,-,-,-,liberal,no,m,1,0.950193274686,1,667
2019_Oct_23,20,001,4,recog,57,EMACIATED,LF,lure,-,-,-,conservative,no,m,1,0.766840413473,3,670
2019_Oct_23,20,001,4,recog,58,ENTIRELY,HF,lure,-,-,-,liberal,no,z,0,0.933376690604,-1,669
2019_Oct_23,20,001,4,recog,59,HEEDED,LF,target,right,aqua,pleasantness,conservative,no,z,1,0.88358646256,1,670
2019_Oct_23,20,001,4,recog,60,NEURAL,LF,target,left,yellow,imageability,conservative,no,z,1,1.05022648919,1,671
2019_Oct_23,20,001,4,recog,61,MEETING,HF,target,left,yellow,imageability,liberal,no,z,1,1.05017443114,3,674
2019_Oct_23,20,001,4,recog,62,VEGAN,LF,lure,-,-,-,liberal,no,m,1,0.866760713327,1,675
2019_Oct_23,20,001,4,recog,63,AMEND,LF,target,right,aqua,pleasantness,conservative,yes,m,0,0.933576124271,-1,674
2019_Oct_23,20,001,4,recog,64,INUNDATED,LF,lure,-,-,-,liberal,no,m,1,1.11689159167,1,675
2019_Oct_23,20,001,4,recog,65,RUDIMENTS,LF,target,right,aqua,pleasantness,liberal,no,z,1,1.06693602432,3,678
2019_Oct_23,20,001,4,recog,66,WHITE,HF,target,right,aqua,pleasantness,liberal,no,z,1,0.783566812478,3,681
2019_Oct_23,20,001,4,recog,67,STOOD,HF,lure,-,-,-,conservative,no,m,1,1.58348828547,3,684
2019_Oct_23,20,001,4,recog,68,JUMBO,LF,target,left,yellow,imageability,liberal,no,z,1,0.900125892502,3,687
2019_Oct_23,20,001,4,recog,69,HIGHER,HF,lure,-,-,-,conservative,no,m,1,0.800246285914,3,690
2019_Oct_23,20,001,4,recog,70,TOGETHER,HF,target,left,yellow,imageability,liberal,no,z,1,3.51676452603,3,693
2019_Oct_23,20,001,4,recog,71,WIZENED,LF,target,left,yellow,imageability,conservative,yes,m,0,1.01692803231,-1,692
2019_Oct_23,20,001,4,recog,72,IDYLL,LF,target,right,aqua,pleasantness,conservative,no,z,1,1.28352025352,1,693
2019_Oct_23,20,001,4,recog,73,MERELY,HF,target,right,aqua,pleasantness,conservative,no,z,1,3.83343952687,1,694
2019_Oct_23,20,001,4,recog,74,KNOWLEDGE,HF,lure,-,-,-,liberal,no,m,1,0.816946655893,1,695
2019_Oct_23,20,001,4,recog,75,NATIONAL,HF,target,right,aqua,pleasantness,liberal,no,z,1,0.766850311835,3,698
2019_Oct_23,20,001,4,recog,76,TATTERS,LF,lure,-,-,-,conservative,no,m,1,0.700288592247,3,701
2019_Oct_23,20,001,4,recog,77,NUMBER,HF,target,right,aqua,pleasantness,conservative,no,m,0,1.03365883059,-1,700
2019_Oct_23,20,001,4,recog,78,HEALTH,HF,target,left,yellow,imageability,liberal,no,z,1,0.616957947359,3,703
2019_Oct_23,20,001,4,recog,79,VILLAGE,HF,target,right,aqua,pleasantness,conservative,no,z,1,0.633661983397,1,704
2019_Oct_23,20,001,4,recog,80,RIMMED,LF,lure,-,-,-,liberal,no,m,1,0.75025149172,1,705
2019_Oct_23,20,001,4,recog,81,COMES,HF,lure,-,-,-,conservative,no,m,1,0.966696410634,3,708
2019_Oct_23,20,001,4,recog,82,CAPITAL,HF,lure,-,-,-,conservative,no,m,1,0.700234334559,3,711
2019_Oct_23,20,001,4,recog,83,KETCHUP,LF,lure,-,-,-,liberal,no,m,1,0.683551195063,1,712
2019_Oct_23,20,001,4,recog,84,LAPELS,LF,lure,-,-,-,liberal,no,m,1,0.88346254973,1,713
2019_Oct_23,20,001,4,recog,85,MUSIC,HF,target,left,yellow,imageability,conservative,no,m,0,1.75022033021,-1,712
2019_Oct_23,20,001,4,recog,86,ANYONE,HF,target,right,aqua,pleasantness,liberal,no,z,1,0.866851265011,3,715
2019_Oct_23,20,001,4,recog,87,ORDER,HF,lure,-,-,-,conservative,no,m,1,0.816905962627,3,718
2019_Oct_23,20,001,4,recog,88,APRICOT,LF,lure,-,-,-,liberal,no,m,1,0.766933898004,1,719
2019_Oct_23,20,001,4,recog,89,RIDDLES,LF,target,right,aqua,pleasantness,liberal,no,z,1,0.766903836312,3,722
2019_Oct_23,20,001,4,recog,90,PILGRIM,LF,target,left,yellow,imageability,conservative,yes,m,0,0.833617697392,-1,721
2019_Oct_23,20,001,4,recog,91,TEMERITY,LF,target,left,yellow,imageability,conservative,no,z,1,1.5502330881,1,722
2019_Oct_23,20,001,4,recog,92,JAUNDICE,LF,lure,-,-,-,liberal,no,m,1,0.683612051659,1,723
2019_Oct_23,20,001,4,recog,93,MAYBE,HF,lure,-,-,-,liberal,no,z,0,0.70029115849,-1,722
2019_Oct_23,20,001,4,recog,94,LESSENED,LF,target,right,aqua,pleasantness,liberal,no,z,1,1.01685177826,3,725
2019_Oct_23,20,001,4,recog,95,CERTAIN,HF,lure,-,-,-,liberal,no,m,1,0.600260143621,1,726
