date,subj,session,cycle,task,trial,item,wf,type,source,colour,encoding,bias,null,response,corr,rt,points,total
2019_Oct_02,201,001,0,source,0,RETURN,HF,target,left,aqua,pleasantness,conservative,no,None,-1,-1,-,-
2019_Oct_02,201,001,0,source,1,SUAVE,LF,target,left,aqua,pleasantness,liberal,no,1,1,3.69191973997,-,-
2019_Oct_02,201,001,0,source,2,SPLASHES,LF,target,right,yellow,imageability,liberal,no,9,1,2.77262335697,-,-
2019_Oct_02,201,001,0,source,3,FIGURE,HF,target,left,aqua,pleasantness,conservative,no,1,1,1.62634773039,-,-
2019_Oct_02,201,001,0,source,4,TENABLE,LF,target,right,yellow,imageability,liberal,no,9,1,1.83949534669,-,-
2019_Oct_02,201,001,0,source,5,SHALL,HF,target,right,yellow,imageability,liberal,no,9,1,1.17318807479,-,-
2019_Oct_02,201,001,0,source,6,CLEAR,HF,target,right,yellow,imageability,liberal,no,9,1,1.46655685635,-,-
2019_Oct_02,201,001,0,source,7,OLDER,HF,target,right,yellow,imageability,conservative,no,9,1,0.80006371589,-,-
2019_Oct_02,201,001,0,source,8,DECIDED,HF,target,right,yellow,imageability,conservative,yes,None,-1,-1,-,-
2019_Oct_02,201,001,0,source,9,NADIR,LF,target,right,yellow,imageability,liberal,no,9,1,1.17326542837,-,-
2019_Oct_02,201,001,0,source,10,ASSERTIVE,LF,target,left,aqua,pleasantness,conservative,no,1,1,0.814658614073,-,-
2019_Oct_02,201,001,0,source,11,ALMOST,HF,target,right,yellow,imageability,conservative,no,9,1,1.29284636992,-,-
2019_Oct_02,201,001,0,source,12,DIDACTIC,LF,target,right,yellow,imageability,conservative,no,1,0,1.1204343972,-,-
2019_Oct_02,201,001,0,source,13,REBATE,LF,target,left,aqua,pleasantness,liberal,no,1,1,0.799744769835,-,-
2019_Oct_02,201,001,0,source,14,LOCAL,HF,target,left,aqua,pleasantness,liberal,no,1,1,0.813372931525,-,-
2019_Oct_02,201,001,0,source,15,PAVILIONS,LF,target,right,yellow,imageability,conservative,no,9,1,0.813460183434,-,-
2019_Oct_02,201,001,0,source,16,ANYONE,HF,target,right,yellow,imageability,liberal,no,9,1,0.760060915031,-,-
2019_Oct_02,201,001,0,source,17,RAREFIED,LF,target,left,aqua,pleasantness,conservative,no,1,1,0.679979059542,-,-
2019_Oct_02,201,001,0,source,18,LARGE,HF,target,left,aqua,pleasantness,liberal,no,1,1,0.71988031091,-,-
2019_Oct_02,201,001,0,source,19,TUMBLER,LF,target,right,yellow,imageability,conservative,no,9,1,0.706896640215,-,-
2019_Oct_02,201,001,0,source,20,RANGE,HF,target,left,aqua,pleasantness,conservative,no,1,1,0.666738398979,-,-
2019_Oct_02,201,001,0,source,21,COMES,HF,target,left,aqua,pleasantness,liberal,yes,1,1,7.9438409317,-,-
2019_Oct_02,201,001,0,source,22,THING,HF,target,left,aqua,pleasantness,liberal,no,1,1,1.079964542,-,-
2019_Oct_02,201,001,0,source,23,ADULATION,LF,target,left,aqua,pleasantness,conservative,no,1,1,1.01327915405,-,-
2019_Oct_02,201,001,0,source,24,TADPOLES,LF,target,left,aqua,pleasantness,conservative,no,1,1,0.77334850099,-,-
2019_Oct_02,201,001,0,source,25,JOURNEYED,LF,target,right,yellow,imageability,conservative,no,9,1,0.720959595034,-,-
2019_Oct_02,201,001,0,source,26,GODMOTHER,LF,target,left,aqua,pleasantness,conservative,no,1,1,0.760079611868,-,-
2019_Oct_02,201,001,0,source,27,FRONT,HF,target,right,yellow,imageability,liberal,no,9,1,0.973107715048,-,-
2019_Oct_02,201,001,0,source,28,SOLEMNITY,LF,target,right,yellow,imageability,conservative,no,9,1,0.786626921833,-,-
2019_Oct_02,201,001,0,source,29,WHITE,HF,target,right,yellow,imageability,liberal,no,9,1,0.893094414631,-,-
2019_Oct_02,201,001,0,source,30,HUBBUB,LF,target,left,aqua,pleasantness,liberal,no,1,1,0.679847081863,-,-
2019_Oct_02,201,001,0,source,31,SITTING,HF,target,right,yellow,imageability,conservative,no,9,1,1.01332387982,-,-
2019_Oct_02,201,001,0,source,32,OMITTING,LF,target,left,aqua,pleasantness,liberal,no,1,1,0.706729101885,-,-
2019_Oct_02,201,001,0,source,33,OUGHT,HF,target,right,yellow,imageability,liberal,no,9,1,0.706608855556,-,-
2019_Oct_02,201,001,0,source,34,LETTER,HF,target,left,aqua,pleasantness,conservative,yes,1,1,1.34649126344,-,-
2019_Oct_02,201,001,0,source,35,LEDGES,LF,target,right,yellow,imageability,liberal,no,9,1,2.34600587887,-,-
2019_Oct_02,201,001,0,source,36,SUNBURN,LF,target,right,yellow,imageability,liberal,no,9,1,0.82647611534,-,-
2019_Oct_02,201,001,0,source,37,OPULENCE,LF,target,left,aqua,pleasantness,liberal,no,1,1,0.999926312463,-,-
2019_Oct_02,201,001,0,source,38,ANEMONES,LF,target,left,aqua,pleasantness,conservative,no,1,1,1.17327312707,-,-
2019_Oct_02,201,001,0,source,39,MUMBLES,LF,target,left,aqua,pleasantness,liberal,no,1,1,0.786700975975,-,-
2019_Oct_02,201,001,0,source,40,NUCLEAR,HF,target,left,aqua,pleasantness,conservative,no,1,1,0.720073144962,-,-
2019_Oct_02,201,001,0,source,41,MARKET,HF,target,left,aqua,pleasantness,conservative,no,1,1,0.626804153191,-,-
2019_Oct_02,201,001,0,source,42,MOMENT,HF,target,left,aqua,pleasantness,liberal,no,1,1,0.99995124158,-,-
2019_Oct_02,201,001,0,source,43,SMIRK,LF,target,right,yellow,imageability,liberal,no,9,1,0.666757095817,-,-
2019_Oct_02,201,001,0,source,44,WINDOW,HF,target,right,yellow,imageability,conservative,no,9,1,0.653394722506,-,-
2019_Oct_02,201,001,0,source,45,TICKLE,LF,target,right,yellow,imageability,conservative,no,9,1,0.613460476718,-,-
2019_Oct_02,201,001,0,source,46,SUBJECT,HF,target,right,yellow,imageability,conservative,no,9,1,0.719825686816,-,-
2019_Oct_02,201,001,0,source,47,BRING,HF,target,left,aqua,pleasantness,liberal,yes,1,1,0.933131309724,-,-
2019_Oct_02,201,001,0,recog,0,BUILDING,HF,lure,-,-,-,conservative,no,m,1,2.5324797066,3,3
2019_Oct_02,201,001,0,recog,1,WINDOW,HF,target,right,yellow,imageability,conservative,no,z,1,1.10659653764,1,4
2019_Oct_02,201,001,0,recog,2,GODMOTHER,LF,target,left,aqua,pleasantness,conservative,no,z,1,0.786784928442,1,5
2019_Oct_02,201,001,0,recog,3,HIGHER,HF,lure,-,-,-,liberal,no,m,1,0.946443091592,1,6
2019_Oct_02,201,001,0,recog,4,DECIDED,HF,target,right,yellow,imageability,conservative,no,z,1,0.73344871604,1,7
2019_Oct_02,201,001,0,recog,5,ALREADY,HF,lure,-,-,-,conservative,no,m,1,1.25298287883,3,10
2019_Oct_02,201,001,0,recog,6,RANGE,HF,target,left,aqua,pleasantness,conservative,no,z,1,0.693389091458,1,11
2019_Oct_02,201,001,0,recog,7,KILOWATT,LF,lure,-,-,-,conservative,no,m,1,0.999936577394,3,14
2019_Oct_02,201,001,0,recog,8,LOCAL,HF,target,left,aqua,pleasantness,liberal,no,z,1,0.720168828779,3,17
2019_Oct_02,201,001,0,recog,9,FRONT,HF,target,right,yellow,imageability,liberal,no,z,1,0.626797187702,3,20
2019_Oct_02,201,001,0,recog,10,PUMPKIN,LF,lure,-,-,-,liberal,no,m,1,2.03954674466,1,21
2019_Oct_02,201,001,0,recog,11,SEVEN,HF,lure,-,-,-,conservative,no,m,1,0.853396995455,3,24
2019_Oct_02,201,001,0,recog,12,SITTING,HF,target,right,yellow,imageability,conservative,no,z,1,0.706698307093,1,25
2019_Oct_02,201,001,0,recog,13,SPLASHES,LF,target,right,yellow,imageability,liberal,no,z,1,0.906653288041,3,28
2019_Oct_02,201,001,0,recog,14,JOURNEYED,LF,target,right,yellow,imageability,conservative,no,z,1,0.80008571217,1,29
2019_Oct_02,201,001,0,recog,15,ZIGZAG,LF,lure,-,-,-,conservative,no,m,1,0.69343088439,3,32
2019_Oct_02,201,001,0,recog,16,HERSELF,HF,lure,-,-,-,conservative,no,m,1,0.746711739488,3,35
2019_Oct_02,201,001,0,recog,17,RETURN,HF,target,left,aqua,pleasantness,conservative,no,z,1,0.666603488463,1,36
2019_Oct_02,201,001,0,recog,18,GULLIBLE,LF,lure,-,-,-,conservative,no,m,1,0.786691444254,3,39
2019_Oct_02,201,001,0,recog,19,OBNOXIOUS,LF,lure,-,-,-,conservative,no,m,1,0.680081342242,3,42
2019_Oct_02,201,001,0,recog,20,DIZZINESS,LF,lure,-,-,-,liberal,no,m,1,0.666790456841,1,43
2019_Oct_02,201,001,0,recog,21,SOLEMNITY,LF,target,right,yellow,imageability,conservative,no,z,1,0.653248080641,1,44
2019_Oct_02,201,001,0,recog,22,SUCCESS,HF,lure,-,-,-,liberal,no,m,1,0.679887774981,1,45
2019_Oct_02,201,001,0,recog,23,GLOBULAR,LF,lure,-,-,-,liberal,no,m,1,0.999763173389,1,46
2019_Oct_02,201,001,0,recog,24,BLACK,HF,lure,-,-,-,conservative,yes,z,0,1.58646810869,-3,43
2019_Oct_02,201,001,0,recog,25,WHITE,HF,target,right,yellow,imageability,liberal,no,z,1,0.760024987774,3,46
2019_Oct_02,201,001,0,recog,26,AROUND,HF,lure,-,-,-,liberal,no,m,1,1.14654288138,1,47
2019_Oct_02,201,001,0,recog,27,EITHER,HF,lure,-,-,-,conservative,no,m,1,0.706754397606,3,50
2019_Oct_02,201,001,0,recog,28,MAPPED,LF,lure,-,-,-,liberal,no,m,1,0.973319979148,1,51
2019_Oct_02,201,001,0,recog,29,GERANIUMS,LF,lure,-,-,-,liberal,no,m,1,0.773402391875,1,52
2019_Oct_02,201,001,0,recog,30,IRISES,LF,lure,-,-,-,conservative,no,m,1,0.90662176004,3,55
2019_Oct_02,201,001,0,recog,31,NUCLEAR,HF,target,left,aqua,pleasantness,conservative,no,z,1,0.586816016518,1,56
2019_Oct_02,201,001,0,recog,32,BAFFLING,LF,lure,-,-,-,conservative,yes,z,0,0.986650824457,-3,53
2019_Oct_02,201,001,0,recog,33,TIMES,HF,lure,-,-,-,conservative,no,m,1,0.986623329108,3,56
2019_Oct_02,201,001,0,recog,34,DEJECTED,LF,lure,-,-,-,liberal,no,m,1,0.933354205359,1,57
2019_Oct_02,201,001,0,recog,35,SUBJECT,HF,target,right,yellow,imageability,conservative,no,z,1,0.573285371667,1,58
2019_Oct_02,201,001,0,recog,36,TENABLE,LF,target,right,yellow,imageability,liberal,no,z,1,0.959937075976,3,61
2019_Oct_02,201,001,0,recog,37,TICKLE,LF,target,right,yellow,imageability,conservative,no,z,1,0.600236313365,1,62
2019_Oct_02,201,001,0,recog,38,BRING,HF,target,left,aqua,pleasantness,liberal,no,z,1,0.613395954298,3,65
2019_Oct_02,201,001,0,recog,39,FOOLHARDY,LF,lure,-,-,-,conservative,no,m,1,0.760345766853,3,68
2019_Oct_02,201,001,0,recog,40,HOWEVER,HF,lure,-,-,-,liberal,no,m,1,0.626786922772,1,69
2019_Oct_02,201,001,0,recog,41,COMES,HF,target,left,aqua,pleasantness,liberal,no,z,1,0.693418053227,3,72
2019_Oct_02,201,001,0,recog,42,MAJOR,HF,lure,-,-,-,liberal,no,m,1,0.946698248436,1,73
2019_Oct_02,201,001,0,recog,43,FIGURE,HF,target,left,aqua,pleasantness,conservative,no,z,1,0.666809520283,1,74
2019_Oct_02,201,001,0,recog,44,RIVER,HF,lure,-,-,-,conservative,yes,z,0,0.746768929815,-3,71
2019_Oct_02,201,001,0,recog,45,REBATE,LF,target,left,aqua,pleasantness,liberal,no,z,1,1.71964568393,3,74
2019_Oct_02,201,001,0,recog,46,SUAVE,LF,target,left,aqua,pleasantness,liberal,no,z,1,0.76007191317,3,77
2019_Oct_02,201,001,0,recog,47,LABOUR,HF,lure,-,-,-,liberal,no,m,1,0.719826786629,1,78
2019_Oct_02,201,001,0,recog,48,NECESSARY,HF,lure,-,-,-,conservative,no,m,1,0.800147301753,3,81
2019_Oct_02,201,001,0,recog,49,PROBABLY,HF,lure,-,-,-,liberal,no,m,1,0.733452382087,1,82
2019_Oct_02,201,001,0,recog,50,NADIR,LF,target,right,yellow,imageability,liberal,no,z,1,0.906603796411,3,85
2019_Oct_02,201,001,0,recog,51,DALES,LF,lure,-,-,-,liberal,no,m,1,1.39978751594,1,86
2019_Oct_02,201,001,0,recog,52,SUNBURN,LF,target,right,yellow,imageability,liberal,no,z,1,0.773387727689,3,89
2019_Oct_02,201,001,0,recog,53,TOWARDS,HF,lure,-,-,-,liberal,no,m,1,0.813140870774,1,90
2019_Oct_02,201,001,0,recog,54,JELLIES,LF,lure,-,-,-,liberal,no,m,1,0.640192555432,1,91
2019_Oct_02,201,001,0,recog,55,MUMBLES,LF,target,left,aqua,pleasantness,liberal,no,z,1,0.600244378668,3,94
2019_Oct_02,201,001,0,recog,56,ADULATION,LF,target,left,aqua,pleasantness,conservative,no,z,1,0.893370467942,1,95
2019_Oct_02,201,001,0,recog,57,TUMBLER,LF,target,right,yellow,imageability,conservative,no,z,1,0.600126331966,1,96
2019_Oct_02,201,001,0,recog,58,MOMENT,HF,target,left,aqua,pleasantness,liberal,no,z,1,0.773439785551,3,99
2019_Oct_02,201,001,0,recog,59,JOYFULLY,LF,lure,-,-,-,conservative,no,m,1,0.719830819281,3,102
2019_Oct_02,201,001,0,recog,60,DIDACTIC,LF,target,right,yellow,imageability,conservative,no,z,1,0.626800487144,1,103
2019_Oct_02,201,001,0,recog,61,LETTER,HF,target,left,aqua,pleasantness,conservative,no,z,1,0.760064947682,1,104
2019_Oct_02,201,001,0,recog,62,OLDER,HF,target,right,yellow,imageability,conservative,no,z,1,0.799869048815,1,105
2019_Oct_02,201,001,0,recog,63,THING,HF,target,left,aqua,pleasantness,liberal,no,z,1,0.679979792751,3,108
2019_Oct_02,201,001,0,recog,64,OUGHT,HF,target,right,yellow,imageability,liberal,no,z,1,1.23983056999,3,111
2019_Oct_02,201,001,0,recog,65,PAVILIONS,LF,target,right,yellow,imageability,conservative,no,z,1,0.653445313949,1,112
2019_Oct_02,201,001,0,recog,66,CLEAR,HF,target,right,yellow,imageability,liberal,no,z,1,0.7334219539,3,115
2019_Oct_02,201,001,0,recog,67,SMIRK,LF,target,right,yellow,imageability,liberal,no,z,1,1.25329009354,3,118
2019_Oct_02,201,001,0,recog,68,ANEMONES,LF,target,left,aqua,pleasantness,conservative,no,z,1,0.680080609033,1,119
2019_Oct_02,201,001,0,recog,69,INROADS,LF,lure,-,-,-,conservative,no,m,1,0.746709173255,3,122
2019_Oct_02,201,001,0,recog,70,BUSINESS,HF,lure,-,-,-,liberal,no,m,1,0.6134040196,1,123
2019_Oct_02,201,001,0,recog,71,OMITTING,LF,target,left,aqua,pleasantness,liberal,no,z,1,0.626775191423,3,126
2019_Oct_02,201,001,0,recog,72,TOFFEE,LF,lure,-,-,-,conservative,no,m,1,0.666554730043,3,129
2019_Oct_02,201,001,0,recog,73,POINT,HF,lure,-,-,-,conservative,no,m,1,0.893316577056,3,132
2019_Oct_02,201,001,0,recog,74,COVER,HF,lure,-,-,-,liberal,no,m,1,0.74681255577,1,133
2019_Oct_02,201,001,0,recog,75,DUMMIES,LF,lure,-,-,-,liberal,no,m,1,0.69337589369,1,134
2019_Oct_02,201,001,0,recog,76,ASSERTIVE,LF,target,left,aqua,pleasantness,conservative,no,z,1,0.666764794514,1,135
2019_Oct_02,201,001,0,recog,77,SHALL,HF,target,right,yellow,imageability,liberal,no,z,1,0.666751230142,3,138
2019_Oct_02,201,001,0,recog,78,PARENTS,HF,lure,-,-,-,conservative,no,m,1,1.37313095778,3,141
2019_Oct_02,201,001,0,recog,79,SPUDS,LF,lure,-,-,-,conservative,no,m,1,0.813168366124,3,144
2019_Oct_02,201,001,0,recog,80,ORDER,HF,lure,-,-,-,conservative,no,m,1,0.880024591841,3,147
2019_Oct_02,201,001,0,recog,81,AFIELD,LF,lure,-,-,-,liberal,no,m,1,0.680171526989,1,148
2019_Oct_02,201,001,0,recog,82,ANYONE,HF,target,right,yellow,imageability,liberal,no,z,1,0.626554495416,3,151
2019_Oct_02,201,001,0,recog,83,ALMOST,HF,target,right,yellow,imageability,conservative,no,z,1,0.599839647121,1,152
2019_Oct_02,201,001,0,recog,84,MARKET,HF,target,left,aqua,pleasantness,conservative,no,z,1,0.533461107278,1,153
2019_Oct_02,201,001,0,recog,85,TERMS,HF,lure,-,-,-,liberal,no,m,1,0.693458013135,1,154
2019_Oct_02,201,001,0,recog,86,AIDING,LF,lure,-,-,-,liberal,no,m,1,0.666782391538,1,155
2019_Oct_02,201,001,0,recog,87,LARGE,HF,target,left,aqua,pleasantness,liberal,no,z,1,0.546804783751,3,158
2019_Oct_02,201,001,0,recog,88,LEDGES,LF,target,right,yellow,imageability,liberal,no,z,1,0.600110934571,3,161
2019_Oct_02,201,001,0,recog,89,TADPOLES,LF,target,left,aqua,pleasantness,conservative,no,z,1,0.626521500997,1,162
2019_Oct_02,201,001,0,recog,90,RICKETS,LF,lure,-,-,-,liberal,no,m,1,0.693411820947,1,163
2019_Oct_02,201,001,0,recog,91,HUBBUB,LF,target,left,aqua,pleasantness,liberal,no,z,1,0.600101402849,3,166
2019_Oct_02,201,001,0,recog,92,POUNDS,HF,lure,-,-,-,liberal,no,m,1,0.999961506511,1,167
2019_Oct_02,201,001,0,recog,93,HUDDLE,LF,lure,-,-,-,conservative,yes,m,1,1.39984067361,3,170
2019_Oct_02,201,001,0,recog,94,OPULENCE,LF,target,left,aqua,pleasantness,liberal,no,z,1,0.920064786376,3,173
2019_Oct_02,201,001,0,recog,95,RAREFIED,LF,target,left,aqua,pleasantness,conservative,no,z,1,0.933318644707,1,174
2019_Oct_02,201,001,1,source,0,TRADE,HF,target,left,aqua,pleasantness,conservative,no,1,1,2.30611709206,-,-
2019_Oct_02,201,001,1,source,1,TROUBLE,HF,target,left,aqua,pleasantness,liberal,no,1,1,1.05321706589,-,-
2019_Oct_02,201,001,1,source,2,FLAGGED,LF,target,right,yellow,imageability,conservative,no,9,1,1.25323290321,-,-
2019_Oct_02,201,001,1,source,3,KINDEST,LF,target,right,yellow,imageability,conservative,no,9,1,0.786469648433,-,-
2019_Oct_02,201,001,1,source,4,ROSEBUD,LF,target,left,aqua,pleasantness,conservative,no,1,1,0.786802158862,-,-
2019_Oct_02,201,001,1,source,5,GEARING,LF,target,right,yellow,imageability,liberal,no,9,1,0.693411087738,-,-
2019_Oct_02,201,001,1,source,6,PIGLETS,LF,target,right,yellow,imageability,liberal,no,9,1,0.760178595127,-,-
2019_Oct_02,201,001,1,source,7,ANIMAL,HF,target,right,yellow,imageability,conservative,no,9,1,1.13324649691,-,-
2019_Oct_02,201,001,1,source,8,SNUBBED,LF,target,left,aqua,pleasantness,liberal,no,1,1,0.733235352128,-,-
2019_Oct_02,201,001,1,source,9,SCOFFED,LF,target,left,aqua,pleasantness,liberal,no,1,1,2.6126649446,-,-
2019_Oct_02,201,001,1,source,10,FEIGNED,LF,target,left,aqua,pleasantness,conservative,no,1,1,0.773355833083,-,-
2019_Oct_02,201,001,1,source,11,DOUBT,HF,target,right,yellow,imageability,liberal,no,9,1,1.54639638616,-,-
2019_Oct_02,201,001,1,source,12,GOUGED,LF,target,left,aqua,pleasantness,conservative,no,1,1,0.680209287269,-,-
2019_Oct_02,201,001,1,source,13,AMEND,LF,target,left,aqua,pleasantness,conservative,no,1,1,0.6267341317,-,-
2019_Oct_02,201,001,1,source,14,VAULTED,LF,target,right,yellow,imageability,conservative,no,9,1,2.43945597335,-,-
2019_Oct_02,201,001,1,source,15,TEMERITY,LF,target,left,aqua,pleasantness,conservative,no,1,1,0.666770660189,-,-
2019_Oct_02,201,001,1,source,16,DRINK,HF,target,left,aqua,pleasantness,liberal,no,1,1,0.746836751677,-,-
2019_Oct_02,201,001,1,source,17,PLODDED,LF,target,left,aqua,pleasantness,liberal,no,9,0,2.07934681314,-,-
2019_Oct_02,201,001,1,source,18,PIPELINES,LF,target,right,yellow,imageability,conservative,no,9,1,0.80005345096,-,-
2019_Oct_02,201,001,1,source,19,HOODLUMS,LF,target,right,yellow,imageability,conservative,no,9,1,0.613513267789,-,-
2019_Oct_02,201,001,1,source,20,PLEASE,HF,target,left,aqua,pleasantness,liberal,no,1,1,0.746716505348,-,-
2019_Oct_02,201,001,1,source,21,REWRITE,LF,target,right,yellow,imageability,liberal,no,9,1,0.840015192097,-,-
2019_Oct_02,201,001,1,source,22,BUCKED,LF,target,left,aqua,pleasantness,liberal,no,1,1,0.866498346246,-,-
2019_Oct_02,201,001,1,source,23,SMALL,HF,target,right,yellow,imageability,conservative,yes,9,1,1.41316455344,-,-
2019_Oct_02,201,001,1,source,24,BOWER,LF,target,right,yellow,imageability,liberal,no,9,1,2.46609860052,-,-
2019_Oct_02,201,001,1,source,25,ALLOWED,HF,target,left,aqua,pleasantness,conservative,no,1,1,0.759964498005,-,-
2019_Oct_02,201,001,1,source,26,SNOBBISH,LF,target,left,aqua,pleasantness,conservative,no,1,1,0.680080242428,-,-
2019_Oct_02,201,001,1,source,27,SEEMED,HF,target,left,aqua,pleasantness,conservative,no,1,1,0.586811617262,-,-
2019_Oct_02,201,001,1,source,28,SLIGHTLY,HF,target,right,yellow,imageability,conservative,no,9,1,0.746757565071,-,-
2019_Oct_02,201,001,1,source,29,INDEED,HF,target,right,yellow,imageability,liberal,no,1,0,1.86626995154,-,-
2019_Oct_02,201,001,1,source,30,DEVELOPED,HF,target,left,aqua,pleasantness,conservative,no,1,1,1.31987723143,-,-
2019_Oct_02,201,001,1,source,31,STUDENT,HF,target,right,yellow,imageability,liberal,no,9,1,1.39983370813,-,-
2019_Oct_02,201,001,1,source,32,APART,HF,target,left,aqua,pleasantness,liberal,no,1,1,1.01328391991,-,-
2019_Oct_02,201,001,1,source,33,WOODCOCK,LF,target,left,aqua,pleasantness,liberal,no,1,1,0.893337106917,-,-
2019_Oct_02,201,001,1,source,34,HEALTH,HF,target,right,yellow,imageability,conservative,no,9,1,0.919933175302,-,-
2019_Oct_02,201,001,1,source,35,HOIST,LF,target,right,yellow,imageability,liberal,no,9,1,0.786814990025,-,-
2019_Oct_02,201,001,1,source,36,LANGUAGE,HF,target,right,yellow,imageability,liberal,no,9,1,0.70650070718,-,-
2019_Oct_02,201,001,1,source,37,AVAILABLE,HF,target,right,yellow,imageability,conservative,yes,1,0,0.706832117795,-,-
2019_Oct_02,201,001,1,source,38,TOTAL,HF,target,right,yellow,imageability,liberal,no,9,1,1.37290256308,-,-
2019_Oct_02,201,001,1,source,39,RUNNING,HF,target,left,aqua,pleasantness,liberal,no,1,1,0.74646501455,-,-
2019_Oct_02,201,001,1,source,40,LYNCH,LF,target,left,aqua,pleasantness,liberal,no,1,1,0.626737431143,-,-
2019_Oct_02,201,001,1,source,41,REPORT,HF,target,right,yellow,imageability,conservative,no,9,1,2.4528377767,-,-
2019_Oct_02,201,001,1,source,42,CHLORIDE,LF,target,right,yellow,imageability,conservative,yes,1,0,0.626565860161,-,-
2019_Oct_02,201,001,1,source,43,TABLE,HF,target,left,aqua,pleasantness,conservative,no,1,1,0.813452851341,-,-
2019_Oct_02,201,001,1,source,44,DOCTOR,HF,target,left,aqua,pleasantness,liberal,no,1,1,1.82606735114,-,-
2019_Oct_02,201,001,1,source,45,ALONE,HF,target,right,yellow,imageability,liberal,no,9,1,1.8532672174,-,-
2019_Oct_02,201,001,1,source,46,TANGIER,LF,target,right,yellow,imageability,liberal,yes,1,0,0.773085645448,-,-
2019_Oct_02,201,001,1,source,47,BEAUTIFUL,HF,target,left,aqua,pleasantness,conservative,no,1,1,0.759805024977,-,-
2019_Oct_02,201,001,1,recog,0,INDEED,HF,target,right,yellow,imageability,liberal,no,z,1,1.94627591987,3,177
2019_Oct_02,201,001,1,recog,1,QUESTION,HF,lure,-,-,-,conservative,no,m,1,0.946664520807,3,180
2019_Oct_02,201,001,1,recog,2,NEURAL,LF,lure,-,-,-,conservative,no,m,1,0.880086548028,3,183
2019_Oct_02,201,001,1,recog,3,NATIONAL,HF,lure,-,-,-,conservative,no,m,1,1.50642804614,3,186
2019_Oct_02,201,001,1,recog,4,SCOFFED,LF,target,left,aqua,pleasantness,liberal,no,z,1,0.573411117067,3,189
2019_Oct_02,201,001,1,recog,5,INCLUDING,HF,lure,-,-,-,liberal,no,m,1,0.840154868473,1,190
2019_Oct_02,201,001,1,recog,6,FONDLE,LF,lure,-,-,-,liberal,no,m,1,0.920123076517,1,191
2019_Oct_02,201,001,1,recog,7,DRINK,HF,target,left,aqua,pleasantness,liberal,no,z,1,0.5602881366,3,194
2019_Oct_02,201,001,1,recog,8,DEVELOPED,HF,target,left,aqua,pleasantness,conservative,no,z,1,0.547001650454,1,195
2019_Oct_02,201,001,1,recog,9,STUDENT,HF,target,right,yellow,imageability,liberal,no,z,1,0.919986699583,3,198
2019_Oct_02,201,001,1,recog,10,THRASH,LF,lure,-,-,-,liberal,no,m,1,0.693483675461,1,199
2019_Oct_02,201,001,1,recog,11,CHROMIUM,LF,lure,-,-,-,conservative,no,m,1,0.666706870978,3,202
2019_Oct_02,201,001,1,recog,12,LIGHT,HF,lure,-,-,-,liberal,no,m,1,0.946626760527,1,203
2019_Oct_02,201,001,1,recog,13,ANNALS,LF,lure,-,-,-,liberal,no,m,1,0.840083380564,1,204
2019_Oct_02,201,001,1,recog,14,ANIMAL,HF,target,right,yellow,imageability,conservative,no,z,1,0.586863675124,1,205
2019_Oct_02,201,001,1,recog,15,PIPELINES,LF,target,right,yellow,imageability,conservative,no,z,1,0.520222279738,1,206
2019_Oct_02,201,001,1,recog,16,TANGIER,LF,target,right,yellow,imageability,liberal,yes,z,1,1.21322093723,3,209
2019_Oct_02,201,001,1,recog,17,SNOBBISH,LF,target,left,aqua,pleasantness,conservative,yes,z,1,0.626777024446,1,210
2019_Oct_02,201,001,1,recog,18,FEIGNED,LF,target,left,aqua,pleasantness,conservative,no,z,1,1.03993461239,1,211
2019_Oct_02,201,001,1,recog,19,AMEND,LF,target,left,aqua,pleasantness,conservative,no,z,1,0.640139764361,1,212
2019_Oct_02,201,001,1,recog,20,APART,HF,target,left,aqua,pleasantness,liberal,no,z,1,0.666760028654,3,215
2019_Oct_02,201,001,1,recog,21,SLOWLY,HF,lure,-,-,-,liberal,no,m,1,1.15991295339,1,216
2019_Oct_02,201,001,1,recog,22,BEAUTIFUL,HF,target,left,aqua,pleasantness,conservative,no,z,1,0.573511200139,1,217
2019_Oct_02,201,001,1,recog,23,PLODDED,LF,target,left,aqua,pleasantness,liberal,no,z,1,0.693409254715,3,220
2019_Oct_02,201,001,1,recog,24,REWRITE,LF,target,right,yellow,imageability,liberal,no,z,1,0.613571191326,3,223
2019_Oct_02,201,001,1,recog,25,LOOKED,HF,lure,-,-,-,liberal,no,m,1,0.746739234837,1,224
2019_Oct_02,201,001,1,recog,26,ALLOWED,HF,target,left,aqua,pleasantness,conservative,no,z,1,0.600247311505,1,225
2019_Oct_02,201,001,1,recog,27,SERIOUS,HF,lure,-,-,-,conservative,no,m,1,0.799824689651,3,228
2019_Oct_02,201,001,1,recog,28,BUCKED,LF,target,left,aqua,pleasantness,liberal,no,z,1,0.613428582112,3,231
2019_Oct_02,201,001,1,recog,29,BUGGED,LF,lure,-,-,-,liberal,no,m,1,0.746771129443,1,232
2019_Oct_02,201,001,1,recog,30,AVAILABLE,HF,target,right,yellow,imageability,conservative,no,z,1,0.919962503675,1,233
2019_Oct_02,201,001,1,recog,31,WOODCOCK,LF,target,left,aqua,pleasantness,liberal,no,z,1,0.613435180996,3,236
2019_Oct_02,201,001,1,recog,32,REPORT,HF,target,right,yellow,imageability,conservative,no,z,1,0.547102100131,1,237
2019_Oct_02,201,001,1,recog,33,HOODLUMS,LF,target,right,yellow,imageability,conservative,no,z,1,0.560121331479,1,238
2019_Oct_02,201,001,1,recog,34,LANGUAGE,HF,target,right,yellow,imageability,liberal,no,z,1,0.546802950727,3,241
2019_Oct_02,201,001,1,recog,35,TOILED,LF,lure,-,-,-,liberal,no,m,1,0.66648214232,1,242
2019_Oct_02,201,001,1,recog,36,HOIST,LF,target,right,yellow,imageability,liberal,no,z,1,0.640435980928,3,245
2019_Oct_02,201,001,1,recog,37,RATHER,HF,lure,-,-,-,conservative,no,m,1,0.706732767931,3,248
2019_Oct_02,201,001,1,recog,38,AHEAD,HF,lure,-,-,-,conservative,no,m,1,0.68012753443,3,251
2019_Oct_02,201,001,1,recog,39,BESOTTED,LF,lure,-,-,-,conservative,no,m,1,0.68005128066,3,254
2019_Oct_02,201,001,1,recog,40,DEGREE,HF,lure,-,-,-,conservative,no,m,1,0.733438084505,3,257
2019_Oct_02,201,001,1,recog,41,TEMERITY,LF,target,left,aqua,pleasantness,conservative,no,z,1,0.546864906915,1,258
2019_Oct_02,201,001,1,recog,42,MOUTH,HF,lure,-,-,-,conservative,no,m,1,0.586816749727,3,261
2019_Oct_02,201,001,1,recog,43,WOMAN,HF,lure,-,-,-,liberal,no,m,1,0.559873506728,1,262
2019_Oct_02,201,001,1,recog,44,ACIDITY,LF,lure,-,-,-,conservative,yes,m,1,0.800024489191,3,265
2019_Oct_02,201,001,1,recog,45,SMALL,HF,target,right,yellow,imageability,conservative,no,z,1,0.840033155725,1,266
2019_Oct_02,201,001,1,recog,46,OPENED,HF,lure,-,-,-,liberal,no,m,1,1.0002283947,1,267
2019_Oct_02,201,001,1,recog,47,PLEASE,HF,target,left,aqua,pleasantness,liberal,no,z,1,0.600216150108,3,270
2019_Oct_02,201,001,1,recog,48,TOTAL,HF,target,right,yellow,imageability,liberal,no,z,1,0.626536531788,3,273
2019_Oct_02,201,001,1,recog,49,TABLE,HF,target,left,aqua,pleasantness,conservative,no,z,1,0.546787919936,1,274
2019_Oct_02,201,001,1,recog,50,DOUBT,HF,target,right,yellow,imageability,liberal,no,z,1,0.57318492199,3,277
2019_Oct_02,201,001,1,recog,51,GROUND,HF,lure,-,-,-,conservative,no,m,1,0.653437615251,3,280
2019_Oct_02,201,001,1,recog,52,SNUBBED,LF,target,left,aqua,pleasantness,liberal,no,z,1,0.600116800245,3,283
2019_Oct_02,201,001,1,recog,53,LULLED,LF,lure,-,-,-,liberal,no,m,1,0.586827014658,1,284
2019_Oct_02,201,001,1,recog,54,TAGGED,LF,lure,-,-,-,conservative,no,m,1,0.960016629187,3,287
2019_Oct_02,201,001,1,recog,55,TRADE,HF,target,left,aqua,pleasantness,conservative,no,z,1,0.613417950577,1,288
2019_Oct_02,201,001,1,recog,56,DOSSIERS,LF,lure,-,-,-,liberal,no,m,1,0.600397619416,1,289
2019_Oct_02,201,001,1,recog,57,ROSEBUD,LF,target,left,aqua,pleasantness,conservative,no,z,1,0.733136002264,1,290
2019_Oct_02,201,001,1,recog,58,MYOPIC,LF,lure,-,-,-,liberal,no,m,1,0.560153226084,1,291
2019_Oct_02,201,001,1,recog,59,AFTERNOON,HF,lure,-,-,-,liberal,no,m,1,1.36005013685,1,292
2019_Oct_02,201,001,1,recog,60,SALAMI,LF,lure,-,-,-,liberal,no,m,1,0.613409885275,1,293
2019_Oct_02,201,001,1,recog,61,DOCTOR,HF,target,left,aqua,pleasantness,liberal,no,z,1,0.520187085691,3,296
2019_Oct_02,201,001,1,recog,62,BOWER,LF,target,right,yellow,imageability,liberal,no,z,1,0.533798383567,3,299
2019_Oct_02,201,001,1,recog,63,BEGAN,HF,lure,-,-,-,conservative,no,m,1,0.573508267302,3,302
2019_Oct_02,201,001,1,recog,64,BEHIND,HF,lure,-,-,-,conservative,no,m,1,0.627200086225,3,305
2019_Oct_02,201,001,1,recog,65,UNVEILED,LF,lure,-,-,-,conservative,no,m,1,0.626569159603,3,308
2019_Oct_02,201,001,1,recog,66,EVIDENCE,HF,lure,-,-,-,liberal,no,m,1,0.573486271022,1,309
2019_Oct_02,201,001,1,recog,67,HUSBAND,HF,lure,-,-,-,liberal,no,m,1,0.626534698765,1,310
2019_Oct_02,201,001,1,recog,68,HISTORY,HF,lure,-,-,-,liberal,no,m,1,0.560164957434,1,311
2019_Oct_02,201,001,1,recog,69,GOUGED,LF,target,left,aqua,pleasantness,conservative,no,z,1,0.533518297605,1,312
2019_Oct_02,201,001,1,recog,70,TROUBLE,HF,target,left,aqua,pleasantness,liberal,no,z,1,0.520199183645,3,315
2019_Oct_02,201,001,1,recog,71,REJOICED,LF,lure,-,-,-,conservative,no,m,1,0.733438084505,3,318
2019_Oct_02,201,001,1,recog,72,WAYSIDE,LF,lure,-,-,-,liberal,no,m,1,0.586722898934,1,319
2019_Oct_02,201,001,1,recog,73,RUNNING,HF,target,left,aqua,pleasantness,liberal,no,z,1,0.573321665529,3,322
2019_Oct_02,201,001,1,recog,74,KINDEST,LF,target,right,yellow,imageability,conservative,no,z,1,0.573544561163,1,323
2019_Oct_02,201,001,1,recog,75,ADDED,HF,lure,-,-,-,conservative,no,m,1,0.640101270872,3,326
2019_Oct_02,201,001,1,recog,76,FLAGGED,LF,target,right,yellow,imageability,conservative,no,z,1,0.626745496445,1,327
2019_Oct_02,201,001,1,recog,77,CHLORIDE,LF,target,right,yellow,imageability,conservative,no,z,1,0.760063481263,1,328
2019_Oct_02,201,001,1,recog,78,HEALTH,HF,target,right,yellow,imageability,conservative,no,z,1,0.586760292609,1,329
2019_Oct_02,201,001,1,recog,79,GEARING,LF,target,right,yellow,imageability,liberal,no,z,1,0.719918437795,3,332
2019_Oct_02,201,001,1,recog,80,MYSELF,HF,lure,-,-,-,liberal,no,m,1,0.573529163767,1,333
2019_Oct_02,201,001,1,recog,81,SLIGHTLY,HF,target,right,yellow,imageability,conservative,no,z,1,0.560143694363,1,334
2019_Oct_02,201,001,1,recog,82,SEEMED,HF,target,left,aqua,pleasantness,conservative,no,z,1,0.600145028804,1,335
2019_Oct_02,201,001,1,recog,83,HOBBLE,LF,lure,-,-,-,conservative,no,m,1,1.14636691114,3,338
2019_Oct_02,201,001,1,recog,84,ROUND,HF,lure,-,-,-,liberal,no,m,1,0.680047981218,1,339
2019_Oct_02,201,001,1,recog,85,VAULTED,LF,target,right,yellow,imageability,conservative,no,z,1,0.800009825005,1,340
2019_Oct_02,201,001,1,recog,86,LYNCH,LF,target,left,aqua,pleasantness,liberal,no,z,1,0.587098668712,3,343
2019_Oct_02,201,001,1,recog,87,TAMING,LF,lure,-,-,-,conservative,no,m,1,0.653462544368,3,346
2019_Oct_02,201,001,1,recog,88,VEERED,LF,lure,-,-,-,liberal,no,m,1,0.626807452633,1,347
2019_Oct_02,201,001,1,recog,89,SKATES,LF,lure,-,-,-,conservative,no,m,1,0.65343908167,3,350
2019_Oct_02,201,001,1,recog,90,MUGGING,LF,lure,-,-,-,conservative,yes,z,0,0.733113272775,-3,347
2019_Oct_02,201,001,1,recog,91,ALONE,HF,target,right,yellow,imageability,liberal,no,z,1,0.546846943287,3,350
2019_Oct_02,201,001,1,recog,92,PELTED,LF,lure,-,-,-,conservative,no,m,1,0.626812585098,3,353
2019_Oct_02,201,001,1,recog,93,TULIPS,LF,lure,-,-,-,liberal,no,m,1,0.653489673113,1,354
2019_Oct_02,201,001,1,recog,94,PIGLETS,LF,target,right,yellow,imageability,liberal,no,z,1,0.546910365893,3,357
2019_Oct_02,201,001,1,recog,95,WATCH,HF,lure,-,-,-,conservative,no,m,1,0.65342881674,3,360
2019_Oct_02,201,001,2,source,0,ASKED,HF,target,left,aqua,pleasantness,conservative,no,1,1,1.82627594919,-,-
2019_Oct_02,201,001,2,source,1,OVARIES,LF,target,right,yellow,imageability,liberal,no,9,1,0.973335376543,-,-
2019_Oct_02,201,001,2,source,2,PREPARED,HF,target,right,yellow,imageability,conservative,yes,1,0,1.39975452152,-,-
2019_Oct_02,201,001,2,source,3,SHORT,HF,target,left,aqua,pleasantness,liberal,no,1,1,1.3064976277,-,-
2019_Oct_02,201,001,2,source,4,TESTIFIES,LF,target,right,yellow,imageability,conservative,no,9,1,0.760016189262,-,-
2019_Oct_02,201,001,2,source,5,EVENING,HF,target,left,aqua,pleasantness,conservative,no,1,1,0.693434183832,-,-
2019_Oct_02,201,001,2,source,6,SODDING,LF,target,left,aqua,pleasantness,conservative,no,1,1,0.746910439214,-,-
2019_Oct_02,201,001,2,source,7,NUMBER,HF,target,right,yellow,imageability,conservative,no,9,1,0.586755526748,-,-
2019_Oct_02,201,001,2,source,8,MEMBERS,HF,target,right,yellow,imageability,conservative,no,9,1,0.840036821772,-,-
2019_Oct_02,201,001,2,source,9,YACHTING,LF,target,right,yellow,imageability,conservative,no,9,1,0.666534566787,-,-
2019_Oct_02,201,001,2,source,10,BUBBLED,LF,target,left,aqua,pleasantness,liberal,no,1,1,0.853356668942,-,-
2019_Oct_02,201,001,2,source,11,INVOLVED,HF,target,left,aqua,pleasantness,liberal,no,1,1,1.15988582464,-,-
2019_Oct_02,201,001,2,source,12,HEEDED,LF,target,right,yellow,imageability,conservative,no,1,0,1.58646260962,-,-
2019_Oct_02,201,001,2,source,13,BLOOD,HF,target,left,aqua,pleasantness,conservative,no,1,1,0.76013166973,-,-
2019_Oct_02,201,001,2,source,14,RAKING,LF,target,left,aqua,pleasantness,conservative,no,1,1,0.799996993842,-,-
2019_Oct_02,201,001,2,source,15,ABOVE,HF,target,right,yellow,imageability,conservative,no,9,1,1.07994804479,-,-
2019_Oct_02,201,001,2,source,16,ALABASTER,LF,target,right,yellow,imageability,liberal,no,9,1,0.773427320992,-,-
2019_Oct_02,201,001,2,source,17,SPACE,HF,target,left,aqua,pleasantness,conservative,no,1,1,1.09332801512,-,-
2019_Oct_02,201,001,2,source,18,EXPECT,HF,target,left,aqua,pleasantness,liberal,no,1,1,0.760180794755,-,-
2019_Oct_02,201,001,2,source,19,OFTEN,HF,target,right,yellow,imageability,liberal,no,9,1,0.72019485771,-,-
2019_Oct_02,201,001,2,source,20,VECTORS,LF,target,right,yellow,imageability,liberal,no,9,1,0.666606421301,-,-
2019_Oct_02,201,001,2,source,21,POLICE,HF,target,right,yellow,imageability,conservative,no,9,1,0.746531369994,-,-
2019_Oct_02,201,001,2,source,22,ENERGY,HF,target,right,yellow,imageability,conservative,no,9,1,0.720074244776,-,-
2019_Oct_02,201,001,2,source,23,CANNOT,HF,target,right,yellow,imageability,liberal,no,None,-1,-1,-,-
2019_Oct_02,201,001,2,source,24,ENGULF,LF,target,left,aqua,pleasantness,liberal,no,1,1,0.773361698758,-,-
2019_Oct_02,201,001,2,source,25,LUSCIOUS,LF,target,left,aqua,pleasantness,liberal,no,1,1,0.986746141669,-,-
2019_Oct_02,201,001,2,source,26,ACQUIRES,LF,target,left,aqua,pleasantness,liberal,no,9,0,1.66633586706,-,-
2019_Oct_02,201,001,2,source,27,PADDLE,LF,target,left,aqua,pleasantness,conservative,no,1,1,1.47976048984,-,-
2019_Oct_02,201,001,2,source,28,UMBILICAL,LF,target,right,yellow,imageability,liberal,no,9,1,2.34613235748,-,-
2019_Oct_02,201,001,2,source,29,SWIFTNESS,LF,target,right,yellow,imageability,conservative,no,9,1,1.21331955389,-,-
2019_Oct_02,201,001,2,source,30,ESPECIAL,LF,target,left,aqua,pleasantness,conservative,no,1,1,0.693368928202,-,-
2019_Oct_02,201,001,2,source,31,OBVIOUSLY,HF,target,left,aqua,pleasantness,conservative,no,1,1,0.813122540541,-,-
2019_Oct_02,201,001,2,source,32,TUBERS,LF,target,left,aqua,pleasantness,conservative,no,1,1,0.746539435297,-,-
2019_Oct_02,201,001,2,source,33,FINAL,HF,target,right,yellow,imageability,liberal,no,7,1,2.47940488332,-,-
2019_Oct_02,201,001,2,source,34,ODDER,LF,target,left,aqua,pleasantness,conservative,no,1,1,3.38610656318,-,-
2019_Oct_02,201,001,2,source,35,SOCIAL,HF,target,right,yellow,imageability,liberal,no,9,1,0.586763592051,-,-
2019_Oct_02,201,001,2,source,36,YOUNG,HF,target,right,yellow,imageability,liberal,no,9,1,0.613438480438,-,-
2019_Oct_02,201,001,2,source,37,ROYALS,LF,target,right,yellow,imageability,conservative,no,9,1,0.64008697329,-,-
2019_Oct_02,201,001,2,source,38,NAUGHT,LF,target,right,yellow,imageability,liberal,no,9,1,0.66654813116,-,-
2019_Oct_02,201,001,2,source,39,CALLED,HF,target,left,aqua,pleasantness,conservative,yes,9,0,0.906429292592,-,-
2019_Oct_02,201,001,2,source,40,NOTHING,HF,target,right,yellow,imageability,liberal,yes,1,0,0.733415355016,-,-
2019_Oct_02,201,001,2,source,41,REFECTORY,LF,target,left,aqua,pleasantness,liberal,no,1,1,1.0799414459,-,-
2019_Oct_02,201,001,2,source,42,FRUGAL,LF,target,right,yellow,imageability,liberal,no,9,1,0.906667952227,-,-
2019_Oct_02,201,001,2,source,43,MODERN,HF,target,left,aqua,pleasantness,liberal,no,1,1,0.639868843516,-,-
2019_Oct_02,201,001,2,source,44,DUNGEON,LF,target,left,aqua,pleasantness,liberal,yes,1,1,0.720150498546,-,-
2019_Oct_02,201,001,2,source,45,ATTACK,HF,target,left,aqua,pleasantness,liberal,no,1,1,0.653436515438,-,-
2019_Oct_02,201,001,2,source,46,HUMAN,HF,target,left,aqua,pleasantness,liberal,no,1,1,1.17323500019,-,-
2019_Oct_02,201,001,2,source,47,PITCHER,LF,target,right,yellow,imageability,conservative,no,9,1,0.81312877282,-,-
2019_Oct_02,201,001,2,recog,0,ACQUIRES,LF,target,left,aqua,pleasantness,liberal,no,z,1,1.10654997885,3,363
2019_Oct_02,201,001,2,recog,1,YACHTING,LF,target,right,yellow,imageability,conservative,no,z,1,0.653485273857,1,364
2019_Oct_02,201,001,2,recog,2,MEMBERS,HF,target,right,yellow,imageability,conservative,no,z,1,0.599554428694,1,365
2019_Oct_02,201,001,2,recog,3,FRUGAL,LF,target,right,yellow,imageability,liberal,no,z,1,0.600169957921,3,368
2019_Oct_02,201,001,2,recog,4,PAWNS,LF,lure,-,-,-,liberal,no,m,1,0.693412187552,1,369
2019_Oct_02,201,001,2,recog,5,NOTHING,HF,target,right,yellow,imageability,liberal,no,z,1,0.640100537662,3,372
2019_Oct_02,201,001,2,recog,6,INSIDE,HF,lure,-,-,-,liberal,no,m,1,0.96005145663,1,373
2019_Oct_02,201,001,2,recog,7,DUNGEON,LF,target,left,aqua,pleasantness,liberal,no,z,1,0.546793419006,3,376
2019_Oct_02,201,001,2,recog,8,ATONEMENT,LF,lure,-,-,-,liberal,no,m,1,0.693393490714,1,377
2019_Oct_02,201,001,2,recog,9,CALLED,HF,target,left,aqua,pleasantness,conservative,no,z,1,0.733149566637,1,378
2019_Oct_02,201,001,2,recog,10,TWINE,LF,lure,-,-,-,liberal,no,m,1,0.640153695338,1,379
2019_Oct_02,201,001,2,recog,11,SOCIAL,HF,target,right,yellow,imageability,liberal,no,z,1,0.559889637333,3,382
2019_Oct_02,201,001,2,recog,12,GASEOUS,LF,lure,-,-,-,conservative,no,m,1,0.653426983716,3,385
2019_Oct_02,201,001,2,recog,13,HUNDRED,HF,lure,-,-,-,liberal,no,m,1,1.11990685309,1,386
2019_Oct_02,201,001,2,recog,14,INVOLVED,HF,target,left,aqua,pleasantness,liberal,no,z,1,0.666733999723,3,389
2019_Oct_02,201,001,2,recog,15,MASKING,LF,lure,-,-,-,liberal,no,m,1,0.680199388943,1,390
2019_Oct_02,201,001,2,recog,16,ESPECIAL,LF,target,left,aqua,pleasantness,conservative,no,z,1,0.560276038646,1,391
2019_Oct_02,201,001,2,recog,17,TRUTH,HF,lure,-,-,-,conservative,no,m,1,0.653409020088,3,394
2019_Oct_02,201,001,2,recog,18,PREPARED,HF,target,right,yellow,imageability,conservative,no,z,1,0.601508798145,1,395
2019_Oct_02,201,001,2,recog,19,POTASH,LF,lure,-,-,-,liberal,no,m,1,1.15993348325,1,396
2019_Oct_02,201,001,2,recog,20,VALUE,HF,lure,-,-,-,conservative,no,m,1,0.760228819966,3,399
2019_Oct_02,201,001,2,recog,21,HEDGED,LF,lure,-,-,-,liberal,no,m,1,1.09328402256,1,400
2019_Oct_02,201,001,2,recog,22,MOVED,HF,lure,-,-,-,conservative,no,m,1,0.839993929027,3,403
2019_Oct_02,201,001,2,recog,23,OVARIES,LF,target,right,yellow,imageability,liberal,no,z,1,0.54677325575,3,406
2019_Oct_02,201,001,2,recog,24,SODDING,LF,target,left,aqua,pleasantness,conservative,no,z,1,0.640084773662,1,407
2019_Oct_02,201,001,2,recog,25,POLICE,HF,target,right,yellow,imageability,conservative,no,z,1,0.560151393061,1,408
2019_Oct_02,201,001,2,recog,26,OFTEN,HF,target,right,yellow,imageability,liberal,yes,m,0,0.533465506534,-3,405
2019_Oct_02,201,001,2,recog,27,TAKEN,HF,lure,-,-,-,liberal,yes,z,0,0.733148833427,-1,404
2019_Oct_02,201,001,2,recog,28,SCABS,LF,lure,-,-,-,conservative,no,m,1,1.599735898,3,407
2019_Oct_02,201,001,2,recog,29,CEASELESS,LF,lure,-,-,-,conservative,no,m,1,1.78644875197,3,410
2019_Oct_02,201,001,2,recog,30,ASKED,HF,target,left,aqua,pleasantness,conservative,no,z,1,0.839991362794,1,411
2019_Oct_02,201,001,2,recog,31,SAPLINGS,LF,lure,-,-,-,liberal,no,z,0,5.47823614766,-1,410
2019_Oct_02,201,001,2,recog,32,YOUNG,HF,target,right,yellow,imageability,liberal,no,z,1,3.77220799389,3,413
2019_Oct_02,201,001,2,recog,33,VECTORS,LF,target,right,yellow,imageability,liberal,no,z,1,0.82674666958,3,416
2019_Oct_02,201,001,2,recog,34,WRITE,HF,lure,-,-,-,conservative,no,m,1,1.9729152476,3,419
2019_Oct_02,201,001,2,recog,35,BOMBARDED,LF,lure,-,-,-,conservative,no,m,1,1.0398015349,3,422
2019_Oct_02,201,001,2,recog,36,SIPHON,LF,lure,-,-,-,liberal,no,m,1,0.89192091311,1,423
2019_Oct_02,201,001,2,recog,37,CAFETERIA,LF,lure,-,-,-,liberal,no,m,1,0.680188024199,1,424
2019_Oct_02,201,001,2,recog,38,SYSTEM,HF,lure,-,-,-,liberal,no,m,1,0.61322548313,1,425
2019_Oct_02,201,001,2,recog,39,OBVIOUSLY,HF,target,left,aqua,pleasantness,conservative,no,z,1,0.560275305437,1,426
2019_Oct_02,201,001,2,recog,40,NUMBER,HF,target,right,yellow,imageability,conservative,no,z,1,2.03959403666,1,427
2019_Oct_02,201,001,2,recog,41,ATTACK,HF,target,left,aqua,pleasantness,liberal,no,z,1,0.853401028106,3,430
2019_Oct_02,201,001,2,recog,42,LUSCIOUS,LF,target,left,aqua,pleasantness,liberal,no,z,1,0.560208949993,3,433
2019_Oct_02,201,001,2,recog,43,NOURISH,LF,lure,-,-,-,conservative,no,m,1,1.05315071044,3,436
2019_Oct_02,201,001,2,recog,44,CAMPANILE,LF,lure,-,-,-,liberal,no,m,1,0.614625546332,1,437
2019_Oct_02,201,001,2,recog,45,EXPECT,HF,target,left,aqua,pleasantness,liberal,no,z,1,0.546959490918,3,440
2019_Oct_02,201,001,2,recog,46,UNRAVEL,LF,lure,-,-,-,conservative,no,m,1,0.693383958993,3,443
2019_Oct_02,201,001,2,recog,47,CULINARY,LF,lure,-,-,-,liberal,no,m,1,0.760080711682,1,444
2019_Oct_02,201,001,2,recog,48,ABOVE,HF,target,right,yellow,imageability,conservative,yes,z,1,0.853159435634,1,445
2019_Oct_02,201,001,2,recog,49,ALABASTER,LF,target,right,yellow,imageability,liberal,no,z,1,0.839795962509,3,448
2019_Oct_02,201,001,2,recog,50,BAGGY,LF,lure,-,-,-,conservative,no,m,1,0.653426983716,3,451
2019_Oct_02,201,001,2,recog,51,JOCKEYS,LF,lure,-,-,-,conservative,no,m,1,0.973371670405,3,454
2019_Oct_02,201,001,2,recog,52,FOLLOWED,HF,lure,-,-,-,liberal,no,m,1,0.706235285405,1,455
2019_Oct_02,201,001,2,recog,53,TRYING,HF,lure,-,-,-,liberal,no,m,1,0.640067543243,1,456
2019_Oct_02,201,001,2,recog,54,NAUGHT,LF,target,right,yellow,imageability,liberal,no,z,1,0.626734498305,3,459
2019_Oct_02,201,001,2,recog,55,UMBILICAL,LF,target,right,yellow,imageability,liberal,no,z,1,0.720420686181,3,462
2019_Oct_02,201,001,2,recog,56,FOUND,HF,lure,-,-,-,liberal,no,m,1,0.800056383797,1,463
2019_Oct_02,201,001,2,recog,57,GLASS,HF,lure,-,-,-,conservative,no,m,1,1.14666679376,3,466
2019_Oct_02,201,001,2,recog,58,TODAY,HF,lure,-,-,-,liberal,no,m,1,0.600188654759,1,467
2019_Oct_02,201,001,2,recog,59,EVENING,HF,target,left,aqua,pleasantness,conservative,no,z,1,0.560127930363,1,468
2019_Oct_02,201,001,2,recog,60,ENGULF,LF,target,left,aqua,pleasantness,liberal,no,z,1,0.760204990663,3,471
2019_Oct_02,201,001,2,recog,61,MODERN,HF,target,left,aqua,pleasantness,liberal,no,z,1,0.600126331967,3,474
2019_Oct_02,201,001,2,recog,62,SPACE,HF,target,left,aqua,pleasantness,conservative,no,z,1,0.533655041144,1,475
2019_Oct_02,201,001,2,recog,63,TUBERS,LF,target,left,aqua,pleasantness,conservative,no,z,1,0.693381026156,1,476
2019_Oct_02,201,001,2,recog,64,HEEDED,LF,target,right,yellow,imageability,conservative,no,z,1,0.586821148983,1,477
2019_Oct_02,201,001,2,recog,65,SHORT,HF,target,left,aqua,pleasantness,liberal,no,z,1,0.613398887135,3,480
2019_Oct_02,201,001,2,recog,66,CANNOT,HF,target,right,yellow,imageability,liberal,no,z,1,0.733527169438,3,483
2019_Oct_02,201,001,2,recog,67,SUMMER,HF,lure,-,-,-,conservative,no,m,1,1.46642231244,3,486
2019_Oct_02,201,001,2,recog,68,PADDLE,LF,target,left,aqua,pleasantness,conservative,no,z,1,0.853390763176,1,487
2019_Oct_02,201,001,2,recog,69,TREES,HF,lure,-,-,-,liberal,no,m,1,0.760126537265,1,488
2019_Oct_02,201,001,2,recog,70,TESTIFIES,LF,target,right,yellow,imageability,conservative,no,z,1,0.639898905098,1,489
2019_Oct_02,201,001,2,recog,71,HUMAN,HF,target,left,aqua,pleasantness,liberal,no,z,1,0.560500767304,3,492
2019_Oct_02,201,001,2,recog,72,ENERGY,HF,target,right,yellow,imageability,conservative,no,m,0,0.693449214623,-1,491
2019_Oct_02,201,001,2,recog,73,USHERS,LF,lure,-,-,-,conservative,yes,z,0,0.906857120232,-3,488
2019_Oct_02,201,001,2,recog,74,REFECTORY,LF,target,left,aqua,pleasantness,liberal,no,z,1,1.41320451334,3,491
2019_Oct_02,201,001,2,recog,75,CARRIED,HF,lure,-,-,-,conservative,no,m,1,0.826699744183,3,494
2019_Oct_02,201,001,2,recog,76,ARRIVED,HF,lure,-,-,-,conservative,no,m,1,0.90663275818,3,497
2019_Oct_02,201,001,2,recog,77,ROYALS,LF,target,right,yellow,imageability,conservative,no,z,1,0.840063950517,1,498
2019_Oct_02,201,001,2,recog,78,BUBBLED,LF,target,left,aqua,pleasantness,liberal,no,z,1,0.879774567461,3,501
2019_Oct_02,201,001,2,recog,79,GREATER,HF,lure,-,-,-,conservative,no,m,1,0.693447014995,3,504
2019_Oct_02,201,001,2,recog,80,BROUGHT,HF,lure,-,-,-,liberal,no,m,1,1.09324479586,1,505
2019_Oct_02,201,001,2,recog,81,MILES,HF,lure,-,-,-,conservative,no,m,1,0.73341645483,3,508
2019_Oct_02,201,001,2,recog,82,BACHELORS,LF,lure,-,-,-,conservative,no,m,1,0.746588560321,3,511
2019_Oct_02,201,001,2,recog,83,RAKING,LF,target,left,aqua,pleasantness,conservative,no,z,1,0.933641990018,1,512
2019_Oct_02,201,001,2,recog,84,PITCHER,LF,target,right,yellow,imageability,conservative,no,z,1,0.586817849541,1,513
2019_Oct_02,201,001,2,recog,85,DAUGHTER,HF,lure,-,-,-,liberal,no,m,1,0.706786658817,1,514
2019_Oct_02,201,001,2,recog,86,ODDER,LF,target,left,aqua,pleasantness,conservative,no,z,1,0.586761759028,1,515
2019_Oct_02,201,001,2,recog,87,TIPSY,LF,lure,-,-,-,conservative,no,m,1,0.693691173699,3,518
2019_Oct_02,201,001,2,recog,88,PASSED,HF,lure,-,-,-,conservative,no,m,1,0.653483074229,3,521
2019_Oct_02,201,001,2,recog,89,RECENT,HF,lure,-,-,-,liberal,no,m,1,0.800046852076,1,522
2019_Oct_02,201,001,2,recog,90,TORMENTS,LF,lure,-,-,-,liberal,no,m,1,0.706763929328,1,523
2019_Oct_02,201,001,2,recog,91,FINAL,HF,target,right,yellow,imageability,liberal,no,z,1,0.680096739638,3,526
2019_Oct_02,201,001,2,recog,92,SWIFTNESS,LF,target,right,yellow,imageability,conservative,no,z,1,0.693459112949,1,527
2019_Oct_02,201,001,2,recog,93,PHYSICAL,HF,lure,-,-,-,conservative,no,m,1,0.653169627244,3,530
2019_Oct_02,201,001,2,recog,94,JADED,LF,lure,-,-,-,conservative,no,m,1,0.7201076058,3,533
2019_Oct_02,201,001,2,recog,95,BLOOD,HF,target,left,aqua,pleasantness,conservative,no,z,1,0.693454347088,1,534
2019_Oct_02,201,001,3,source,0,EXACTLY,HF,target,left,aqua,pleasantness,liberal,no,1,1,1.58617262534,-,-
2019_Oct_02,201,001,3,source,1,ELICIT,LF,target,right,yellow,imageability,liberal,no,9,1,0.866827557232,-,-
2019_Oct_02,201,001,3,source,2,ANOINTED,LF,target,left,aqua,pleasantness,conservative,no,1,1,0.906658053901,-,-
2019_Oct_02,201,001,3,source,3,PRACTICE,HF,target,right,yellow,imageability,conservative,no,9,1,1.66635639692,-,-
2019_Oct_02,201,001,3,source,4,SOVIET,HF,target,left,aqua,pleasantness,conservative,no,1,1,0.653410119902,-,-
2019_Oct_02,201,001,3,source,5,DURING,HF,target,left,aqua,pleasantness,liberal,no,1,1,2.26590899259,-,-
2019_Oct_02,201,001,3,source,6,FELLS,LF,target,right,yellow,imageability,liberal,no,9,1,0.746519272041,-,-
2019_Oct_02,201,001,3,source,7,IMPORTANT,HF,target,left,aqua,pleasantness,liberal,no,1,1,0.693455813507,-,-
2019_Oct_02,201,001,3,source,8,COWARDS,LF,target,left,aqua,pleasantness,conservative,yes,1,1,1.01329125201,-,-
2019_Oct_02,201,001,3,source,9,MOPED,LF,target,left,aqua,pleasantness,liberal,no,1,1,0.773422188527,-,-
2019_Oct_02,201,001,3,source,10,CERTAIN,HF,target,right,yellow,imageability,conservative,no,9,1,0.760023521355,-,-
2019_Oct_02,201,001,3,source,11,AUGMENT,LF,target,left,aqua,pleasantness,conservative,no,1,1,1.66616136324,-,-
2019_Oct_02,201,001,3,source,12,SWEARS,LF,target,left,aqua,pleasantness,liberal,no,1,1,0.706714437698,-,-
2019_Oct_02,201,001,3,source,13,BUZZARD,LF,target,right,yellow,imageability,liberal,no,9,1,1.33315455246,-,-
2019_Oct_02,201,001,3,source,14,BECAME,HF,target,left,aqua,pleasantness,conservative,no,1,1,0.920211061636,-,-
2019_Oct_02,201,001,3,source,15,BUNGALOWS,LF,target,right,yellow,imageability,conservative,no,9,1,0.706496307924,-,-
2019_Oct_02,201,001,3,source,16,EDICT,LF,target,right,yellow,imageability,liberal,no,9,1,0.946708146762,-,-
2019_Oct_02,201,001,3,source,17,SORRY,HF,target,right,yellow,imageability,liberal,no,9,1,0.639856012353,-,-
2019_Oct_02,201,001,3,source,18,HAPPEN,HF,target,left,aqua,pleasantness,liberal,no,1,1,0.759774963394,-,-
2019_Oct_02,201,001,3,source,19,DISARMED,LF,target,left,aqua,pleasantness,liberal,no,1,1,0.880050620771,-,-
2019_Oct_02,201,001,3,source,20,LEVEL,HF,target,left,aqua,pleasantness,conservative,no,1,1,0.693405588668,-,-
2019_Oct_02,201,001,3,source,21,HAVING,HF,target,right,yellow,imageability,conservative,no,9,1,1.18630482298,-,-
2019_Oct_02,201,001,3,source,22,THEORY,HF,target,right,yellow,imageability,liberal,no,9,1,0.614412549024,-,-
2019_Oct_02,201,001,3,source,23,CHAIR,HF,target,left,aqua,pleasantness,liberal,no,1,1,0.65317952557,-,-
2019_Oct_02,201,001,3,source,24,PRYING,LF,target,left,aqua,pleasantness,conservative,no,1,1,1.17301210455,-,-
2019_Oct_02,201,001,3,source,25,DRYER,LF,target,left,aqua,pleasantness,conservative,no,1,1,0.640117034872,-,-
2019_Oct_02,201,001,3,source,26,AMALGAM,LF,target,right,yellow,imageability,liberal,no,9,1,0.813353501478,-,-
2019_Oct_02,201,001,3,source,27,CONCERNED,HF,target,right,yellow,imageability,liberal,no,9,1,1.09324222963,-,-
2019_Oct_02,201,001,3,source,28,LAXATIVE,LF,target,right,yellow,imageability,conservative,no,9,1,0.653386290599,-,-
2019_Oct_02,201,001,3,source,29,CUFFED,LF,target,left,aqua,pleasantness,liberal,no,1,1,0.680141465407,-,-
2019_Oct_02,201,001,3,source,30,ATHEIST,LF,target,right,yellow,imageability,conservative,no,9,1,0.733169729893,-,-
2019_Oct_02,201,001,3,source,31,CLOSE,HF,target,left,aqua,pleasantness,conservative,yes,1,1,0.853325507546,-,-
2019_Oct_02,201,001,3,source,32,DIFFERENT,HF,target,right,yellow,imageability,conservative,no,9,1,1.53284337842,-,-
2019_Oct_02,201,001,3,source,33,OSTRACISM,LF,target,left,aqua,pleasantness,liberal,no,1,1,0.586582122743,-,-
2019_Oct_02,201,001,3,source,34,WALKED,HF,target,right,yellow,imageability,conservative,no,9,1,1.90630574682,-,-
2019_Oct_02,201,001,3,source,35,JUDICIOUS,LF,target,right,yellow,imageability,conservative,no,9,1,0.853387097129,-,-
2019_Oct_02,201,001,3,source,36,VIVACIOUS,LF,target,left,aqua,pleasantness,conservative,no,1,1,0.613641579421,-,-
2019_Oct_02,201,001,3,source,37,PIECE,HF,target,right,yellow,imageability,liberal,no,9,1,0.773122672519,-,-
2019_Oct_02,201,001,3,source,38,VARIOUS,HF,target,right,yellow,imageability,liberal,no,9,1,1.83964455478,-,-
2019_Oct_02,201,001,3,source,39,DUBIOUSLY,LF,target,right,yellow,imageability,conservative,no,9,1,1.81298103114,-,-
2019_Oct_02,201,001,3,source,40,USUAL,HF,target,right,yellow,imageability,conservative,yes,1,0,0.506792084565,-,-
2019_Oct_02,201,001,3,source,41,QUALITY,HF,target,left,aqua,pleasantness,conservative,no,1,1,0.626599221185,-,-
2019_Oct_02,201,001,3,source,42,WAITING,HF,target,left,aqua,pleasantness,conservative,no,9,0,3.81212977512,-,-
2019_Oct_02,201,001,3,source,43,MALIGNED,LF,target,left,aqua,pleasantness,liberal,no,1,1,0.680232016759,-,-
2019_Oct_02,201,001,3,source,44,SPEAK,HF,target,right,yellow,imageability,liberal,no,9,1,0.826509109759,-,-
2019_Oct_02,201,001,3,source,45,NIGHT,HF,target,left,aqua,pleasantness,liberal,no,1,1,0.786682645742,-,-
2019_Oct_02,201,001,3,source,46,DOODLE,LF,target,right,yellow,imageability,liberal,yes,1,0,0.506861006242,-,-
2019_Oct_02,201,001,3,source,47,HONKING,LF,target,right,yellow,imageability,conservative,no,9,1,1.01327438819,-,-
2019_Oct_02,201,001,3,recog,0,PRYING,LF,target,left,aqua,pleasantness,conservative,no,z,1,0.946608063689,1,535
2019_Oct_02,201,001,3,recog,1,QUALITY,HF,target,left,aqua,pleasantness,conservative,no,z,1,0.586833246937,1,536
2019_Oct_02,201,001,3,recog,2,SOVIET,HF,target,left,aqua,pleasantness,conservative,no,z,1,0.64008147422,1,537
2019_Oct_02,201,001,3,recog,3,BYGONE,LF,lure,-,-,-,liberal,no,m,1,0.586812350471,1,538
2019_Oct_02,201,001,3,recog,4,HAPPEN,HF,target,left,aqua,pleasantness,liberal,no,z,1,1.15992028548,3,541
2019_Oct_02,201,001,3,recog,5,WALKED,HF,target,right,yellow,imageability,conservative,no,z,1,0.680103705127,1,542
2019_Oct_02,201,001,3,recog,6,DUBIOUSLY,LF,target,right,yellow,imageability,conservative,no,z,1,0.600115700432,1,543
2019_Oct_02,201,001,3,recog,7,CONCERNED,HF,target,right,yellow,imageability,liberal,no,z,1,0.679001324909,3,546
2019_Oct_02,201,001,3,recog,8,CYANIDE,LF,lure,-,-,-,conservative,no,m,1,0.626536165184,3,549
2019_Oct_02,201,001,3,recog,9,CHAIR,HF,target,left,aqua,pleasantness,liberal,no,z,1,0.560160191573,3,552
2019_Oct_02,201,001,3,recog,10,BECAME,HF,target,left,aqua,pleasantness,conservative,no,z,1,0.653489306509,1,553
2019_Oct_02,201,001,3,recog,11,FEELING,HF,lure,-,-,-,conservative,no,m,1,0.786698776347,3,556
2019_Oct_02,201,001,3,recog,12,DRYER,LF,target,left,aqua,pleasantness,conservative,no,z,1,0.586760292609,1,557
2019_Oct_02,201,001,3,recog,13,LOTTERY,LF,lure,-,-,-,conservative,no,m,1,0.813364866222,3,560
2019_Oct_02,201,001,3,recog,14,MATERIAL,HF,lure,-,-,-,conservative,no,m,1,0.720094041428,3,563
2019_Oct_02,201,001,3,recog,15,UNION,HF,lure,-,-,-,conservative,no,m,1,0.680129000848,3,566
2019_Oct_02,201,001,3,recog,16,LEFTISTS,LF,lure,-,-,-,liberal,no,m,1,0.613203853455,1,567
2019_Oct_02,201,001,3,recog,17,CERTAIN,HF,target,right,yellow,imageability,conservative,no,z,1,0.599915900891,1,568
2019_Oct_02,201,001,3,recog,18,HONKING,LF,target,right,yellow,imageability,conservative,no,z,1,0.720055547938,1,569
2019_Oct_02,201,001,3,recog,19,JUROR,LF,lure,-,-,-,liberal,no,m,1,0.573527330744,1,570
2019_Oct_02,201,001,3,recog,20,NIGHT,HF,target,left,aqua,pleasantness,liberal,no,z,1,1.39978348329,3,573
2019_Oct_02,201,001,3,recog,21,CLOSE,HF,target,left,aqua,pleasantness,conservative,no,m,0,0.773408990759,-1,572
2019_Oct_02,201,001,3,recog,22,MALIGNED,LF,target,left,aqua,pleasantness,liberal,no,z,1,0.99997323786,3,575
2019_Oct_02,201,001,3,recog,23,HADJI,LF,lure,-,-,-,liberal,no,m,1,0.613775756727,1,576
2019_Oct_02,201,001,3,recog,24,ENOUGH,HF,lure,-,-,-,liberal,no,m,1,0.986608664921,1,577
2019_Oct_02,201,001,3,recog,25,AUGMENT,LF,target,left,aqua,pleasantness,conservative,no,z,1,0.613458643695,1,578
2019_Oct_02,201,001,3,recog,26,GENERAL,HF,lure,-,-,-,conservative,no,m,1,0.733540733811,3,581
2019_Oct_02,201,001,3,recog,27,DOGMAS,LF,lure,-,-,-,liberal,no,m,1,0.693513737043,1,582
2019_Oct_02,201,001,3,recog,28,USING,HF,lure,-,-,-,conservative,no,m,1,0.600210651039,3,585
2019_Oct_02,201,001,3,recog,29,DUGOUTS,LF,lure,-,-,-,liberal,no,m,1,0.959958705651,1,586
2019_Oct_02,201,001,3,recog,30,DURING,HF,target,left,aqua,pleasantness,liberal,no,z,1,0.626652745465,3,589
2019_Oct_02,201,001,3,recog,31,IMPORTANT,HF,target,left,aqua,pleasantness,liberal,no,z,1,0.733411322365,3,592
2019_Oct_02,201,001,3,recog,32,ATHEIST,LF,target,right,yellow,imageability,conservative,no,z,1,0.613521333092,1,593
2019_Oct_02,201,001,3,recog,33,ANOINTED,LF,target,left,aqua,pleasantness,conservative,no,z,1,0.586806851401,1,594
2019_Oct_02,201,001,3,recog,34,COWARDS,LF,target,left,aqua,pleasantness,conservative,no,z,1,0.613451311602,1,595
2019_Oct_02,201,001,3,recog,35,CAUGHT,HF,lure,-,-,-,liberal,no,m,1,0.799848885559,1,596
2019_Oct_02,201,001,3,recog,36,MORNING,HF,lure,-,-,-,liberal,no,m,1,1.1199237169,1,597
2019_Oct_02,201,001,3,recog,37,EDICT,LF,target,right,yellow,imageability,liberal,no,z,1,0.586828847681,3,600
2019_Oct_02,201,001,3,recog,38,BELIEVE,HF,lure,-,-,-,conservative,no,m,1,0.613436647415,3,603
2019_Oct_02,201,001,3,recog,39,ACROSS,HF,lure,-,-,-,liberal,no,m,1,0.640067909847,1,604
2019_Oct_02,201,001,3,recog,40,PAYOFF,LF,lure,-,-,-,conservative,no,m,1,0.600132197641,3,607
2019_Oct_02,201,001,3,recog,41,WHOLE,HF,lure,-,-,-,liberal,no,m,1,0.720040517147,1,608
2019_Oct_02,201,001,3,recog,42,ELICIT,LF,target,right,yellow,imageability,liberal,no,z,1,0.600129631408,3,611
2019_Oct_02,201,001,3,recog,43,AMALGAM,LF,target,right,yellow,imageability,liberal,no,z,1,0.62679938733,3,614
2019_Oct_02,201,001,3,recog,44,ABETTED,LF,lure,-,-,-,liberal,no,m,1,0.626869775425,1,615
2019_Oct_02,201,001,3,recog,45,EXCEPT,HF,lure,-,-,-,liberal,no,z,0,0.639852346307,-1,614
2019_Oct_02,201,001,3,recog,46,VERBALLY,LF,lure,-,-,-,conservative,no,m,1,2.49273132937,3,617
2019_Oct_02,201,001,3,recog,47,ADENOIDS,LF,lure,-,-,-,liberal,no,m,1,0.626733398492,1,618
2019_Oct_02,201,001,3,recog,48,FELLS,LF,target,right,yellow,imageability,liberal,no,z,1,0.866720508672,3,621
2019_Oct_02,201,001,3,recog,49,HAVING,HF,target,right,yellow,imageability,conservative,no,z,1,0.600107268524,1,622
2019_Oct_02,201,001,3,recog,50,DISARMED,LF,target,left,aqua,pleasantness,liberal,no,z,1,0.746745833721,3,625
2019_Oct_02,201,001,3,recog,51,BIJOU,LF,lure,-,-,-,conservative,no,m,1,0.613595020629,3,628
2019_Oct_02,201,001,3,recog,52,CHOICE,HF,lure,-,-,-,conservative,no,m,1,0.760105640799,3,631
2019_Oct_02,201,001,3,recog,53,SUDDENLY,HF,lure,-,-,-,conservative,yes,z,0,0.613587321931,-3,628
2019_Oct_02,201,001,3,recog,54,WAITING,HF,target,left,aqua,pleasantness,conservative,yes,m,0,0.613182956989,-1,627
2019_Oct_02,201,001,3,recog,55,OTHERS,HF,lure,-,-,-,liberal,no,m,1,2.6790475171,1,628
2019_Oct_02,201,001,3,recog,56,MOPED,LF,target,left,aqua,pleasantness,liberal,no,z,1,0.679844149026,3,631
2019_Oct_02,201,001,3,recog,57,VARIOUS,HF,target,right,yellow,imageability,liberal,no,z,1,0.6935654283,3,634
2019_Oct_02,201,001,3,recog,58,FIELD,HF,lure,-,-,-,conservative,no,z,0,0.973162339143,-3,631
2019_Oct_02,201,001,3,recog,59,JUDICIOUS,LF,target,right,yellow,imageability,conservative,no,z,1,2.14622026928,1,632
2019_Oct_02,201,001,3,recog,60,MOBILIZE,LF,lure,-,-,-,liberal,no,m,1,0.680097106243,1,633
2019_Oct_02,201,001,3,recog,61,SOAPY,LF,lure,-,-,-,conservative,no,m,1,0.653462177764,3,636
2019_Oct_02,201,001,3,recog,62,SIMILAR,HF,lure,-,-,-,conservative,no,m,1,1.41316858609,3,639
2019_Oct_02,201,001,3,recog,63,DIFFERENT,HF,target,right,yellow,imageability,conservative,no,z,1,0.653225717757,1,640
2019_Oct_02,201,001,3,recog,64,BUZZARD,LF,target,right,yellow,imageability,liberal,yes,z,1,0.839803294603,3,643
2019_Oct_02,201,001,3,recog,65,ALTHOUGH,HF,lure,-,-,-,liberal,no,m,1,0.773516039321,1,644
2019_Oct_02,201,001,3,recog,66,CUFFED,LF,target,left,aqua,pleasantness,liberal,no,z,1,0.706741199838,3,647
2019_Oct_02,201,001,3,recog,67,LEARN,HF,lure,-,-,-,liberal,no,m,1,0.653430283158,1,648
2019_Oct_02,201,001,3,recog,68,LAXATIVE,LF,target,right,yellow,imageability,conservative,no,z,1,0.626857677471,1,649
2019_Oct_02,201,001,3,recog,69,CESSATION,LF,lure,-,-,-,conservative,no,m,1,0.653392522878,3,652
2019_Oct_02,201,001,3,recog,70,UNHEEDED,LF,lure,-,-,-,conservative,no,m,1,0.826677381299,3,655
2019_Oct_02,201,001,3,recog,71,REEDY,LF,lure,-,-,-,conservative,no,m,1,0.692306507893,3,658
2019_Oct_02,201,001,3,recog,72,TELEPHONE,HF,lure,-,-,-,liberal,no,m,1,0.600232280713,1,659
2019_Oct_02,201,001,3,recog,73,PRACTICE,HF,target,right,yellow,imageability,conservative,no,z,1,0.760097575497,1,660
2019_Oct_02,201,001,3,recog,74,SPEAK,HF,target,right,yellow,imageability,liberal,no,z,1,0.573535029442,3,663
2019_Oct_02,201,001,3,recog,75,AXLES,LF,lure,-,-,-,conservative,no,m,1,0.586570757999,3,666
2019_Oct_02,201,001,3,recog,76,DOODLE,LF,target,right,yellow,imageability,liberal,no,z,1,0.560255508785,3,669
2019_Oct_02,201,001,3,recog,77,NEARLY,HF,lure,-,-,-,liberal,no,m,1,0.719855381793,1,670
2019_Oct_02,201,001,3,recog,78,THEORY,HF,target,right,yellow,imageability,liberal,no,z,1,0.613513634394,3,673
2019_Oct_02,201,001,3,recog,79,FLICKS,LF,lure,-,-,-,liberal,no,m,1,0.586600086372,1,674
2019_Oct_02,201,001,3,recog,80,PAPER,HF,lure,-,-,-,conservative,no,m,1,0.613461209927,3,677
2019_Oct_02,201,001,3,recog,81,SWEARS,LF,target,left,aqua,pleasantness,liberal,no,z,1,0.533453041975,3,680
2019_Oct_02,201,001,3,recog,82,SORRY,HF,target,right,yellow,imageability,liberal,no,z,1,0.559934729706,3,683
2019_Oct_02,201,001,3,recog,83,EFFECT,HF,lure,-,-,-,conservative,no,m,1,0.720072045148,3,686
2019_Oct_02,201,001,3,recog,84,THANK,HF,lure,-,-,-,liberal,no,m,1,0.666954329125,1,687
2019_Oct_02,201,001,3,recog,85,YARDSTICK,LF,lure,-,-,-,liberal,no,m,1,0.666730333676,1,688
2019_Oct_02,201,001,3,recog,86,VIVACIOUS,LF,target,left,aqua,pleasantness,conservative,no,z,1,0.666728500653,1,689
2019_Oct_02,201,001,3,recog,87,LEVEL,HF,target,left,aqua,pleasantness,conservative,no,z,1,0.826523773946,1,690
2019_Oct_02,201,001,3,recog,88,PIECE,HF,target,right,yellow,imageability,liberal,no,z,1,0.853307177313,3,693
2019_Oct_02,201,001,3,recog,89,PEACEABLY,LF,lure,-,-,-,conservative,no,m,1,0.546780587843,3,696
2019_Oct_02,201,001,3,recog,90,USUAL,HF,target,right,yellow,imageability,conservative,yes,z,1,0.720037950915,1,697
2019_Oct_02,201,001,3,recog,91,EXACTLY,HF,target,left,aqua,pleasantness,liberal,no,z,1,0.826385563988,3,700
2019_Oct_02,201,001,3,recog,92,BUNGALOWS,LF,target,right,yellow,imageability,conservative,no,z,1,0.653804953122,1,701
2019_Oct_02,201,001,3,recog,93,HAWKED,LF,lure,-,-,-,liberal,no,m,1,0.626530666113,1,702
2019_Oct_02,201,001,3,recog,94,OSTRACISM,LF,target,left,aqua,pleasantness,liberal,no,z,1,0.560230213063,3,705
2019_Oct_02,201,001,3,recog,95,HYPNOSIS,LF,lure,-,-,-,conservative,no,m,1,0.58678082247,3,708
2019_Oct_02,201,001,4,source,0,ELATION,LF,target,left,aqua,pleasantness,liberal,yes,9,0,1.62641371923,-,-
2019_Oct_02,201,001,4,source,1,WITHIN,HF,target,left,aqua,pleasantness,conservative,no,1,1,0.811677384965,-,-
2019_Oct_02,201,001,4,source,2,FAMILY,HF,target,left,aqua,pleasantness,liberal,no,1,1,0.560149560038,-,-
2019_Oct_02,201,001,4,source,3,WHATEVER,HF,target,right,yellow,imageability,liberal,yes,9,1,0.813411425014,-,-
2019_Oct_02,201,001,4,source,4,WREATH,LF,target,left,aqua,pleasantness,conservative,yes,1,1,0.813181930496,-,-
2019_Oct_02,201,001,4,source,5,BLIGHTED,LF,target,right,yellow,imageability,conservative,no,9,1,3.07889258997,-,-
2019_Oct_02,201,001,4,source,6,SOPHISTS,LF,target,left,aqua,pleasantness,liberal,yes,1,1,0.679847081863,-,-
2019_Oct_02,201,001,4,source,7,FRIEND,HF,target,left,aqua,pleasantness,liberal,no,1,1,0.6401034705,-,-
2019_Oct_02,201,001,4,source,8,CUSTODIAN,LF,target,right,yellow,imageability,liberal,no,9,1,0.813354967896,-,-
2019_Oct_02,201,001,4,source,9,WRONG,HF,target,right,yellow,imageability,conservative,no,9,1,0.626814784726,-,-
2019_Oct_02,201,001,4,source,10,UNLESS,HF,target,right,yellow,imageability,conservative,no,9,1,1.2399805113,-,-
2019_Oct_02,201,001,4,source,11,PRIVATE,HF,target,right,yellow,imageability,conservative,no,9,1,0.720121536778,-,-
2019_Oct_02,201,001,4,source,12,SUSPEND,LF,target,left,aqua,pleasantness,conservative,no,1,1,0.546810649425,-,-
2019_Oct_02,201,001,4,source,13,BABBLED,LF,target,left,aqua,pleasantness,liberal,no,1,1,0.559989353801,-,-
2019_Oct_02,201,001,4,source,14,WEDGES,LF,target,right,yellow,imageability,liberal,no,9,1,0.86669997881,-,-
2019_Oct_02,201,001,4,source,15,OFFER,HF,target,right,yellow,imageability,liberal,no,9,1,0.639889739982,-,-
2019_Oct_02,201,001,4,source,16,LIVED,HF,target,right,yellow,imageability,liberal,no,9,1,0.813353501478,-,-
2019_Oct_02,201,001,4,source,17,BOOKS,HF,target,right,yellow,imageability,liberal,no,9,1,0.666747197491,-,-
2019_Oct_02,201,001,4,source,18,ERRANT,LF,target,right,yellow,imageability,conservative,no,9,1,0.719830086071,-,-
2019_Oct_02,201,001,4,source,19,OUTSIDE,HF,target,right,yellow,imageability,liberal,no,9,1,0.693177927174,-,-
2019_Oct_02,201,001,4,source,20,CHURCH,HF,target,left,aqua,pleasantness,conservative,no,1,1,0.600129998013,-,-
2019_Oct_02,201,001,4,source,21,ASTERN,LF,target,left,aqua,pleasantness,conservative,no,1,1,0.733134535846,-,-
2019_Oct_02,201,001,4,source,22,FATHER,HF,target,left,aqua,pleasantness,conservative,no,1,1,0.626823949843,-,-
2019_Oct_02,201,001,4,source,23,SLEEP,HF,target,right,yellow,imageability,conservative,no,1,0,0.680082808661,-,-
2019_Oct_02,201,001,4,source,24,COUNCIL,HF,target,left,aqua,pleasantness,conservative,no,1,1,0.733214822266,-,-
2019_Oct_02,201,001,4,source,25,VOICE,HF,target,left,aqua,pleasantness,liberal,no,1,1,0.63990220454,-,-
2019_Oct_02,201,001,4,source,26,BEREAVED,LF,target,left,aqua,pleasantness,conservative,no,1,1,0.773085645448,-,-
2019_Oct_02,201,001,4,source,27,TURNED,HF,target,left,aqua,pleasantness,liberal,no,1,1,0.693477076577,-,-
2019_Oct_02,201,001,4,source,28,WANTED,HF,target,right,yellow,imageability,liberal,no,9,1,1.73289294337,-,-
2019_Oct_02,201,001,4,source,29,ALDER,LF,target,right,yellow,imageability,liberal,no,9,1,0.826673715253,-,-
2019_Oct_02,201,001,4,source,30,ERADICATE,LF,target,right,yellow,imageability,conservative,no,9,1,0.680092340382,-,-
2019_Oct_02,201,001,4,source,31,BOLDNESS,LF,target,right,yellow,imageability,conservative,no,9,1,0.586850843961,-,-
2019_Oct_02,201,001,4,source,32,SEDAN,LF,target,left,aqua,pleasantness,liberal,no,1,1,0.680148064291,-,-
2019_Oct_02,201,001,4,source,33,SNEAKED,LF,target,left,aqua,pleasantness,liberal,no,1,1,0.639862244632,-,-
2019_Oct_02,201,001,4,source,34,KNOWLEDGE,HF,target,left,aqua,pleasantness,liberal,no,1,1,0.546895701707,-,-
2019_Oct_02,201,001,4,source,35,RESEARCH,HF,target,left,aqua,pleasantness,conservative,no,1,1,0.573234047015,-,-
2019_Oct_02,201,001,4,source,36,KITCHEN,HF,target,right,yellow,imageability,conservative,no,9,1,0.560129396781,-,-
2019_Oct_02,201,001,4,source,37,WRANGLING,LF,target,right,yellow,imageability,conservative,no,9,1,0.680082808661,-,-
2019_Oct_02,201,001,4,source,38,SINCE,HF,target,right,yellow,imageability,conservative,no,9,1,1.2398631978,-,-
2019_Oct_02,201,001,4,source,39,ROWAN,LF,target,left,aqua,pleasantness,liberal,no,1,1,0.73343295204,-,-
2019_Oct_02,201,001,4,source,40,UNCANNILY,LF,target,right,yellow,imageability,liberal,no,9,1,0.680109570802,-,-
2019_Oct_02,201,001,4,source,41,UNKEMPT,LF,target,left,aqua,pleasantness,conservative,no,1,1,0.653185391244,-,-
2019_Oct_02,201,001,4,source,42,BEYOND,HF,target,left,aqua,pleasantness,conservative,no,1,1,0.706765395746,-,-
2019_Oct_02,201,001,4,source,43,LEGALITY,LF,target,right,yellow,imageability,conservative,no,9,1,0.826712941951,-,-
2019_Oct_02,201,001,4,source,44,LUMBER,LF,target,left,aqua,pleasantness,conservative,no,1,1,0.773365731409,-,-
2019_Oct_02,201,001,4,source,45,HOSPITAL,HF,target,left,aqua,pleasantness,liberal,no,1,1,0.693521802346,-,-
2019_Oct_02,201,001,4,source,46,ANCHORAGE,LF,target,right,yellow,imageability,liberal,no,9,1,1.06655854273,-,-
2019_Oct_02,201,001,4,source,47,ORIGINALS,LF,target,right,yellow,imageability,liberal,no,9,1,0.639834749283,-,-
2019_Oct_02,201,001,4,recog,0,PUFFS,LF,lure,-,-,-,liberal,no,m,1,1.09325652721,1,709
2019_Oct_02,201,001,4,recog,1,BLIGHTED,LF,target,right,yellow,imageability,conservative,no,z,1,0.626799020726,1,710
2019_Oct_02,201,001,4,recog,2,SOPHISTS,LF,target,left,aqua,pleasantness,liberal,no,z,1,0.746636218928,3,713
2019_Oct_02,201,001,4,recog,3,VISCOUS,LF,lure,-,-,-,liberal,no,z,0,0.613468542021,-1,712
2019_Oct_02,201,001,4,recog,4,ECONOMIC,HF,lure,-,-,-,liberal,no,m,1,0.786482846202,1,713
2019_Oct_02,201,001,4,recog,5,ENSCONCED,LF,lure,-,-,-,liberal,no,m,1,0.83983848865,1,714
2019_Oct_02,201,001,4,recog,6,BEREAVED,LF,target,left,aqua,pleasantness,conservative,no,z,1,0.706714437698,1,715
2019_Oct_02,201,001,4,recog,7,VOICE,HF,target,left,aqua,pleasantness,liberal,no,m,0,1.45312189532,-3,712
2019_Oct_02,201,001,4,recog,8,INITIATES,LF,lure,-,-,-,conservative,no,m,1,0.826492612549,3,715
2019_Oct_02,201,001,4,recog,9,ELATION,LF,target,left,aqua,pleasantness,liberal,no,m,0,1.09326935838,-3,712
2019_Oct_02,201,001,4,recog,10,ITSELF,HF,lure,-,-,-,conservative,no,m,1,1.03992178123,3,715
2019_Oct_02,201,001,4,recog,11,ANCHORAGE,LF,target,right,yellow,imageability,liberal,no,z,1,0.61303044945,3,718
2019_Oct_02,201,001,4,recog,12,STAFF,HF,lure,-,-,-,liberal,no,m,1,0.6934473816,1,719
2019_Oct_02,201,001,4,recog,13,WHATEVER,HF,target,right,yellow,imageability,liberal,no,z,1,0.666523202042,3,722
2019_Oct_02,201,001,4,recog,14,CUSTODIAN,LF,target,right,yellow,imageability,liberal,no,z,1,0.626775558027,3,725
2019_Oct_02,201,001,4,recog,15,WRONG,HF,target,right,yellow,imageability,conservative,no,z,1,0.586814550099,1,726
2019_Oct_02,201,001,4,recog,16,ANSWER,HF,lure,-,-,-,liberal,no,m,1,0.786923505004,1,727
2019_Oct_02,201,001,4,recog,17,WRANGLING,LF,target,right,yellow,imageability,conservative,no,z,1,0.600112767594,1,728
2019_Oct_02,201,001,4,recog,18,CORNER,HF,lure,-,-,-,liberal,no,m,1,1.78631604108,1,729
2019_Oct_02,201,001,4,recog,19,GEOLOGIST,LF,lure,-,-,-,conservative,no,m,1,0.600486704348,3,732
2019_Oct_02,201,001,4,recog,20,ACCORDING,HF,lure,-,-,-,conservative,no,m,1,0.719897174724,3,735
2019_Oct_02,201,001,4,recog,21,WITHIN,HF,target,left,aqua,pleasantness,conservative,no,z,1,0.520178653784,1,736
2019_Oct_02,201,001,4,recog,22,KNOWLEDGE,HF,target,left,aqua,pleasantness,liberal,no,z,1,0.613471474858,3,739
2019_Oct_02,201,001,4,recog,23,TURNED,HF,target,left,aqua,pleasantness,liberal,yes,z,1,0.866669917228,3,742
2019_Oct_02,201,001,4,recog,24,MAYBE,HF,lure,-,-,-,conservative,no,z,0,1.29326576565,-3,739
2019_Oct_02,201,001,4,recog,25,TASSELS,LF,lure,-,-,-,conservative,no,m,1,0.746726770279,3,742
2019_Oct_02,201,001,4,recog,26,FRIEND,HF,target,left,aqua,pleasantness,liberal,no,z,1,0.560107400502,3,745
2019_Oct_02,201,001,4,recog,27,WREATH,LF,target,left,aqua,pleasantness,conservative,no,z,1,1.26657291363,1,746
2019_Oct_02,201,001,4,recog,28,BICEPS,LF,lure,-,-,-,liberal,no,m,1,0.826497745015,1,747
2019_Oct_02,201,001,4,recog,29,AREAS,HF,lure,-,-,-,conservative,no,m,1,0.626765293097,3,750
2019_Oct_02,201,001,4,recog,30,ERRANT,LF,target,right,yellow,imageability,conservative,no,z,1,0.58680831782,1,751
2019_Oct_02,201,001,4,recog,31,ENTIRELY,HF,lure,-,-,-,liberal,no,m,1,0.680110670615,1,752
2019_Oct_02,201,001,4,recog,32,REREAD,LF,lure,-,-,-,conservative,no,m,1,1.6663783932,3,755
2019_Oct_02,201,001,4,recog,33,LIVED,HF,target,right,yellow,imageability,liberal,no,z,1,0.626444514018,3,758
2019_Oct_02,201,001,4,recog,34,THOUSAND,HF,lure,-,-,-,conservative,no,m,1,0.679861379445,3,761
2019_Oct_02,201,001,4,recog,35,LEGALITY,LF,target,right,yellow,imageability,conservative,no,z,1,0.59992213317,1,762
2019_Oct_02,201,001,4,recog,36,IDEAS,HF,lure,-,-,-,liberal,no,m,1,0.679813354235,1,763
2019_Oct_02,201,001,4,recog,37,FATHER,HF,target,left,aqua,pleasantness,conservative,no,z,1,0.546938227848,1,764
2019_Oct_02,201,001,4,recog,38,OFFER,HF,target,right,yellow,imageability,liberal,no,z,1,0.653612852279,3,767
2019_Oct_02,201,001,4,recog,39,SUSPEND,LF,target,left,aqua,pleasantness,conservative,no,z,1,0.546741361145,1,768
2019_Oct_02,201,001,4,recog,40,EDUCATION,HF,lure,-,-,-,conservative,no,m,1,0.693532800486,3,771
2019_Oct_02,201,001,4,recog,41,COUNCIL,HF,target,left,aqua,pleasantness,conservative,no,z,1,0.586848644333,1,772
2019_Oct_02,201,001,4,recog,42,EQUALLED,LF,lure,-,-,-,liberal,no,m,1,0.720007156123,1,773
2019_Oct_02,201,001,4,recog,43,SLEEP,HF,target,right,yellow,imageability,conservative,no,z,1,0.53348017072,1,774
2019_Oct_02,201,001,4,recog,44,IDLING,LF,lure,-,-,-,conservative,no,m,1,0.586934429823,3,777
2019_Oct_02,201,001,4,recog,45,GETTING,HF,lure,-,-,-,conservative,no,m,1,0.520282036298,3,780
2019_Oct_02,201,001,4,recog,46,WEDGES,LF,target,right,yellow,imageability,liberal,no,z,1,0.586590554651,3,783
2019_Oct_02,201,001,4,recog,47,WAFER,LF,lure,-,-,-,conservative,no,m,1,1.07973504748,3,786
2019_Oct_02,201,001,4,recog,48,RESEARCH,HF,target,left,aqua,pleasantness,conservative,no,z,1,0.573399385717,1,787
2019_Oct_02,201,001,4,recog,49,RIPEN,LF,lure,-,-,-,liberal,yes,z,0,0.800022656168,-1,786
2019_Oct_02,201,001,4,recog,50,NORTH,HF,lure,-,-,-,liberal,no,m,1,2.27918118116,1,787
2019_Oct_02,201,001,4,recog,51,SINCE,HF,target,right,yellow,imageability,conservative,no,z,1,0.600186821735,1,788
2019_Oct_02,201,001,4,recog,52,BASIC,HF,lure,-,-,-,conservative,no,m,1,0.586630881164,3,791
2019_Oct_02,201,001,4,recog,53,CHURCH,HF,target,left,aqua,pleasantness,conservative,no,z,1,0.560515064885,1,792
2019_Oct_02,201,001,4,recog,54,ASTERN,LF,target,left,aqua,pleasantness,conservative,no,z,1,0.786526472156,1,793
2019_Oct_02,201,001,4,recog,55,JOLLITY,LF,lure,-,-,-,conservative,no,m,1,0.560167523666,3,796
2019_Oct_02,201,001,4,recog,56,SEDAN,LF,target,left,aqua,pleasantness,liberal,no,z,1,0.613457543881,3,799
2019_Oct_02,201,001,4,recog,57,ORIGINALS,LF,target,right,yellow,imageability,liberal,no,z,1,0.839981831073,3,802
2019_Oct_02,201,001,4,recog,58,WANTED,HF,target,right,yellow,imageability,liberal,no,z,1,0.666740965211,3,805
2019_Oct_02,201,001,4,recog,59,BREAK,HF,lure,-,-,-,conservative,no,m,1,0.613759626122,3,808
2019_Oct_02,201,001,4,recog,60,SIESTA,LF,lure,-,-,-,liberal,no,m,1,0.653513502416,1,809
2019_Oct_02,201,001,4,recog,61,SLYLY,LF,lure,-,-,-,liberal,no,m,1,0.733433685249,1,810
2019_Oct_02,201,001,4,recog,62,UNLESS,HF,target,right,yellow,imageability,conservative,no,z,1,0.680069610893,1,811
2019_Oct_02,201,001,4,recog,63,PUBLIC,HF,lure,-,-,-,liberal,no,m,1,0.560000351941,1,812
2019_Oct_02,201,001,4,recog,64,UNCANNILY,LF,target,right,yellow,imageability,liberal,no,z,1,0.586947994196,3,815
2019_Oct_02,201,001,4,recog,65,FREEDOM,HF,lure,-,-,-,liberal,no,m,1,0.613483572812,1,816
2019_Oct_02,201,001,4,recog,66,SOUND,HF,lure,-,-,-,liberal,no,m,1,0.893292014544,1,817
2019_Oct_02,201,001,4,recog,67,REACHED,HF,lure,-,-,-,liberal,no,z,0,0.600099569826,-1,816
2019_Oct_02,201,001,4,recog,68,UNKEMPT,LF,target,left,aqua,pleasantness,conservative,no,z,1,0.719809922815,1,817
2019_Oct_02,201,001,4,recog,69,AIRBED,LF,lure,-,-,-,conservative,no,m,1,0.786651117741,3,820
2019_Oct_02,201,001,4,recog,70,RADIAL,LF,lure,-,-,-,liberal,no,m,1,0.62674036398,1,821
2019_Oct_02,201,001,4,recog,71,BOOKS,HF,target,right,yellow,imageability,liberal,no,z,1,0.600283605366,3,824
2019_Oct_02,201,001,4,recog,72,PRIVATE,HF,target,right,yellow,imageability,conservative,no,z,1,0.573475639487,1,825
2019_Oct_02,201,001,4,recog,73,PESTERED,LF,lure,-,-,-,conservative,no,m,1,0.653371993017,3,828
2019_Oct_02,201,001,4,recog,74,OUTSIDE,HF,target,right,yellow,imageability,liberal,no,z,1,0.626832015145,3,831
2019_Oct_02,201,001,4,recog,75,SNEAKED,LF,target,left,aqua,pleasantness,liberal,no,z,1,0.653546496836,3,834
2019_Oct_02,201,001,4,recog,76,BEYOND,HF,target,left,aqua,pleasantness,conservative,no,z,1,0.626786556167,1,835
2019_Oct_02,201,001,4,recog,77,MOGUL,LF,lure,-,-,-,conservative,yes,m,1,0.480157156087,3,838
2019_Oct_02,201,001,4,recog,78,FAMILY,HF,target,left,aqua,pleasantness,liberal,no,z,1,0.600165192061,3,841
2019_Oct_02,201,001,4,recog,79,VACATED,LF,lure,-,-,-,conservative,no,m,1,0.666544465113,3,844
2019_Oct_02,201,001,4,recog,80,ALDER,LF,target,right,yellow,imageability,liberal,no,z,1,0.573499102185,3,847
2019_Oct_02,201,001,4,recog,81,BOLDNESS,LF,target,right,yellow,imageability,conservative,no,z,1,0.600093704152,1,848
2019_Oct_02,201,001,4,recog,82,STRAIGHT,HF,lure,-,-,-,liberal,no,m,1,0.546580421698,1,849
2019_Oct_02,201,001,4,recog,83,ERADICATE,LF,target,right,yellow,imageability,conservative,no,z,1,0.77349477625,1,850
2019_Oct_02,201,001,4,recog,84,BABBLED,LF,target,left,aqua,pleasantness,liberal,yes,m,0,0.453524060631,-3,847
2019_Oct_02,201,001,4,recog,85,LUMBER,LF,target,left,aqua,pleasantness,conservative,no,z,1,0.933342107405,1,848
2019_Oct_02,201,001,4,recog,86,NOMAD,LF,lure,-,-,-,liberal,no,m,1,0.680148064291,1,849
2019_Oct_02,201,001,4,recog,87,GIRLS,HF,lure,-,-,-,conservative,no,m,1,0.560208949993,3,852
2019_Oct_02,201,001,4,recog,88,CHIEF,HF,lure,-,-,-,conservative,no,m,1,0.746591126554,3,855
2019_Oct_02,201,001,4,recog,89,PATCHY,LF,lure,-,-,-,conservative,no,m,1,0.53352966235,3,858
2019_Oct_02,201,001,4,recog,90,CRACKLE,LF,lure,-,-,-,liberal,no,m,1,0.546756391936,1,859
2019_Oct_02,201,001,4,recog,91,ROWAN,LF,target,left,aqua,pleasantness,liberal,no,z,1,0.706542500112,3,862
2019_Oct_02,201,001,4,recog,92,KITCHEN,HF,target,right,yellow,imageability,conservative,no,z,1,0.48021251339,1,863
2019_Oct_02,201,001,4,recog,93,HOSPITAL,HF,target,left,aqua,pleasantness,liberal,no,z,1,0.533482736953,3,866
2019_Oct_02,201,001,4,recog,94,AILMENT,LF,lure,-,-,-,liberal,no,z,0,0.546609016862,-1,865
2019_Oct_02,201,001,4,recog,95,SUPPORT,HF,lure,-,-,-,conservative,no,m,1,0.840105743448,3,868
