date,subj,session,cycle,task,trial,item,wf,type,source,colour,encoding,bias,null,response,corr,rt,points,total
2019_Oct_10,202,001,0,source,0,REJOICED,LF,target,left,yellow,pleasantness,conservative,no,1,1,2.82593473533,-,-
2019_Oct_10,202,001,0,source,1,RATHER,HF,target,right,aqua,imageability,liberal,no,9,1,1.46628947797,-,-
2019_Oct_10,202,001,0,source,2,STRAIGHT,HF,target,left,yellow,pleasantness,conservative,no,3,1,1.95990980026,-,-
2019_Oct_10,202,001,0,source,3,SEGMENTED,LF,target,left,yellow,pleasantness,liberal,no,3,1,1.26651816679,-,-
2019_Oct_10,202,001,0,source,4,WADDLED,LF,target,right,aqua,imageability,conservative,yes,3,0,1.70656525367,-,-
2019_Oct_10,202,001,0,source,5,ANNALS,LF,target,right,aqua,imageability,conservative,no,8,1,1.45314445303,-,-
2019_Oct_10,202,001,0,source,6,RETURN,HF,target,left,yellow,pleasantness,conservative,no,2,1,1.29292809683,-,-
2019_Oct_10,202,001,0,source,7,AEROSOL,LF,target,right,aqua,imageability,liberal,no,8,1,1.45320897569,-,-
2019_Oct_10,202,001,0,source,8,EXCEPT,HF,target,right,aqua,imageability,conservative,no,8,1,1.75966996661,-,-
2019_Oct_10,202,001,0,source,9,HALLMARK,LF,target,right,aqua,imageability,conservative,no,9,1,1.02659983195,-,-
2019_Oct_10,202,001,0,source,10,BOMBARDED,LF,target,left,yellow,pleasantness,conservative,no,1,1,2.09291592551,-,-
2019_Oct_10,202,001,0,source,11,VARIOUS,HF,target,right,aqua,imageability,conservative,no,3,0,3.09260357719,-,-
2019_Oct_10,202,001,0,source,12,DWINDLE,LF,target,left,yellow,pleasantness,liberal,no,3,1,1.0666049791,-,-
2019_Oct_10,202,001,0,source,13,POINT,HF,target,right,aqua,imageability,conservative,no,9,1,1.63972454691,-,-
2019_Oct_10,202,001,0,source,14,CHIEF,HF,target,left,yellow,pleasantness,liberal,no,8,0,2.23926467634,-,-
2019_Oct_10,202,001,0,source,15,PHYSICAL,HF,target,right,aqua,imageability,liberal,no,8,1,1.11991169195,-,-
2019_Oct_10,202,001,0,source,16,OFFER,HF,target,right,aqua,imageability,liberal,no,7,1,1.43982822309,-,-
2019_Oct_10,202,001,0,source,17,SURER,LF,target,left,yellow,pleasantness,liberal,no,1,1,1.43988174757,-,-
2019_Oct_10,202,001,0,source,18,HUMAN,HF,target,left,yellow,pleasantness,liberal,no,1,1,2.71922525886,-,-
2019_Oct_10,202,001,0,source,19,DURING,HF,target,right,aqua,imageability,conservative,no,7,1,1.69279956477,-,-
2019_Oct_10,202,001,0,source,20,LANGUAGE,HF,target,right,aqua,imageability,conservative,no,7,1,1.09329279649,-,-
2019_Oct_10,202,001,0,source,21,MOVED,HF,target,right,aqua,imageability,conservative,no,8,1,1.62617332252,-,-
2019_Oct_10,202,001,0,source,22,DUSTER,LF,target,left,yellow,pleasantness,conservative,no,2,1,1.59976339248,-,-
2019_Oct_10,202,001,0,source,23,WRONG,HF,target,left,yellow,pleasantness,liberal,no,1,1,2.11949706055,-,-
2019_Oct_10,202,001,0,source,24,FLOOR,HF,target,left,yellow,pleasantness,conservative,no,3,1,1.53309095788,-,-
2019_Oct_10,202,001,0,source,25,INHABITS,LF,target,right,aqua,imageability,conservative,no,7,1,1.23999605532,-,-
2019_Oct_10,202,001,0,source,26,ACTION,HF,target,right,aqua,imageability,liberal,no,8,1,1.57307374206,-,-
2019_Oct_10,202,001,0,source,27,MOISTENED,LF,target,right,aqua,imageability,conservative,yes,8,1,1.22655151328,-,-
2019_Oct_10,202,001,0,source,28,LADDIE,LF,target,left,yellow,pleasantness,liberal,no,2,1,2.1728221037,-,-
2019_Oct_10,202,001,0,source,29,LINEAGE,LF,target,left,yellow,pleasantness,liberal,yes,1,1,1.06680477937,-,-
2019_Oct_10,202,001,0,source,30,HATCHES,LF,target,right,aqua,imageability,liberal,no,3,0,2.54595846207,-,-
2019_Oct_10,202,001,0,source,31,KENNEL,LF,target,left,yellow,pleasantness,conservative,no,2,1,1.06666290285,-,-
2019_Oct_10,202,001,0,source,32,DAGGERS,LF,target,right,aqua,imageability,liberal,no,7,1,1.62642371442,-,-
2019_Oct_10,202,001,0,source,33,BUTCHERED,LF,target,left,yellow,pleasantness,conservative,no,2,1,1.39983480733,-,-
2019_Oct_10,202,001,0,source,34,DOUBT,HF,target,left,yellow,pleasantness,liberal,no,2,1,1.16232030807,-,-
2019_Oct_10,202,001,0,source,35,POPES,LF,target,right,aqua,imageability,liberal,no,7,1,1.21303218361,-,-
2019_Oct_10,202,001,0,source,36,GENERAL,HF,target,right,aqua,imageability,liberal,no,7,1,1.07971480986,-,-
2019_Oct_10,202,001,0,source,37,CLASS,HF,target,right,aqua,imageability,liberal,no,7,1,1.42649292964,-,-
2019_Oct_10,202,001,0,source,38,SONAR,LF,target,right,aqua,imageability,conservative,yes,8,1,0.906629849648,-,-
2019_Oct_10,202,001,0,source,39,SWIFTNESS,LF,target,right,aqua,imageability,liberal,no,7,1,1.22654931364,-,-
2019_Oct_10,202,001,0,source,40,MOTHER,HF,target,left,yellow,pleasantness,liberal,no,2,1,1.2533210838,-,-
2019_Oct_10,202,001,0,source,41,ENERGY,HF,target,left,yellow,pleasantness,liberal,no,7,0,1.53309389073,-,-
2019_Oct_10,202,001,0,source,42,PROBABLY,HF,target,left,yellow,pleasantness,conservative,no,1,1,1.77279336179,-,-
2019_Oct_10,202,001,0,source,43,FONDLE,LF,target,right,aqua,imageability,liberal,no,9,1,1.21323015085,-,-
2019_Oct_10,202,001,0,source,44,MOMENT,HF,target,left,yellow,pleasantness,conservative,no,1,1,1.21324774794,-,-
2019_Oct_10,202,001,0,source,45,REUNITED,LF,target,left,yellow,pleasantness,conservative,no,1,1,0.759920725117,-,-
2019_Oct_10,202,001,0,source,46,ANSWER,HF,target,left,yellow,pleasantness,conservative,no,7,0,1.1732063068,-,-
2019_Oct_10,202,001,0,source,47,MASKING,LF,target,left,yellow,pleasantness,liberal,no,2,1,1.14661710642,-,-
2019_Oct_10,202,001,0,recog,0,BORAX,LF,lure,-,-,-,conservative,no,m,1,1.8130705306,3,3
2019_Oct_10,202,001,0,recog,1,MOTHER,HF,target,left,yellow,pleasantness,liberal,no,z,1,1.24020098808,3,6
2019_Oct_10,202,001,0,recog,2,VERBALLY,LF,lure,-,-,-,liberal,no,m,1,1.17327632854,1,7
2019_Oct_10,202,001,0,recog,3,STRAIGHT,HF,target,left,yellow,pleasantness,conservative,no,z,1,1.00011144823,1,8
2019_Oct_10,202,001,0,recog,4,VAULTED,LF,lure,-,-,-,conservative,no,m,1,1.6130777894,3,11
2019_Oct_10,202,001,0,recog,5,EDUCATION,HF,lure,-,-,-,liberal,no,m,1,1.22629342265,1,12
2019_Oct_10,202,001,0,recog,6,DISARMED,LF,lure,-,-,-,conservative,no,z,0,1.13322828849,-3,9
2019_Oct_10,202,001,0,recog,7,PUCKERED,LF,lure,-,-,-,conservative,no,m,1,2.05262152622,3,12
2019_Oct_10,202,001,0,recog,8,RUNNING,HF,lure,-,-,-,conservative,no,m,1,1.61305652625,3,15
2019_Oct_10,202,001,0,recog,9,POINT,HF,target,right,aqua,imageability,conservative,no,z,1,1.78631965697,1,16
2019_Oct_10,202,001,0,recog,10,DUSTER,LF,target,left,yellow,pleasantness,conservative,no,z,1,1.08030724516,1,17
2019_Oct_10,202,001,0,recog,11,CHOICE,HF,lure,-,-,-,liberal,no,z,0,1.67964464147,-1,16
2019_Oct_10,202,001,0,recog,12,BLACK,HF,lure,-,-,-,liberal,no,z,0,0.866702056366,-1,15
2019_Oct_10,202,001,0,recog,13,WRONG,HF,target,left,yellow,pleasantness,liberal,no,z,1,2.57265177855,3,18
2019_Oct_10,202,001,0,recog,14,TASSELS,LF,lure,-,-,-,conservative,no,m,1,1.2665610597,3,21
2019_Oct_10,202,001,0,recog,15,LIKELY,HF,lure,-,-,-,conservative,no,m,1,1.35978383443,3,24
2019_Oct_10,202,001,0,recog,16,SONAR,LF,target,right,aqua,imageability,conservative,no,z,1,1.62642884691,1,25
2019_Oct_10,202,001,0,recog,17,GENERAL,HF,target,right,aqua,imageability,liberal,no,z,1,1.11994212024,3,28
2019_Oct_10,202,001,0,recog,18,DURING,HF,target,right,aqua,imageability,conservative,no,z,1,1.79962305571,1,29
2019_Oct_10,202,001,0,recog,19,LICENSING,LF,lure,-,-,-,liberal,no,m,1,1.4262282401,1,30
2019_Oct_10,202,001,0,recog,20,CAFETERIA,LF,lure,-,-,-,liberal,no,m,1,0.800134837689,1,31
2019_Oct_10,202,001,0,recog,21,BRING,HF,lure,-,-,-,liberal,no,m,1,1.13321912334,1,32
2019_Oct_10,202,001,0,recog,22,TOXICITY,LF,lure,-,-,-,liberal,no,m,1,0.733169851495,1,33
2019_Oct_10,202,001,0,recog,23,BAGGY,LF,lure,-,-,-,liberal,no,m,1,0.853372628609,1,34
2019_Oct_10,202,001,0,recog,24,OPENED,HF,lure,-,-,-,liberal,no,z,0,1.46629424385,-1,33
2019_Oct_10,202,001,0,recog,25,BUTCHERED,LF,target,left,yellow,pleasantness,conservative,no,z,1,1.27981240037,1,34
2019_Oct_10,202,001,0,recog,26,USING,HF,lure,-,-,-,liberal,no,m,1,0.920093821809,1,35
2019_Oct_10,202,001,0,recog,27,VARIOUS,HF,target,right,aqua,imageability,conservative,no,z,1,1.78622030675,1,36
2019_Oct_10,202,001,0,recog,28,PRIVATE,HF,lure,-,-,-,conservative,no,m,1,1.39981244437,3,39
2019_Oct_10,202,001,0,recog,29,LUSCIOUS,LF,lure,-,-,-,conservative,no,m,1,0.919925183046,3,42
2019_Oct_10,202,001,0,recog,30,SURER,LF,target,left,yellow,pleasantness,liberal,no,z,1,1.14669189405,3,45
2019_Oct_10,202,001,0,recog,31,CODING,LF,lure,-,-,-,liberal,no,m,1,0.906654045644,1,46
2019_Oct_10,202,001,0,recog,32,ASTERN,LF,lure,-,-,-,liberal,no,m,1,0.826677845706,1,47
2019_Oct_10,202,001,0,recog,33,WADDLED,LF,target,right,aqua,imageability,conservative,no,z,1,1.01330303212,1,48
2019_Oct_10,202,001,0,recog,34,POTASH,LF,lure,-,-,-,conservative,no,m,1,1.11973975373,3,51
2019_Oct_10,202,001,0,recog,35,BOMBARDED,LF,target,left,yellow,pleasantness,conservative,no,z,1,0.893769310971,1,52
2019_Oct_10,202,001,0,recog,36,DOUBT,HF,target,left,yellow,pleasantness,liberal,no,z,1,1.19989339097,3,55
2019_Oct_10,202,001,0,recog,37,EXCEPT,HF,target,right,aqua,imageability,conservative,no,m,0,1.26658598891,-1,54
2019_Oct_10,202,001,0,recog,38,DAGGERS,LF,target,right,aqua,imageability,liberal,no,z,1,1.47974831765,3,57
2019_Oct_10,202,001,0,recog,39,HIMSELF,HF,lure,-,-,-,liberal,no,m,1,0.880190957736,1,58
2019_Oct_10,202,001,0,recog,40,FLOOR,HF,target,left,yellow,pleasantness,conservative,no,z,1,0.800119806843,1,59
2019_Oct_10,202,001,0,recog,41,HALLMARK,LF,target,right,aqua,imageability,conservative,no,z,1,0.733499063688,1,60
2019_Oct_10,202,001,0,recog,42,JEALOUSLY,LF,lure,-,-,-,liberal,no,m,1,1.09330636091,1,61
2019_Oct_10,202,001,0,recog,43,SUBJECT,HF,lure,-,-,-,conservative,no,m,1,1.79965128437,3,64
2019_Oct_10,202,001,0,recog,44,OFTEN,HF,lure,-,-,-,conservative,no,m,1,1.70647103593,3,67
2019_Oct_10,202,001,0,recog,45,FONDLE,LF,target,right,aqua,imageability,liberal,no,z,1,1.21319752292,3,70
2019_Oct_10,202,001,0,recog,46,RETURN,HF,target,left,yellow,pleasantness,conservative,no,m,0,1.17328842654,-1,69
2019_Oct_10,202,001,0,recog,47,FAMILY,HF,lure,-,-,-,liberal,no,m,1,1.1599538663,1,70
2019_Oct_10,202,001,0,recog,48,REUNITED,LF,target,left,yellow,pleasantness,conservative,no,z,1,0.959811916455,1,71
2019_Oct_10,202,001,0,recog,49,BEAUTIFUL,HF,lure,-,-,-,conservative,no,m,1,0.9334008866,3,74
2019_Oct_10,202,001,0,recog,50,EIDERDOWN,LF,lure,-,-,-,liberal,no,m,1,1.05332540976,1,75
2019_Oct_10,202,001,0,recog,51,LINEAGE,LF,target,left,yellow,pleasantness,liberal,no,z,1,1.04002457727,3,78
2019_Oct_10,202,001,0,recog,52,MOISTENED,LF,target,right,aqua,imageability,conservative,yes,z,1,1.01337928617,1,79
2019_Oct_10,202,001,0,recog,53,SEGMENTED,LF,target,left,yellow,pleasantness,liberal,no,z,1,1.14668382872,3,82
2019_Oct_10,202,001,0,recog,54,MASKING,LF,target,left,yellow,pleasantness,liberal,no,z,1,0.733466435754,3,85
2019_Oct_10,202,001,0,recog,55,LADDIE,LF,target,left,yellow,pleasantness,liberal,no,z,1,0.840024137339,3,88
2019_Oct_10,202,001,0,recog,56,ALREADY,HF,lure,-,-,-,liberal,no,m,1,0.946643062128,1,89
2019_Oct_10,202,001,0,recog,57,LANGUAGE,HF,target,right,aqua,imageability,conservative,no,m,0,1.94630651781,-1,88
2019_Oct_10,202,001,0,recog,58,OFFER,HF,target,right,aqua,imageability,liberal,no,m,0,1.17323526867,-3,85
2019_Oct_10,202,001,0,recog,59,DWINDLE,LF,target,left,yellow,pleasantness,liberal,yes,z,1,0.959965890977,3,88
2019_Oct_10,202,001,0,recog,60,MOMENT,HF,target,left,yellow,pleasantness,conservative,no,z,1,0.813106091379,1,89
2019_Oct_10,202,001,0,recog,61,SAMENESS,LF,lure,-,-,-,conservative,no,m,1,0.973332345941,3,92
2019_Oct_10,202,001,0,recog,62,NEARLY,HF,lure,-,-,-,conservative,no,m,1,1.15992490443,3,95
2019_Oct_10,202,001,0,recog,63,JOTTED,LF,lure,-,-,-,liberal,no,z,0,1.38649914727,-1,94
2019_Oct_10,202,001,0,recog,64,PROBABLY,HF,target,left,yellow,pleasantness,conservative,no,z,1,2.1459256875,1,95
2019_Oct_10,202,001,0,recog,65,HOTEL,HF,lure,-,-,-,liberal,no,m,1,0.933455144289,1,96
2019_Oct_10,202,001,0,recog,66,KENNEL,LF,target,left,yellow,pleasantness,conservative,no,z,1,0.959983854671,1,97
2019_Oct_10,202,001,0,recog,67,CHIEF,HF,target,left,yellow,pleasantness,liberal,no,z,1,0.906634982132,3,100
2019_Oct_10,202,001,0,recog,68,LULLED,LF,lure,-,-,-,liberal,no,m,1,1.39981354419,1,101
2019_Oct_10,202,001,0,recog,69,MOVED,HF,target,right,aqua,imageability,conservative,yes,m,0,0.826879479009,-1,100
2019_Oct_10,202,001,0,recog,70,AQUARIUM,LF,lure,-,-,-,conservative,yes,z,0,1.03997581867,-3,97
2019_Oct_10,202,001,0,recog,71,INHABITS,LF,target,right,aqua,imageability,conservative,no,m,0,1.82649674234,-1,96
2019_Oct_10,202,001,0,recog,72,RATHER,HF,target,right,aqua,imageability,liberal,no,z,1,1.97286528989,3,99
2019_Oct_10,202,001,0,recog,73,ACTION,HF,target,right,aqua,imageability,liberal,no,z,1,0.746725475158,3,102
2019_Oct_10,202,001,0,recog,74,REJOICED,LF,target,left,yellow,pleasantness,conservative,no,z,1,0.959945361041,1,103
2019_Oct_10,202,001,0,recog,75,ENERGY,HF,target,left,yellow,pleasantness,liberal,no,z,1,0.853383260183,3,106
2019_Oct_10,202,001,0,recog,76,PHYSICAL,HF,target,right,aqua,imageability,liberal,no,z,1,0.813163648522,3,109
2019_Oct_10,202,001,0,recog,77,COVER,HF,lure,-,-,-,conservative,no,m,1,1.15967817858,3,112
2019_Oct_10,202,001,0,recog,78,HUMAN,HF,target,left,yellow,pleasantness,liberal,no,z,1,0.786690662252,3,115
2019_Oct_10,202,001,0,recog,79,TREES,HF,lure,-,-,-,liberal,no,m,1,0.893338548915,1,116
2019_Oct_10,202,001,0,recog,80,EMPATHY,LF,lure,-,-,-,conservative,no,m,1,0.773445553876,3,119
2019_Oct_10,202,001,0,recog,81,SULKED,LF,lure,-,-,-,conservative,no,m,1,0.773328973166,3,122
2019_Oct_10,202,001,0,recog,82,ANNALS,LF,target,right,aqua,imageability,conservative,no,z,1,0.893362011699,1,123
2019_Oct_10,202,001,0,recog,83,CLEAR,HF,lure,-,-,-,conservative,no,z,0,1.78613855361,-3,120
2019_Oct_10,202,001,0,recog,84,AEROSOL,LF,target,right,aqua,imageability,liberal,no,z,1,1.03994245752,3,123
2019_Oct_10,202,001,0,recog,85,CARRIED,HF,lure,-,-,-,conservative,no,m,1,0.919990438915,3,126
2019_Oct_10,202,001,0,recog,86,PUMPKIN,LF,lure,-,-,-,liberal,no,m,1,2.239500404,1,127
2019_Oct_10,202,001,0,recog,87,SLOWLY,HF,lure,-,-,-,liberal,no,m,1,0.760053803097,1,128
2019_Oct_10,202,001,0,recog,88,EIGHT,HF,lure,-,-,-,conservative,no,m,1,0.786784513389,3,131
2019_Oct_10,202,001,0,recog,89,LITANY,LF,lure,-,-,-,conservative,no,m,1,0.680079802795,3,134
2019_Oct_10,202,001,0,recog,90,ANSWER,HF,target,left,yellow,pleasantness,conservative,no,z,1,2.22589822137,1,135
2019_Oct_10,202,001,0,recog,91,HATCHES,LF,target,right,aqua,imageability,liberal,no,z,1,0.933294937464,3,138
2019_Oct_10,202,001,0,recog,92,CLASS,HF,target,right,aqua,imageability,liberal,no,z,1,0.706791082969,3,141
2019_Oct_10,202,001,0,recog,93,SWIFTNESS,LF,target,right,aqua,imageability,liberal,no,z,1,0.746695780071,3,144
2019_Oct_10,202,001,0,recog,94,LOCAL,HF,lure,-,-,-,conservative,no,m,1,0.853321303768,3,147
2019_Oct_10,202,001,0,recog,95,POPES,LF,target,right,aqua,imageability,liberal,no,z,1,1.66615537349,3,150
2019_Oct_10,202,001,1,source,0,EVIDENCE,HF,target,left,yellow,pleasantness,conservative,no,7,0,1.81295321667,-,-
2019_Oct_10,202,001,1,source,1,EXACTLY,HF,target,right,aqua,imageability,liberal,no,7,1,1.97302109744,-,-
2019_Oct_10,202,001,1,source,2,VOICE,HF,target,left,yellow,pleasantness,liberal,no,2,1,2.8790959056,-,-
2019_Oct_10,202,001,1,source,3,MAJOR,HF,target,left,yellow,pleasantness,conservative,no,2,1,1.01329460019,-,-
2019_Oct_10,202,001,1,source,4,WESTERN,HF,target,right,aqua,imageability,conservative,no,7,1,1.10658006455,-,-
2019_Oct_10,202,001,1,source,5,BEDLAM,LF,target,left,yellow,pleasantness,liberal,no,7,0,1.1998948574,-,-
2019_Oct_10,202,001,1,source,6,SHALL,HF,target,right,aqua,imageability,liberal,no,7,1,1.31980141686,-,-
2019_Oct_10,202,001,1,source,7,UNLESS,HF,target,right,aqua,imageability,conservative,yes,8,1,0.893080458287,-,-
2019_Oct_10,202,001,1,source,8,TIPSY,LF,target,left,yellow,pleasantness,conservative,no,1,1,1.21319422346,-,-
2019_Oct_10,202,001,1,source,9,LAYERED,LF,target,right,aqua,imageability,liberal,no,9,1,2.6125223813,-,-
2019_Oct_10,202,001,1,source,10,GATEHOUSE,LF,target,right,aqua,imageability,liberal,no,8,1,0.946718949571,-,-
2019_Oct_10,202,001,1,source,11,HEALTH,HF,target,right,aqua,imageability,liberal,no,9,1,2.38606178631,-,-
2019_Oct_10,202,001,1,source,12,UNTIL,HF,target,left,yellow,pleasantness,conservative,no,2,1,1.10632527338,-,-
2019_Oct_10,202,001,1,source,13,ADDED,HF,target,right,aqua,imageability,liberal,no,7,1,1.97296427351,-,-
2019_Oct_10,202,001,1,source,14,GREATER,HF,target,left,yellow,pleasantness,liberal,no,7,0,1.07996080249,-,-
2019_Oct_10,202,001,1,source,15,MENFOLK,LF,target,left,yellow,pleasantness,liberal,yes,2,1,0.666838360479,-,-
2019_Oct_10,202,001,1,source,16,IDEAS,HF,target,left,yellow,pleasantness,liberal,no,1,1,1.43997156604,-,-
2019_Oct_10,202,001,1,source,17,MOCCASINS,LF,target,right,aqua,imageability,liberal,no,9,1,1.02638280119,-,-
2019_Oct_10,202,001,1,source,18,PIECE,HF,target,right,aqua,imageability,liberal,no,9,1,1.04022694378,-,-
2019_Oct_10,202,001,1,source,19,OLDER,HF,target,left,yellow,pleasantness,conservative,no,1,1,1.11971702416,-,-
2019_Oct_10,202,001,1,source,20,KITCHEN,HF,target,left,yellow,pleasantness,liberal,no,1,1,1.89292171789,-,-
2019_Oct_10,202,001,1,source,21,JADED,LF,target,left,yellow,pleasantness,conservative,no,3,1,1.53289995615,-,-
2019_Oct_10,202,001,1,source,22,MYSELF,HF,target,left,yellow,pleasantness,liberal,no,7,0,1.15999162672,-,-
2019_Oct_10,202,001,1,source,23,NUCLEAR,HF,target,right,aqua,imageability,conservative,no,9,1,1.00007148817,-,-
2019_Oct_10,202,001,1,source,24,CELLO,LF,target,left,yellow,pleasantness,liberal,no,7,0,1.18656652946,-,-
2019_Oct_10,202,001,1,source,25,MOPED,LF,target,left,yellow,pleasantness,liberal,no,2,1,1.51951663731,-,-
2019_Oct_10,202,001,1,source,26,MONEY,HF,target,left,yellow,pleasantness,liberal,no,1,1,0.906434448647,-,-
2019_Oct_10,202,001,1,source,27,BETTER,HF,target,right,aqua,imageability,conservative,no,3,0,1.69306535412,-,-
2019_Oct_10,202,001,1,source,28,LENGTHEN,LF,target,right,aqua,imageability,conservative,no,7,1,1.13328254618,-,-
2019_Oct_10,202,001,1,source,29,DEDICATE,LF,target,left,yellow,pleasantness,liberal,no,2,1,1.14661270715,-,-
2019_Oct_10,202,001,1,source,30,BOLDNESS,LF,target,right,aqua,imageability,conservative,no,9,1,1.14654451843,-,-
2019_Oct_10,202,001,1,source,31,SIZZLING,LF,target,right,aqua,imageability,conservative,no,7,1,1.06640297919,-,-
2019_Oct_10,202,001,1,source,32,DUMMIES,LF,target,left,yellow,pleasantness,conservative,no,1,1,1.03998058455,-,-
2019_Oct_10,202,001,1,source,33,BLOOD,HF,target,right,aqua,imageability,conservative,no,1,0,1.59954892797,-,-
2019_Oct_10,202,001,1,source,34,LEMURS,LF,target,right,aqua,imageability,conservative,no,9,1,0.906461944097,-,-
2019_Oct_10,202,001,1,source,35,SCRABBLE,LF,target,right,aqua,imageability,conservative,no,9,1,0.839769712771,-,-
2019_Oct_10,202,001,1,source,36,SITTING,HF,target,right,aqua,imageability,liberal,yes,7,1,1.01331659655,-,-
2019_Oct_10,202,001,1,source,37,TIMES,HF,target,right,aqua,imageability,conservative,no,7,1,1.26651010146,-,-
2019_Oct_10,202,001,1,source,38,PSEUDONYM,LF,target,right,aqua,imageability,conservative,no,8,1,0.986669839031,-,-
2019_Oct_10,202,001,1,source,39,UNNAMED,LF,target,left,yellow,pleasantness,conservative,no,2,1,1.63969118577,-,-
2019_Oct_10,202,001,1,source,40,SMALL,HF,target,left,yellow,pleasantness,conservative,no,1,1,1.30652404715,-,-
2019_Oct_10,202,001,1,source,41,IRRIGATED,LF,target,left,yellow,pleasantness,conservative,no,1,1,0.98672776278,-,-
2019_Oct_10,202,001,1,source,42,ENMESHED,LF,target,left,yellow,pleasantness,liberal,no,7,0,1.22649762219,-,-
2019_Oct_10,202,001,1,source,43,TITAN,LF,target,right,aqua,imageability,liberal,no,7,1,1.09328509776,-,-
2019_Oct_10,202,001,1,source,44,HUDDLE,LF,target,left,yellow,pleasantness,conservative,no,7,0,1.08117940085,-,-
2019_Oct_10,202,001,1,source,45,DAMASK,LF,target,right,aqua,imageability,liberal,yes,3,0,1.61281786574,-,-
2019_Oct_10,202,001,1,source,46,TAPER,LF,target,right,aqua,imageability,liberal,no,7,1,0.946605301709,-,-
2019_Oct_10,202,001,1,source,47,MATERIAL,HF,target,left,yellow,pleasantness,conservative,no,2,1,1.30582932877,-,-
2019_Oct_10,202,001,1,recog,0,IDEAS,HF,target,left,yellow,pleasantness,liberal,no,z,1,1.25357917443,3,153
2019_Oct_10,202,001,1,recog,1,BLOOD,HF,target,right,aqua,imageability,conservative,no,z,1,1.02663245988,1,154
2019_Oct_10,202,001,1,recog,2,DUMMIES,LF,target,left,yellow,pleasantness,conservative,no,z,1,1.27986189219,1,155
2019_Oct_10,202,001,1,recog,3,ALABASTER,LF,lure,-,-,-,conservative,no,m,1,0.813117456165,3,158
2019_Oct_10,202,001,1,recog,4,NIMBLE,LF,lure,-,-,-,liberal,no,m,1,1.03994355734,1,159
2019_Oct_10,202,001,1,recog,5,IRRIGATED,LF,target,left,yellow,pleasantness,conservative,no,z,1,0.853368595943,1,160
2019_Oct_10,202,001,1,recog,6,MILES,HF,lure,-,-,-,conservative,no,m,1,1.27998800465,3,163
2019_Oct_10,202,001,1,recog,7,PUBLIC,HF,lure,-,-,-,liberal,yes,m,1,1.65307780406,1,164
2019_Oct_10,202,001,1,recog,8,COMES,HF,lure,-,-,-,liberal,no,m,1,1.8928428976,1,165
2019_Oct_10,202,001,1,recog,9,CELLO,LF,target,left,yellow,pleasantness,liberal,no,z,1,0.78656601621,3,168
2019_Oct_10,202,001,1,recog,10,SPACE,HF,lure,-,-,-,liberal,no,z,0,1.34744094344,-1,167
2019_Oct_10,202,001,1,recog,11,JADED,LF,target,left,yellow,pleasantness,conservative,no,z,1,0.879766794588,1,168
2019_Oct_10,202,001,1,recog,12,ENOUGH,HF,lure,-,-,-,conservative,no,m,1,0.786701293826,3,171
2019_Oct_10,202,001,1,recog,13,TICKLE,LF,lure,-,-,-,conservative,no,m,1,0.82667014698,3,174
2019_Oct_10,202,001,1,recog,14,MENFOLK,LF,target,left,yellow,pleasantness,liberal,no,z,1,0.94707052473,3,177
2019_Oct_10,202,001,1,recog,15,MOPED,LF,target,left,yellow,pleasantness,liberal,yes,z,1,0.719988532564,3,180
2019_Oct_10,202,001,1,recog,16,LOOKED,HF,lure,-,-,-,conservative,no,m,1,0.866671628068,3,183
2019_Oct_10,202,001,1,recog,17,HEALTH,HF,target,right,aqua,imageability,liberal,no,z,1,1.57311333551,3,186
2019_Oct_10,202,001,1,recog,18,BEQUEST,LF,lure,-,-,-,conservative,no,m,1,1.24002428398,3,189
2019_Oct_10,202,001,1,recog,19,SIMILAR,HF,lure,-,-,-,liberal,no,m,1,1.13324405255,1,190
2019_Oct_10,202,001,1,recog,20,LUCERNE,LF,lure,-,-,-,liberal,no,m,1,0.733364152678,1,191
2019_Oct_10,202,001,1,recog,21,SITTING,HF,target,right,aqua,imageability,liberal,no,z,1,0.94661446686,3,194
2019_Oct_10,202,001,1,recog,22,HYENA,LF,lure,-,-,-,liberal,no,m,1,1.29322248145,1,195
2019_Oct_10,202,001,1,recog,23,HUDDLE,LF,target,left,yellow,pleasantness,conservative,no,z,1,1.19989339097,1,196
2019_Oct_10,202,001,1,recog,24,MESSED,LF,lure,-,-,-,conservative,no,m,1,0.959946460859,3,199
2019_Oct_10,202,001,1,recog,25,FARAWAY,LF,lure,-,-,-,conservative,no,m,1,0.733196613734,3,202
2019_Oct_10,202,001,1,recog,26,LENGTHEN,LF,target,right,aqua,imageability,conservative,no,z,1,0.866693624428,1,203
2019_Oct_10,202,001,1,recog,27,FOOLHARDY,LF,lure,-,-,-,conservative,no,m,1,0.733033840667,3,206
2019_Oct_10,202,001,1,recog,28,UNDER,HF,lure,-,-,-,conservative,no,m,1,1.43984985284,3,209
2019_Oct_10,202,001,1,recog,29,INLAID,LF,lure,-,-,-,liberal,no,m,1,0.840027070187,1,210
2019_Oct_10,202,001,1,recog,30,TWAIN,LF,lure,-,-,-,conservative,no,m,1,0.840014238977,3,213
2019_Oct_10,202,001,1,recog,31,POLICE,HF,lure,-,-,-,liberal,no,m,1,0.653562090593,1,214
2019_Oct_10,202,001,1,recog,32,LEMURS,LF,target,right,aqua,imageability,conservative,no,z,1,0.666802433091,1,215
2019_Oct_10,202,001,1,recog,33,BOOKS,HF,lure,-,-,-,conservative,yes,z,0,0.773404127397,-3,212
2019_Oct_10,202,001,1,recog,34,TITAN,LF,target,right,aqua,imageability,liberal,no,z,1,1.87970593799,3,215
2019_Oct_10,202,001,1,recog,35,UNLESS,HF,target,right,aqua,imageability,conservative,no,m,0,1.39978018304,-1,214
2019_Oct_10,202,001,1,recog,36,TIPSY,LF,target,left,yellow,pleasantness,conservative,no,z,1,1.07991680977,1,215
2019_Oct_10,202,001,1,recog,37,ADDED,HF,target,right,aqua,imageability,liberal,no,z,1,1.39992205956,3,218
2019_Oct_10,202,001,1,recog,38,DAMASK,LF,target,right,aqua,imageability,liberal,no,z,1,2.26611380037,3,221
2019_Oct_10,202,001,1,recog,39,MOCCASINS,LF,target,right,aqua,imageability,liberal,no,z,1,0.666734244374,3,224
2019_Oct_10,202,001,1,recog,40,EXACTLY,HF,target,right,aqua,imageability,liberal,no,z,1,0.653287869301,3,227
2019_Oct_10,202,001,1,recog,41,RESEARCH,HF,lure,-,-,-,conservative,no,m,1,0.853346599583,3,230
2019_Oct_10,202,001,1,recog,42,HYPNOSIS,LF,lure,-,-,-,liberal,no,m,1,1.90719588932,1,231
2019_Oct_10,202,001,1,recog,43,REACHED,HF,lure,-,-,-,liberal,no,z,0,1.59971096783,-1,230
2019_Oct_10,202,001,1,recog,44,LAYERED,LF,target,right,aqua,imageability,liberal,no,z,1,0.706737558492,3,233
2019_Oct_10,202,001,1,recog,45,BILATERAL,LF,lure,-,-,-,liberal,no,m,1,1.01328690146,1,234
2019_Oct_10,202,001,1,recog,46,PENALIZED,LF,lure,-,-,-,liberal,no,m,1,0.733396780613,1,235
2019_Oct_10,202,001,1,recog,47,DEXTERITY,LF,lure,-,-,-,conservative,no,m,1,0.746699079526,3,238
2019_Oct_10,202,001,1,recog,48,DEDICATE,LF,target,left,yellow,pleasantness,liberal,no,z,1,0.933367158847,3,241
2019_Oct_10,202,001,1,recog,49,KITCHEN,HF,target,left,yellow,pleasantness,liberal,no,z,1,0.586788472734,3,244
2019_Oct_10,202,001,1,recog,50,BULBOUS,LF,lure,-,-,-,liberal,no,m,1,0.893094389315,1,245
2019_Oct_10,202,001,1,recog,51,UNNAMED,LF,target,left,yellow,pleasantness,conservative,no,m,0,1.67980851435,-1,244
2019_Oct_10,202,001,1,recog,52,BOLDNESS,LF,target,right,aqua,imageability,conservative,no,z,1,0.97340493393,1,245
2019_Oct_10,202,001,1,recog,53,HEDGED,LF,lure,-,-,-,liberal,no,m,1,0.973081954039,1,246
2019_Oct_10,202,001,1,recog,54,FRONT,HF,lure,-,-,-,conservative,no,m,1,0.853374095033,3,249
2019_Oct_10,202,001,1,recog,55,PSEUDONYM,LF,target,right,aqua,imageability,conservative,yes,m,0,1.33333247792,-1,248
2019_Oct_10,202,001,1,recog,56,EVIDENCE,HF,target,left,yellow,pleasantness,conservative,no,z,1,1.23987324231,1,249
2019_Oct_10,202,001,1,recog,57,CINDER,LF,lure,-,-,-,liberal,no,m,1,1.01335802303,1,250
2019_Oct_10,202,001,1,recog,58,KNOWLEDGE,HF,lure,-,-,-,conservative,no,m,1,0.959989353762,3,253
2019_Oct_10,202,001,1,recog,59,GATEHOUSE,LF,target,right,aqua,imageability,liberal,no,z,1,0.866724052727,3,256
2019_Oct_10,202,001,1,recog,60,GETTING,HF,lure,-,-,-,conservative,no,m,1,0.91998823928,3,259
2019_Oct_10,202,001,1,recog,61,WESTERN,HF,target,right,aqua,imageability,conservative,no,z,1,0.786474731314,1,260
2019_Oct_10,202,001,1,recog,62,SIZZLING,LF,target,right,aqua,imageability,conservative,no,z,1,0.973435728835,1,261
2019_Oct_10,202,001,1,recog,63,ROUND,HF,lure,-,-,-,liberal,no,m,1,1.8529506651,1,262
2019_Oct_10,202,001,1,recog,64,TIMES,HF,target,right,aqua,imageability,conservative,no,z,1,0.746950204639,1,263
2019_Oct_10,202,001,1,recog,65,SMALL,HF,target,left,yellow,pleasantness,conservative,no,z,1,0.8400461337,1,264
2019_Oct_10,202,001,1,recog,66,TUMBLER,LF,lure,-,-,-,liberal,no,m,1,0.733203212642,1,265
2019_Oct_10,202,001,1,recog,67,SCRABBLE,LF,target,right,aqua,imageability,conservative,no,z,1,0.773373699099,1,266
2019_Oct_10,202,001,1,recog,68,MAJOR,HF,target,left,yellow,pleasantness,conservative,no,z,1,0.880106271749,1,267
2019_Oct_10,202,001,1,recog,69,SCHOOL,HF,lure,-,-,-,liberal,no,z,0,1.61308035564,-1,266
2019_Oct_10,202,001,1,recog,70,DUELLING,LF,lure,-,-,-,conservative,no,m,1,0.719851788524,3,269
2019_Oct_10,202,001,1,recog,71,LAWFUL,LF,lure,-,-,-,liberal,no,m,1,0.693434526367,1,270
2019_Oct_10,202,001,1,recog,72,TENABLE,LF,lure,-,-,-,conservative,no,m,1,0.74647288362,3,273
2019_Oct_10,202,001,1,recog,73,GREATER,HF,target,left,yellow,pleasantness,liberal,no,z,1,0.999718079982,3,276
2019_Oct_10,202,001,1,recog,74,MONEY,HF,target,left,yellow,pleasantness,liberal,no,z,1,0.613441462553,3,279
2019_Oct_10,202,001,1,recog,75,MYSELF,HF,target,left,yellow,pleasantness,liberal,no,z,1,0.693426094429,3,282
2019_Oct_10,202,001,1,recog,76,BEDLAM,LF,target,left,yellow,pleasantness,liberal,no,z,1,0.693489883874,3,285
2019_Oct_10,202,001,1,recog,77,VOICE,HF,target,left,yellow,pleasantness,liberal,no,z,1,0.626545794222,3,288
2019_Oct_10,202,001,1,recog,78,PIECE,HF,target,right,aqua,imageability,liberal,no,z,1,0.64042036511,3,291
2019_Oct_10,202,001,1,recog,79,FUDGE,LF,lure,-,-,-,conservative,no,m,1,1.21324151564,3,294
2019_Oct_10,202,001,1,recog,80,UPTIGHT,LF,lure,-,-,-,conservative,no,m,1,0.746829224658,3,297
2019_Oct_10,202,001,1,recog,81,ENMESHED,LF,target,left,yellow,pleasantness,liberal,no,z,1,2.02600886307,3,300
2019_Oct_10,202,001,1,recog,82,BETTER,HF,target,right,aqua,imageability,conservative,no,m,0,1.65307633764,-1,299
2019_Oct_10,202,001,1,recog,83,MATERIAL,HF,target,left,yellow,pleasantness,conservative,no,m,0,0.693476319452,-1,298
2019_Oct_10,202,001,1,recog,84,BECAME,HF,lure,-,-,-,conservative,no,m,1,0.893395372846,3,301
2019_Oct_10,202,001,1,recog,85,WANTED,HF,lure,-,-,-,liberal,no,m,1,1.39983480733,1,302
2019_Oct_10,202,001,1,recog,86,UNTIL,HF,target,left,yellow,pleasantness,conservative,no,z,1,0.746549137669,1,303
2019_Oct_10,202,001,1,recog,87,OLDER,HF,target,left,yellow,pleasantness,conservative,no,z,1,0.706698331649,1,304
2019_Oct_10,202,001,1,recog,88,HAVING,HF,lure,-,-,-,conservative,no,m,1,0.693400065402,3,307
2019_Oct_10,202,001,1,recog,89,GIVEN,HF,lure,-,-,-,liberal,no,m,1,0.906710869575,1,308
2019_Oct_10,202,001,1,recog,90,SHALL,HF,target,right,aqua,imageability,liberal,no,z,1,1.30654787654,3,311
2019_Oct_10,202,001,1,recog,91,TRIED,HF,lure,-,-,-,liberal,no,m,1,0.826868847435,1,312
2019_Oct_10,202,001,1,recog,92,HAPPEN,HF,lure,-,-,-,conservative,no,m,1,0.826784528053,3,315
2019_Oct_10,202,001,1,recog,93,TAPER,LF,target,right,aqua,imageability,liberal,no,z,1,0.760099995454,3,318
2019_Oct_10,202,001,1,recog,94,OTHERS,HF,lure,-,-,-,liberal,no,m,1,0.826424887562,1,319
2019_Oct_10,202,001,1,recog,95,NUCLEAR,HF,target,right,aqua,imageability,conservative,no,z,1,0.720035824739,1,320
2019_Oct_10,202,001,2,source,0,HASSLE,LF,target,right,aqua,imageability,liberal,no,3,0,2.35964599058,-,-
2019_Oct_10,202,001,2,source,1,TWENTY,HF,target,right,aqua,imageability,conservative,no,9,1,1.30651708164,-,-
2019_Oct_10,202,001,2,source,2,OVARIES,LF,target,left,yellow,pleasantness,liberal,no,1,1,1.03995455552,-,-
2019_Oct_10,202,001,2,source,3,BEHIND,HF,target,left,yellow,pleasantness,liberal,no,7,0,1.10662259085,-,-
2019_Oct_10,202,001,2,source,4,OUGHT,HF,target,right,aqua,imageability,liberal,no,7,1,0.760038405645,-,-
2019_Oct_10,202,001,2,source,5,EARLIER,HF,target,left,yellow,pleasantness,liberal,no,7,0,1.31981424807,-,-
2019_Oct_10,202,001,2,source,6,TILTS,LF,target,left,yellow,pleasantness,liberal,no,3,1,1.94627132364,-,-
2019_Oct_10,202,001,2,source,7,PUPPETS,LF,target,right,aqua,imageability,conservative,no,9,1,0.986632445218,-,-
2019_Oct_10,202,001,2,source,8,PICTURE,HF,target,left,yellow,pleasantness,conservative,no,1,1,1.61283949549,-,-
2019_Oct_10,202,001,2,source,9,PASSED,HF,target,left,yellow,pleasantness,conservative,no,2,1,1.0933056277,-,-
2019_Oct_10,202,001,2,source,10,LETTER,HF,target,right,aqua,imageability,conservative,no,9,1,0.999991201456,-,-
2019_Oct_10,202,001,2,source,11,CACOPHONY,LF,target,right,aqua,imageability,liberal,no,9,1,0.853643183841,-,-
2019_Oct_10,202,001,2,source,12,SOFTENING,LF,target,left,yellow,pleasantness,conservative,no,1,1,1.09345740258,-,-
2019_Oct_10,202,001,2,source,13,AMICABLY,LF,target,left,yellow,pleasantness,liberal,yes,2,1,1.30649398546,-,-
2019_Oct_10,202,001,2,source,14,TWOFOLD,LF,target,right,aqua,imageability,conservative,no,9,1,1.46648231273,-,-
2019_Oct_10,202,001,2,source,15,AMONG,HF,target,left,yellow,pleasantness,conservative,no,7,0,0.920036997878,-,-
2019_Oct_10,202,001,2,source,16,BYGONE,LF,target,right,aqua,imageability,liberal,yes,7,1,0.959747393798,-,-
2019_Oct_10,202,001,2,source,17,SYSTEM,HF,target,left,yellow,pleasantness,liberal,yes,7,0,1.5359002597,-,-
2019_Oct_10,202,001,2,source,18,HELICAL,LF,target,right,aqua,imageability,liberal,no,7,1,1.02661559601,-,-
2019_Oct_10,202,001,2,source,19,ROCKER,LF,target,right,aqua,imageability,liberal,no,8,1,1.11988749595,-,-
2019_Oct_10,202,001,2,source,20,PALATABLE,LF,target,left,yellow,pleasantness,conservative,no,2,1,1.39993305774,-,-
2019_Oct_10,202,001,2,source,21,CHLORIDE,LF,target,left,yellow,pleasantness,liberal,no,1,1,0.986615947948,-,-
2019_Oct_10,202,001,2,source,22,SOPHISTS,LF,target,left,yellow,pleasantness,conservative,no,1,1,1.11990179358,-,-
2019_Oct_10,202,001,2,source,23,LEVEL,HF,target,right,aqua,imageability,conservative,no,8,1,0.946820499435,-,-
2019_Oct_10,202,001,2,source,24,VEILING,LF,target,left,yellow,pleasantness,conservative,no,1,1,1.5597193851,-,-
2019_Oct_10,202,001,2,source,25,FIGURE,HF,target,left,yellow,pleasantness,liberal,no,7,0,0.879866878027,-,-
2019_Oct_10,202,001,2,source,26,DROLL,LF,target,left,yellow,pleasantness,conservative,no,2,1,1.18659805757,-,-
2019_Oct_10,202,001,2,source,27,LONGER,HF,target,right,aqua,imageability,liberal,no,8,1,1.06662294279,-,-
2019_Oct_10,202,001,2,source,28,RODENTS,LF,target,right,aqua,imageability,liberal,no,9,1,1.22676707761,-,-
2019_Oct_10,202,001,2,source,29,UNRAVEL,LF,target,right,aqua,imageability,conservative,no,7,1,0.839984543891,-,-
2019_Oct_10,202,001,2,source,30,ALONE,HF,target,right,aqua,imageability,conservative,no,9,1,1.05320956226,-,-
2019_Oct_10,202,001,2,source,31,LIGHT,HF,target,left,yellow,pleasantness,liberal,no,2,1,1.37308723317,-,-
2019_Oct_10,202,001,2,source,32,TABLE,HF,target,left,yellow,pleasantness,conservative,yes,3,1,1.13323818685,-,-
2019_Oct_10,202,001,2,source,33,BUNGALOWS,LF,target,right,aqua,imageability,conservative,no,7,1,0.999950141583,-,-
2019_Oct_10,202,001,2,source,34,TAKEN,HF,target,right,aqua,imageability,conservative,no,7,1,1.39989603054,-,-
2019_Oct_10,202,001,2,source,35,TRADE,HF,target,left,yellow,pleasantness,conservative,no,2,1,2.39920791106,-,-
2019_Oct_10,202,001,2,source,36,SMIRK,LF,target,right,aqua,imageability,conservative,no,8,1,0.973325013821,-,-
2019_Oct_10,202,001,2,source,37,RALLIED,LF,target,right,aqua,imageability,conservative,no,9,1,2.3460342762,-,-
2019_Oct_10,202,001,2,source,38,TOGETHER,HF,target,right,aqua,imageability,liberal,no,9,1,0.720143973511,-,-
2019_Oct_10,202,001,2,source,39,PLEASE,HF,target,right,aqua,imageability,liberal,no,8,1,1.94603009689,-,-
2019_Oct_10,202,001,2,source,40,AFRAID,HF,target,left,yellow,pleasantness,conservative,no,7,0,1.09323193989,-,-
2019_Oct_10,202,001,2,source,41,ALMOST,HF,target,right,aqua,imageability,liberal,no,3,0,0.920072558661,-,-
2019_Oct_10,202,001,2,source,42,NOXIOUS,LF,target,left,yellow,pleasantness,liberal,no,2,1,1.14663140406,-,-
2019_Oct_10,202,001,2,source,43,SPEAK,HF,target,left,yellow,pleasantness,liberal,no,1,1,0.999909448317,-,-
2019_Oct_10,202,001,2,source,44,DETACH,LF,target,left,yellow,pleasantness,conservative,no,3,1,2.75930775988,-,-
2019_Oct_10,202,001,2,source,45,MARKET,HF,target,right,aqua,imageability,liberal,no,7,1,0.840479461998,-,-
2019_Oct_10,202,001,2,source,46,SINCE,HF,target,right,aqua,imageability,conservative,no,3,0,0.973035395077,-,-
2019_Oct_10,202,001,2,source,47,OBTAINS,LF,target,left,yellow,pleasantness,liberal,no,7,0,2.1596121895,-,-
2019_Oct_10,202,001,2,recog,0,FIGURE,HF,target,left,yellow,pleasantness,liberal,no,z,1,1.1597339027,3,323
2019_Oct_10,202,001,2,recog,1,HELICAL,LF,target,right,aqua,imageability,liberal,no,z,1,0.839820671006,3,326
2019_Oct_10,202,001,2,recog,2,SMIRK,LF,target,right,aqua,imageability,conservative,no,z,1,1.07991974261,1,327
2019_Oct_10,202,001,2,recog,3,TOMBSTONE,LF,lure,-,-,-,liberal,yes,z,0,0.920082090417,-1,326
2019_Oct_10,202,001,2,recog,4,TAKEN,HF,target,right,aqua,imageability,conservative,no,z,1,0.93336972509,1,327
2019_Oct_10,202,001,2,recog,5,TILTS,LF,target,left,yellow,pleasantness,liberal,no,z,1,0.640133679214,3,330
2019_Oct_10,202,001,2,recog,6,ICEBOX,LF,lure,-,-,-,conservative,no,m,1,0.746490114102,3,333
2019_Oct_10,202,001,2,recog,7,CASES,HF,lure,-,-,-,conservative,no,m,1,0.839796108404,3,336
2019_Oct_10,202,001,2,recog,8,TRADE,HF,target,left,yellow,pleasantness,conservative,no,z,1,0.69340666431,1,337
2019_Oct_10,202,001,2,recog,9,CESSATION,LF,lure,-,-,-,liberal,no,m,1,0.7200944817,1,338
2019_Oct_10,202,001,2,recog,10,SLIGHTLY,HF,lure,-,-,-,liberal,no,m,1,0.826688843886,1,339
2019_Oct_10,202,001,2,recog,11,THOUSAND,HF,lure,-,-,-,liberal,no,m,1,0.600140263458,1,340
2019_Oct_10,202,001,2,recog,12,INVOLVED,HF,lure,-,-,-,liberal,no,m,1,1.00014957525,1,341
2019_Oct_10,202,001,2,recog,13,VEILING,LF,target,left,yellow,pleasantness,conservative,no,z,1,0.786479130586,1,342
2019_Oct_10,202,001,2,recog,14,UNRAVEL,LF,target,right,aqua,imageability,conservative,no,z,1,0.653418014432,1,343
2019_Oct_10,202,001,2,recog,15,TOGETHER,HF,target,right,aqua,imageability,liberal,no,z,1,0.640082720979,3,346
2019_Oct_10,202,001,2,recog,16,PULSAR,LF,lure,-,-,-,conservative,no,m,1,0.680120496062,3,349
2019_Oct_10,202,001,2,recog,17,ITSELF,HF,lure,-,-,-,conservative,no,m,1,1.13304021961,3,352
2019_Oct_10,202,001,2,recog,18,NECESSARY,HF,lure,-,-,-,conservative,no,m,1,1.35983369285,3,355
2019_Oct_10,202,001,2,recog,19,YEOMAN,LF,lure,-,-,-,conservative,no,m,1,0.613466391761,3,358
2019_Oct_10,202,001,2,recog,20,NUMBER,HF,lure,-,-,-,liberal,no,m,1,0.906677141822,1,359
2019_Oct_10,202,001,2,recog,21,MEETING,HF,lure,-,-,-,liberal,no,m,1,0.706530059493,1,360
2019_Oct_10,202,001,2,recog,22,PALATABLE,LF,target,left,yellow,pleasantness,conservative,no,z,1,0.72009264867,1,361
2019_Oct_10,202,001,2,recog,23,GADGET,LF,lure,-,-,-,liberal,no,m,1,0.693434159761,1,362
2019_Oct_10,202,001,2,recog,24,DETACH,LF,target,left,yellow,pleasantness,conservative,no,z,1,0.786483529859,1,363
2019_Oct_10,202,001,2,recog,25,RODENTS,LF,target,right,aqua,imageability,liberal,no,z,1,0.680152024178,3,366
2019_Oct_10,202,001,2,recog,26,SEVEN,HF,lure,-,-,-,conservative,no,m,1,0.69337000371,3,369
2019_Oct_10,202,001,2,recog,27,CANNOT,HF,lure,-,-,-,conservative,no,m,1,0.613469324609,3,372
2019_Oct_10,202,001,2,recog,28,NOXIOUS,LF,target,left,yellow,pleasantness,liberal,no,z,1,0.680169621267,3,375
2019_Oct_10,202,001,2,recog,29,SOFTENING,LF,target,left,yellow,pleasantness,conservative,no,z,1,0.666832128177,1,376
2019_Oct_10,202,001,2,recog,30,TERMS,HF,lure,-,-,-,liberal,no,m,1,0.666787768851,1,377
2019_Oct_10,202,001,2,recog,31,CACOPHONY,LF,target,right,aqua,imageability,liberal,no,z,1,0.666815264301,3,380
2019_Oct_10,202,001,2,recog,32,DROLL,LF,target,left,yellow,pleasantness,conservative,no,z,1,0.613447694855,1,381
2019_Oct_10,202,001,2,recog,33,EFFECT,HF,lure,-,-,-,conservative,no,m,1,0.680101065944,3,384
2019_Oct_10,202,001,2,recog,34,JEOPARDY,LF,lure,-,-,-,liberal,no,m,1,0.933304469221,1,385
2019_Oct_10,202,001,2,recog,35,MARKET,HF,target,right,aqua,imageability,liberal,no,z,1,0.639853592226,3,388
2019_Oct_10,202,001,2,recog,36,SINCE,HF,target,right,aqua,imageability,conservative,no,z,1,0.62677272334,1,389
2019_Oct_10,202,001,2,recog,37,SPEAK,HF,target,left,yellow,pleasantness,liberal,no,z,1,0.626825147999,3,392
2019_Oct_10,202,001,2,recog,38,BUNGALOWS,LF,target,right,aqua,imageability,conservative,no,z,1,0.706682934197,1,393
2019_Oct_10,202,001,2,recog,39,ALONE,HF,target,right,aqua,imageability,conservative,no,z,1,0.666543975857,1,394
2019_Oct_10,202,001,2,recog,40,PEACEABLY,LF,lure,-,-,-,conservative,no,m,1,0.679929860939,3,397
2019_Oct_10,202,001,2,recog,41,TIGHTNESS,LF,lure,-,-,-,liberal,no,z,0,1.51995033222,-1,396
2019_Oct_10,202,001,2,recog,42,OUGHT,HF,target,right,aqua,imageability,liberal,no,m,0,0.839976845165,-3,393
2019_Oct_10,202,001,2,recog,43,DEPARTS,LF,lure,-,-,-,conservative,no,m,1,1.03990323068,3,396
2019_Oct_10,202,001,2,recog,44,JAILS,LF,lure,-,-,-,liberal,no,m,1,0.706750756308,1,397
2019_Oct_10,202,001,2,recog,45,SOPHISTS,LF,target,left,yellow,pleasantness,conservative,no,z,1,0.733407045581,1,398
2019_Oct_10,202,001,2,recog,46,OVARIES,LF,target,left,yellow,pleasantness,liberal,no,z,1,0.586591971915,3,401
2019_Oct_10,202,001,2,recog,47,SYSTEM,HF,target,left,yellow,pleasantness,liberal,no,z,1,0.600230815141,3,404
2019_Oct_10,202,001,2,recog,48,PASSED,HF,target,left,yellow,pleasantness,conservative,no,z,1,0.666556807067,1,405
2019_Oct_10,202,001,2,recog,49,HASSLE,LF,target,right,aqua,imageability,liberal,no,z,1,0.693420228733,3,408
2019_Oct_10,202,001,2,recog,50,AROUND,HF,lure,-,-,-,liberal,no,m,1,0.773383230855,1,409
2019_Oct_10,202,001,2,recog,51,LIVED,HF,lure,-,-,-,conservative,no,m,1,0.680057439829,3,412
2019_Oct_10,202,001,2,recog,52,AGELESS,LF,lure,-,-,-,conservative,no,m,1,0.666811598241,3,415
2019_Oct_10,202,001,2,recog,53,AFRAID,HF,target,left,yellow,pleasantness,conservative,no,z,1,0.640376738995,1,416
2019_Oct_10,202,001,2,recog,54,BUSINESS,HF,lure,-,-,-,liberal,no,m,1,0.640106916975,1,417
2019_Oct_10,202,001,2,recog,55,EJECTED,LF,lure,-,-,-,liberal,no,m,1,0.786719624126,1,418
2019_Oct_10,202,001,2,recog,56,PICTURE,HF,target,left,yellow,pleasantness,conservative,no,z,1,0.626561558281,1,419
2019_Oct_10,202,001,2,recog,57,BODICE,LF,lure,-,-,-,liberal,yes,z,0,0.80006958182,-1,418
2019_Oct_10,202,001,2,recog,58,PLEASE,HF,target,right,aqua,imageability,liberal,no,z,1,0.746761402547,3,421
2019_Oct_10,202,001,2,recog,59,LIGHT,HF,target,left,yellow,pleasantness,liberal,no,z,1,0.613436696674,3,424
2019_Oct_10,202,001,2,recog,60,SUCCESS,HF,lure,-,-,-,liberal,no,m,1,0.746817859871,1,425
2019_Oct_10,202,001,2,recog,61,TABLE,HF,target,left,yellow,pleasantness,conservative,no,m,0,0.760065901095,-1,424
2019_Oct_10,202,001,2,recog,62,BYGONE,LF,target,right,aqua,imageability,liberal,no,z,1,0.906724067391,3,427
2019_Oct_10,202,001,2,recog,63,SUDDENLY,HF,lure,-,-,-,liberal,no,m,1,1.0932938963,1,428
2019_Oct_10,202,001,2,recog,64,ACQUIRES,LF,lure,-,-,-,conservative,no,m,1,0.720099614184,3,431
2019_Oct_10,202,001,2,recog,65,JOLLITY,LF,lure,-,-,-,conservative,no,m,1,0.826441384832,3,434
2019_Oct_10,202,001,2,recog,66,ROCKER,LF,target,right,aqua,imageability,liberal,no,z,1,0.626742661648,3,437
2019_Oct_10,202,001,2,recog,67,AMICABLY,LF,target,left,yellow,pleasantness,liberal,yes,z,1,0.680102532368,3,440
2019_Oct_10,202,001,2,recog,68,PIGLETS,LF,lure,-,-,-,liberal,no,m,1,0.786685529768,1,441
2019_Oct_10,202,001,2,recog,69,PLACE,HF,lure,-,-,-,conservative,no,m,1,1.21340098925,3,444
2019_Oct_10,202,001,2,recog,70,LETTER,HF,target,right,aqua,imageability,conservative,no,z,1,0.733332991168,1,445
2019_Oct_10,202,001,2,recog,71,OBTAINS,LF,target,left,yellow,pleasantness,liberal,no,z,1,0.666606298878,3,448
2019_Oct_10,202,001,2,recog,72,SOLEMNITY,LF,lure,-,-,-,conservative,no,m,1,0.759864267793,3,451
2019_Oct_10,202,001,2,recog,73,ECONOMIC,HF,lure,-,-,-,conservative,no,m,1,0.693452490061,3,454
2019_Oct_10,202,001,2,recog,74,ALMOST,HF,target,right,aqua,imageability,liberal,no,m,0,0.786628339231,-3,451
2019_Oct_10,202,001,2,recog,75,TWENTY,HF,target,right,aqua,imageability,conservative,no,m,0,1.1063326055,-1,450
2019_Oct_10,202,001,2,recog,76,FIDDLED,LF,lure,-,-,-,conservative,no,m,1,0.91978074028,3,453
2019_Oct_10,202,001,2,recog,77,PUPPETS,LF,target,right,aqua,imageability,conservative,no,z,1,0.973296051947,1,454
2019_Oct_10,202,001,2,recog,78,CHLORIDE,LF,target,left,yellow,pleasantness,liberal,no,z,1,0.893297489042,3,457
2019_Oct_10,202,001,2,recog,79,LEVEL,HF,target,right,aqua,imageability,conservative,no,z,1,0.600245112775,1,458
2019_Oct_10,202,001,2,recog,80,UNKEMPT,LF,lure,-,-,-,liberal,no,m,1,0.879727567745,1,459
2019_Oct_10,202,001,2,recog,81,ROOFED,LF,lure,-,-,-,conservative,no,m,1,0.759827973798,3,462
2019_Oct_10,202,001,2,recog,82,FATHER,HF,lure,-,-,-,conservative,no,m,1,0.759876365791,3,465
2019_Oct_10,202,001,2,recog,83,EARLIER,HF,target,left,yellow,pleasantness,liberal,no,z,1,0.706698698255,3,468
2019_Oct_10,202,001,2,recog,84,LONGER,HF,target,right,aqua,imageability,liberal,no,z,1,0.600220916779,3,471
2019_Oct_10,202,001,2,recog,85,AMONG,HF,target,left,yellow,pleasantness,conservative,no,z,1,0.746834357142,1,472
2019_Oct_10,202,001,2,recog,86,WALKED,HF,lure,-,-,-,conservative,no,m,1,0.733252704453,3,475
2019_Oct_10,202,001,2,recog,87,BEHIND,HF,target,left,yellow,pleasantness,liberal,no,z,1,0.720346340026,3,478
2019_Oct_10,202,001,2,recog,88,WATCH,HF,lure,-,-,-,conservative,no,m,1,1.29315062668,3,481
2019_Oct_10,202,001,2,recog,89,TALKING,HF,lure,-,-,-,liberal,no,m,1,0.800054917579,1,482
2019_Oct_10,202,001,2,recog,90,INDEED,HF,lure,-,-,-,liberal,no,m,1,0.573499738243,1,483
2019_Oct_10,202,001,2,recog,91,TWOFOLD,LF,target,right,aqua,imageability,conservative,no,z,1,0.760034372979,1,484
2019_Oct_10,202,001,2,recog,92,ADOPTIVE,LF,lure,-,-,-,liberal,no,m,1,0.693431593519,1,485
2019_Oct_10,202,001,2,recog,93,OCTAGONAL,LF,lure,-,-,-,liberal,yes,z,0,0.746709344494,-1,484
2019_Oct_10,202,001,2,recog,94,RALLIED,LF,target,right,aqua,imageability,conservative,no,m,0,0.760079098912,-1,483
2019_Oct_10,202,001,2,recog,95,HYACINTHS,LF,lure,-,-,-,conservative,no,m,1,0.986685236483,3,486
2019_Oct_10,202,001,3,source,0,VALUE,HF,target,left,yellow,pleasantness,liberal,yes,3,1,1.71972017697,-,-
2019_Oct_10,202,001,3,source,1,BAUXITE,LF,target,right,aqua,imageability,conservative,no,3,0,1.8795904571,-,-
2019_Oct_10,202,001,3,source,2,DIFFERENT,HF,target,right,aqua,imageability,liberal,yes,3,0,2.03956521994,-,-
2019_Oct_10,202,001,3,source,3,DULLED,LF,target,right,aqua,imageability,conservative,no,3,0,0.893335982673,-,-
2019_Oct_10,202,001,3,source,4,TOTAL,HF,target,right,aqua,imageability,conservative,no,7,1,0.920019034184,-,-
2019_Oct_10,202,001,3,source,5,EGOISM,LF,target,left,yellow,pleasantness,liberal,no,2,1,1.15989997522,-,-
2019_Oct_10,202,001,3,source,6,TOWARDS,HF,target,left,yellow,pleasantness,liberal,no,2,1,1.09329242988,-,-
2019_Oct_10,202,001,3,source,7,ACROSS,HF,target,right,aqua,imageability,liberal,no,8,1,1.11978301324,-,-
2019_Oct_10,202,001,3,source,8,WRITE,HF,target,right,aqua,imageability,conservative,no,7,1,1.21328330872,-,-
2019_Oct_10,202,001,3,source,9,INFECT,LF,target,left,yellow,pleasantness,conservative,no,2,1,1.33291784653,-,-
2019_Oct_10,202,001,3,source,10,DODGED,LF,target,right,aqua,imageability,conservative,no,8,1,0.973309616369,-,-
2019_Oct_10,202,001,3,source,11,AMPLIFY,LF,target,right,aqua,imageability,liberal,no,7,1,1.0666233094,-,-
2019_Oct_10,202,001,3,source,12,FUELLED,LF,target,left,yellow,pleasantness,liberal,no,2,1,1.01331403031,-,-
2019_Oct_10,202,001,3,source,13,CENTRAL,HF,target,left,yellow,pleasantness,liberal,no,2,1,1.06656391922,-,-
2019_Oct_10,202,001,3,source,14,AVAILABLE,HF,target,left,yellow,pleasantness,liberal,no,7,0,0.986651875337,-,-
2019_Oct_10,202,001,3,source,15,TELEPHONE,HF,target,right,aqua,imageability,conservative,no,8,1,0.853369329155,-,-
2019_Oct_10,202,001,3,source,16,ORIGINALS,LF,target,right,aqua,imageability,conservative,no,9,1,1.06661524406,-,-
2019_Oct_10,202,001,3,source,17,UMPIRE,LF,target,left,yellow,pleasantness,liberal,no,7,0,1.25345819445,-,-
2019_Oct_10,202,001,3,source,18,ATTACK,HF,target,left,yellow,pleasantness,liberal,no,1,1,1.30647712159,-,-
2019_Oct_10,202,001,3,source,19,ESTRANGED,LF,target,right,aqua,imageability,liberal,no,7,1,1.11974012033,-,-
2019_Oct_10,202,001,3,source,20,TODAY,HF,target,left,yellow,pleasantness,conservative,yes,7,0,0.866714887577,-,-
2019_Oct_10,202,001,3,source,21,VAINLY,LF,target,left,yellow,pleasantness,conservative,no,7,0,0.893292723164,-,-
2019_Oct_10,202,001,3,source,22,ASPIRED,LF,target,right,aqua,imageability,liberal,no,7,1,1.06638758173,-,-
2019_Oct_10,202,001,3,source,23,DORMS,LF,target,left,yellow,pleasantness,liberal,no,1,1,1.01334372539,-,-
2019_Oct_10,202,001,3,source,24,CIVILITY,LF,target,right,aqua,imageability,conservative,no,7,1,0.986534561414,-,-
2019_Oct_10,202,001,3,source,25,SOCIAL,HF,target,right,aqua,imageability,liberal,no,9,1,0.946700985877,-,-
2019_Oct_10,202,001,3,source,26,EASILY,HF,target,right,aqua,imageability,liberal,no,7,1,0.933409685144,-,-
2019_Oct_10,202,001,3,source,27,PRACTICE,HF,target,left,yellow,pleasantness,conservative,no,8,0,0.933183855845,-,-
2019_Oct_10,202,001,3,source,28,METABOLIC,LF,target,right,aqua,imageability,liberal,no,7,1,1.1199025268,-,-
2019_Oct_10,202,001,3,source,29,OBVIOUSLY,HF,target,right,aqua,imageability,liberal,no,7,1,0.879671477026,-,-
2019_Oct_10,202,001,3,source,30,NOSTRIL,LF,target,left,yellow,pleasantness,conservative,no,1,1,1.01324510838,-,-
2019_Oct_10,202,001,3,source,31,SAYING,HF,target,right,aqua,imageability,conservative,no,2,0,1.18651703765,-,-
2019_Oct_10,202,001,3,source,32,CUISINE,LF,target,left,yellow,pleasantness,conservative,no,3,1,2.34610723079,-,-
2019_Oct_10,202,001,3,source,33,DAUGHTER,HF,target,left,yellow,pleasantness,conservative,no,1,1,1.22654014849,-,-
2019_Oct_10,202,001,3,source,34,PURCHASER,LF,target,left,yellow,pleasantness,liberal,no,7,0,0.893165144274,-,-
2019_Oct_10,202,001,3,source,35,WINDOW,HF,target,right,aqua,imageability,conservative,no,7,1,1.03994502376,-,-
2019_Oct_10,202,001,3,source,36,HAGGLING,LF,target,right,aqua,imageability,liberal,no,7,1,0.893292723164,-,-
2019_Oct_10,202,001,3,source,37,AXIOM,LF,target,left,yellow,pleasantness,conservative,no,1,1,1.0799190094,-,-
2019_Oct_10,202,001,3,source,38,SPOKE,HF,target,left,yellow,pleasantness,conservative,no,3,1,1.61273574599,-,-
2019_Oct_10,202,001,3,source,39,DWELT,LF,target,right,aqua,imageability,liberal,no,3,0,0.906422717254,-,-
2019_Oct_10,202,001,3,source,40,DOLPHIN,LF,target,right,aqua,imageability,conservative,no,9,1,0.999773437489,-,-
2019_Oct_10,202,001,3,source,41,WHATEVER,HF,target,right,aqua,imageability,conservative,no,9,1,0.800044286005,-,-
2019_Oct_10,202,001,3,source,42,GROUND,HF,target,left,yellow,pleasantness,conservative,no,3,1,1.06696791904,-,-
2019_Oct_10,202,001,3,source,43,GARDEN,HF,target,left,yellow,pleasantness,conservative,no,1,1,0.906691806063,-,-
2019_Oct_10,202,001,3,source,44,NIBBLE,LF,target,left,yellow,pleasantness,liberal,no,1,1,0.853377394487,-,-
2019_Oct_10,202,001,3,source,45,LOYALIST,LF,target,left,yellow,pleasantness,conservative,no,1,1,1.03968510011,-,-
2019_Oct_10,202,001,3,source,46,NEITHER,HF,target,left,yellow,pleasantness,liberal,no,1,1,0.78670642631,-,-
2019_Oct_10,202,001,3,source,47,COUNCIL,HF,target,right,aqua,imageability,liberal,yes,3,0,0.946715283511,-,-
2019_Oct_10,202,001,3,recog,0,DULLED,LF,target,right,aqua,imageability,conservative,no,m,0,1.22632421755,-1,485
2019_Oct_10,202,001,3,recog,1,ROTARY,LF,lure,-,-,-,conservative,no,m,1,0.78671009237,3,488
2019_Oct_10,202,001,3,recog,2,RELAXES,LF,lure,-,-,-,conservative,no,m,1,0.613552177566,3,491
2019_Oct_10,202,001,3,recog,3,DODGED,LF,target,right,aqua,imageability,conservative,no,z,1,0.733403379521,1,492
2019_Oct_10,202,001,3,recog,4,ASPIRED,LF,target,right,aqua,imageability,liberal,no,z,1,0.693399698797,3,495
2019_Oct_10,202,001,3,recog,5,DORMS,LF,target,left,yellow,pleasantness,liberal,no,z,1,0.520124470071,3,498
2019_Oct_10,202,001,3,recog,6,CAPITAL,HF,lure,-,-,-,conservative,no,m,1,0.639975305419,3,501
2019_Oct_10,202,001,3,recog,7,METABOLIC,LF,target,right,aqua,imageability,liberal,no,z,1,0.733521426655,3,504
2019_Oct_10,202,001,3,recog,8,SPOKE,HF,target,left,yellow,pleasantness,conservative,no,z,1,0.573463810855,1,505
2019_Oct_10,202,001,3,recog,9,ESTRANGED,LF,target,right,aqua,imageability,liberal,no,z,1,0.573478475095,3,508
2019_Oct_10,202,001,3,recog,10,INFECT,LF,target,left,yellow,pleasantness,conservative,yes,m,0,0.840054199032,-1,507
2019_Oct_10,202,001,3,recog,11,WRITE,HF,target,right,aqua,imageability,conservative,no,z,1,1.18654856576,1,508
2019_Oct_10,202,001,3,recog,12,NEITHER,HF,target,left,yellow,pleasantness,liberal,no,z,1,0.720128209452,3,511
2019_Oct_10,202,001,3,recog,13,MEANS,HF,lure,-,-,-,conservative,no,m,1,0.706807213633,3,514
2019_Oct_10,202,001,3,recog,14,SARDINES,LF,lure,-,-,-,conservative,no,m,1,0.733338856864,3,517
2019_Oct_10,202,001,3,recog,15,TOWARDS,HF,target,left,yellow,pleasantness,liberal,no,z,1,0.693523978232,3,520
2019_Oct_10,202,001,3,recog,16,FORCE,HF,lure,-,-,-,liberal,no,m,1,0.706721427828,1,521
2019_Oct_10,202,001,3,recog,17,WINDOW,HF,target,right,aqua,imageability,conservative,no,z,1,0.573522467816,1,522
2019_Oct_10,202,001,3,recog,18,RIVER,HF,lure,-,-,-,conservative,no,m,1,0.626775289582,3,525
2019_Oct_10,202,001,3,recog,19,COUNCIL,HF,target,right,aqua,imageability,liberal,no,z,1,0.640200768113,3,528
2019_Oct_10,202,001,3,recog,20,CENTRAL,HF,target,left,yellow,pleasantness,liberal,no,z,1,0.60012083334,3,531
2019_Oct_10,202,001,3,recog,21,QUICKLY,HF,lure,-,-,-,liberal,no,m,1,0.680086401703,1,532
2019_Oct_10,202,001,3,recog,22,FIELD,HF,lure,-,-,-,conservative,no,m,1,0.77336526716,3,535
2019_Oct_10,202,001,3,recog,23,GROUND,HF,target,left,yellow,pleasantness,conservative,no,z,1,0.666866589142,1,536
2019_Oct_10,202,001,3,recog,24,RIOTERS,LF,lure,-,-,-,liberal,no,m,1,0.600194154541,1,537
2019_Oct_10,202,001,3,recog,25,EASILY,HF,target,right,aqua,imageability,liberal,no,z,1,0.653399317526,3,540
2019_Oct_10,202,001,3,recog,26,ORIGINALS,LF,target,right,aqua,imageability,conservative,no,z,1,0.746478016104,1,541
2019_Oct_10,202,001,3,recog,27,TUFTS,LF,lure,-,-,-,liberal,no,m,1,0.720065886431,1,542
2019_Oct_10,202,001,3,recog,28,KETCHUP,LF,lure,-,-,-,conservative,no,m,1,0.813388744609,3,545
2019_Oct_10,202,001,3,recog,29,MORNING,HF,lure,-,-,-,liberal,no,m,1,1.27983109728,1,546
2019_Oct_10,202,001,3,recog,30,AGGRAVATE,LF,lure,-,-,-,conservative,no,m,1,0.733392381341,3,549
2019_Oct_10,202,001,3,recog,31,NIBBLE,LF,target,left,yellow,pleasantness,liberal,no,z,1,0.680182085871,3,552
2019_Oct_10,202,001,3,recog,32,EXPECT,HF,lure,-,-,-,conservative,no,m,1,1.11971482452,3,555
2019_Oct_10,202,001,3,recog,33,AXIOM,LF,target,left,yellow,pleasantness,conservative,no,z,1,0.706715195526,1,556
2019_Oct_10,202,001,3,recog,34,MAYBE,HF,lure,-,-,-,conservative,no,z,0,0.74669504686,-3,553
2019_Oct_10,202,001,3,recog,35,DOLPHIN,LF,target,right,aqua,imageability,conservative,no,m,0,0.973491452948,-1,552
2019_Oct_10,202,001,3,recog,36,NORTH,HF,lure,-,-,-,conservative,no,m,1,0.679838576043,3,555
2019_Oct_10,202,001,3,recog,37,SUAVE,LF,lure,-,-,-,conservative,no,m,1,0.773378831583,3,558
2019_Oct_10,202,001,3,recog,38,CIVILITY,LF,target,right,aqua,imageability,conservative,no,z,1,0.720065153219,1,559
2019_Oct_10,202,001,3,recog,39,DINER,LF,lure,-,-,-,liberal,no,m,1,0.64013037976,1,560
2019_Oct_10,202,001,3,recog,40,DIFFERENT,HF,target,right,aqua,imageability,liberal,no,m,0,0.706725460494,-3,557
2019_Oct_10,202,001,3,recog,41,FUELLED,LF,target,left,yellow,pleasantness,liberal,no,z,1,0.706518328101,3,560
2019_Oct_10,202,001,3,recog,42,HANDS,HF,lure,-,-,-,conservative,no,m,1,0.933290904798,3,563
2019_Oct_10,202,001,3,recog,43,CYNIC,LF,lure,-,-,-,conservative,no,m,1,0.693433793155,3,566
2019_Oct_10,202,001,3,recog,44,BEGAN,HF,lure,-,-,-,conservative,no,m,1,0.746752237397,3,569
2019_Oct_10,202,001,3,recog,45,INNATELY,LF,lure,-,-,-,conservative,yes,m,1,0.746922342583,3,572
2019_Oct_10,202,001,3,recog,46,VECTORS,LF,lure,-,-,-,liberal,no,z,0,1.07999379703,-1,571
2019_Oct_10,202,001,3,recog,47,SAYING,HF,target,right,aqua,imageability,conservative,no,z,1,1.95956152455,1,572
2019_Oct_10,202,001,3,recog,48,AMULETS,LF,lure,-,-,-,liberal,no,m,1,0.640076122071,1,573
2019_Oct_10,202,001,3,recog,49,LOYALIST,LF,target,left,yellow,pleasantness,conservative,no,z,1,0.666766872308,1,574
2019_Oct_10,202,001,3,recog,50,VALUE,HF,target,left,yellow,pleasantness,liberal,no,z,1,0.773559568343,3,577
2019_Oct_10,202,001,3,recog,51,WEEKS,HF,lure,-,-,-,liberal,no,m,1,0.70675332255,1,578
2019_Oct_10,202,001,3,recog,52,EITHER,HF,lure,-,-,-,liberal,no,z,0,1.23988020782,-1,577
2019_Oct_10,202,001,3,recog,53,MOLARS,LF,lure,-,-,-,liberal,no,m,1,0.78671925752,1,578
2019_Oct_10,202,001,3,recog,54,EGOISM,LF,target,left,yellow,pleasantness,liberal,no,z,1,0.746747838125,3,581
2019_Oct_10,202,001,3,recog,55,HOPPER,LF,lure,-,-,-,liberal,no,m,1,0.693341408441,1,582
2019_Oct_10,202,001,3,recog,56,DOING,HF,lure,-,-,-,liberal,no,m,1,0.746700179343,1,583
2019_Oct_10,202,001,3,recog,57,OBVIOUSLY,HF,target,right,aqua,imageability,liberal,no,z,1,0.613404435346,3,586
2019_Oct_10,202,001,3,recog,58,CRICKETER,LF,lure,-,-,-,liberal,no,m,1,0.680124162122,1,587
2019_Oct_10,202,001,3,recog,59,DWELT,LF,target,right,aqua,imageability,liberal,no,z,1,0.919961477041,3,590
2019_Oct_10,202,001,3,recog,60,ERODE,LF,lure,-,-,-,conservative,no,m,1,0.973340044667,3,593
2019_Oct_10,202,001,3,recog,61,SECOND,HF,lure,-,-,-,conservative,no,m,1,0.746760669334,3,596
2019_Oct_10,202,001,3,recog,62,TELEPHONE,HF,target,right,aqua,imageability,conservative,no,z,1,0.66677310461,1,597
2019_Oct_10,202,001,3,recog,63,GIBBERISH,LF,lure,-,-,-,conservative,no,m,1,0.640132946002,3,600
2019_Oct_10,202,001,3,recog,64,FUTURE,HF,lure,-,-,-,liberal,no,m,1,0.878662943905,1,601
2019_Oct_10,202,001,3,recog,65,PURCHASER,LF,target,left,yellow,pleasantness,liberal,no,z,1,0.746550970699,3,604
2019_Oct_10,202,001,3,recog,66,ANYONE,HF,lure,-,-,-,liberal,no,m,1,0.786748952607,1,605
2019_Oct_10,202,001,3,recog,67,HISTORY,HF,lure,-,-,-,conservative,no,m,1,0.733424276063,3,608
2019_Oct_10,202,001,3,recog,68,TOTAL,HF,target,right,aqua,imageability,conservative,no,z,1,0.600135864186,1,609
2019_Oct_10,202,001,3,recog,69,TODAY,HF,target,left,yellow,pleasantness,conservative,no,z,1,0.64011571552,1,610
2019_Oct_10,202,001,3,recog,70,ATTACK,HF,target,left,yellow,pleasantness,liberal,no,z,1,0.640099218249,3,613
2019_Oct_10,202,001,3,recog,71,ZEBRA,LF,lure,-,-,-,liberal,yes,z,0,0.720071752127,-1,612
2019_Oct_10,202,001,3,recog,72,TEXTURES,LF,lure,-,-,-,liberal,no,m,1,0.733402646309,1,613
2019_Oct_10,202,001,3,recog,73,GARDEN,HF,target,left,yellow,pleasantness,conservative,no,z,1,0.559871526591,1,614
2019_Oct_10,202,001,3,recog,74,HAGGLING,LF,target,right,aqua,imageability,liberal,no,z,1,0.57350927,3,617
2019_Oct_10,202,001,3,recog,75,BAUXITE,LF,target,right,aqua,imageability,conservative,no,z,1,0.70657625185,1,618
2019_Oct_10,202,001,3,recog,76,AVAILABLE,HF,target,left,yellow,pleasantness,liberal,no,z,1,0.573505970545,3,621
2019_Oct_10,202,001,3,recog,77,AMPLIFY,LF,target,right,aqua,imageability,liberal,no,z,1,0.586824033517,3,624
2019_Oct_10,202,001,3,recog,78,DAUGHTER,HF,target,left,yellow,pleasantness,conservative,no,z,1,0.520105773165,1,625
2019_Oct_10,202,001,3,recog,79,PRACTICE,HF,target,left,yellow,pleasantness,conservative,no,z,1,0.733492098174,1,626
2019_Oct_10,202,001,3,recog,80,HOVELS,LF,lure,-,-,-,liberal,no,z,0,1.17333645193,-1,625
2019_Oct_10,202,001,3,recog,81,WHATEVER,HF,target,right,aqua,imageability,conservative,no,z,1,0.933341129821,1,626
2019_Oct_10,202,001,3,recog,82,EVADING,LF,lure,-,-,-,conservative,no,m,1,0.746785965149,3,629
2019_Oct_10,202,001,3,recog,83,UMPIRE,LF,target,left,yellow,pleasantness,liberal,no,z,1,0.946385338106,3,632
2019_Oct_10,202,001,3,recog,84,GUESSWORK,LF,lure,-,-,-,conservative,no,m,1,0.72012930927,3,635
2019_Oct_10,202,001,3,recog,85,SOCIAL,HF,target,right,aqua,imageability,liberal,yes,z,1,0.773479648234,3,638
2019_Oct_10,202,001,3,recog,86,PREPARED,HF,lure,-,-,-,liberal,no,z,0,0.879996289947,-1,637
2019_Oct_10,202,001,3,recog,87,NOSTRIL,LF,target,left,yellow,pleasantness,conservative,no,z,1,0.613428997949,1,638
2019_Oct_10,202,001,3,recog,88,WHOLE,HF,lure,-,-,-,liberal,no,m,1,1.02685279009,1,639
2019_Oct_10,202,001,3,recog,89,SENSE,HF,lure,-,-,-,conservative,no,m,1,0.853161096944,3,642
2019_Oct_10,202,001,3,recog,90,MAKES,HF,lure,-,-,-,liberal,no,m,1,0.866659163464,1,643
2019_Oct_10,202,001,3,recog,91,CUISINE,LF,target,left,yellow,pleasantness,conservative,no,z,1,0.733163985799,1,644
2019_Oct_10,202,001,3,recog,92,ACROSS,HF,target,right,aqua,imageability,liberal,no,z,1,0.706755888792,3,647
2019_Oct_10,202,001,3,recog,93,USUAL,HF,lure,-,-,-,liberal,no,z,0,1.30651744825,-1,646
2019_Oct_10,202,001,3,recog,94,VAINLY,LF,target,left,yellow,pleasantness,conservative,no,m,0,0.760057102551,-1,645
2019_Oct_10,202,001,3,recog,95,SNOBBISH,LF,lure,-,-,-,liberal,no,m,1,1.09323193989,1,646
2019_Oct_10,202,001,4,source,0,CREAK,LF,target,left,yellow,pleasantness,conservative,yes,3,1,1.06662770867,-,-
2019_Oct_10,202,001,4,source,1,FINAL,HF,target,right,aqua,imageability,liberal,no,3,0,1.19966206258,-,-
2019_Oct_10,202,001,4,source,2,MUSIC,HF,target,left,yellow,pleasantness,liberal,yes,3,1,0.626859608963,-,-
2019_Oct_10,202,001,4,source,3,CAUGHT,HF,target,right,aqua,imageability,liberal,no,7,1,1.06662147637,-,-
2019_Oct_10,202,001,4,source,4,GRUBS,LF,target,left,yellow,pleasantness,conservative,no,2,1,1.18659145867,-,-
2019_Oct_10,202,001,4,source,5,SHORT,HF,target,left,yellow,pleasantness,conservative,yes,7,0,1.03975585506,-,-
2019_Oct_10,202,001,4,source,6,QUALITY,HF,target,left,yellow,pleasantness,conservative,no,7,0,0.960142595072,-,-
2019_Oct_10,202,001,4,source,7,SAVOURED,LF,target,left,yellow,pleasantness,conservative,no,7,0,0.973300817825,-,-
2019_Oct_10,202,001,4,source,8,NEPHEWS,LF,target,right,aqua,imageability,liberal,no,7,1,1.17320923964,-,-
2019_Oct_10,202,001,4,source,9,LARGE,HF,target,right,aqua,imageability,liberal,no,9,1,0.799762365987,-,-
2019_Oct_10,202,001,4,source,10,THEORY,HF,target,right,aqua,imageability,liberal,no,7,1,2.27944359473,-,-
2019_Oct_10,202,001,4,source,11,HOWEVER,HF,target,left,yellow,pleasantness,liberal,no,7,0,0.853326069646,-,-
2019_Oct_10,202,001,4,source,12,DILATED,LF,target,right,aqua,imageability,liberal,no,7,1,0.866771711508,-,-
2019_Oct_10,202,001,4,source,13,GRIEVE,LF,target,right,aqua,imageability,conservative,no,9,1,0.906681907701,-,-
2019_Oct_10,202,001,4,source,14,TRYING,HF,target,left,yellow,pleasantness,liberal,no,7,0,0.879842682031,-,-
2019_Oct_10,202,001,4,source,15,REQUIRED,HF,target,left,yellow,pleasantness,conservative,no,2,1,1.34653359357,-,-
2019_Oct_10,202,001,4,source,16,AREAS,HF,target,right,aqua,imageability,liberal,no,9,1,1.01339211738,-,-
2019_Oct_10,202,001,4,source,17,AHEAD,HF,target,right,aqua,imageability,conservative,no,3,0,0.986859740941,-,-
2019_Oct_10,202,001,4,source,18,BELIEVE,HF,target,right,aqua,imageability,conservative,no,8,1,1.02634137471,-,-
2019_Oct_10,202,001,4,source,19,DEBACLE,LF,target,left,yellow,pleasantness,liberal,no,1,1,0.893375576121,-,-
2019_Oct_10,202,001,4,source,20,MYOPIC,LF,target,left,yellow,pleasantness,liberal,no,2,1,1.2132268514,-,-
2019_Oct_10,202,001,4,source,21,BLUECOATS,LF,target,right,aqua,imageability,conservative,no,9,1,0.82709137728,-,-
2019_Oct_10,202,001,4,source,22,UNION,HF,target,right,aqua,imageability,conservative,no,9,1,1.31982158019,-,-
2019_Oct_10,202,001,4,source,23,USHERS,LF,target,left,yellow,pleasantness,conservative,no,1,1,0.919975774675,-,-
2019_Oct_10,202,001,4,source,24,RAKING,LF,target,right,aqua,imageability,liberal,no,8,1,0.933308501887,-,-
2019_Oct_10,202,001,4,source,25,WHETHER,HF,target,left,yellow,pleasantness,liberal,no,7,0,0.986626946128,-,-
2019_Oct_10,202,001,4,source,26,GAPED,LF,target,right,aqua,imageability,conservative,no,7,1,0.840013505765,-,-
2019_Oct_10,202,001,4,source,27,DRINK,HF,target,right,aqua,imageability,conservative,no,9,1,1.01328616825,-,-
2019_Oct_10,202,001,4,source,28,ARPEGGIO,LF,target,left,yellow,pleasantness,conservative,no,7,0,0.826689577098,-,-
2019_Oct_10,202,001,4,source,29,INUNDATED,LF,target,right,aqua,imageability,liberal,no,7,1,1.54649224042,-,-
2019_Oct_10,202,001,4,source,30,BINDINGS,LF,target,left,yellow,pleasantness,liberal,no,8,0,1.06658994825,-,-
2019_Oct_10,202,001,4,source,31,SORRY,HF,target,left,yellow,pleasantness,liberal,no,1,1,0.813549318039,-,-
2019_Oct_10,202,001,4,source,32,TRUTH,HF,target,right,aqua,imageability,conservative,no,1,0,2.07952344152,-,-
2019_Oct_10,202,001,4,source,33,NOTHING,HF,target,left,yellow,pleasantness,conservative,no,1,1,0.760086064426,-,-
2019_Oct_10,202,001,4,source,34,JEWELLED,LF,target,right,aqua,imageability,conservative,no,9,1,0.931594985416,-,-
2019_Oct_10,202,001,4,source,35,STOOD,HF,target,right,aqua,imageability,conservative,no,9,1,0.973330146305,-,-
2019_Oct_10,202,001,4,source,36,CORNER,HF,target,left,yellow,pleasantness,liberal,no,1,1,1.22655591255,-,-
2019_Oct_10,202,001,4,source,37,PEEKED,LF,target,right,aqua,imageability,conservative,no,7,1,0.946691820727,-,-
2019_Oct_10,202,001,4,source,38,PAUNCH,LF,target,right,aqua,imageability,liberal,no,7,1,1.0798948134,-,-
2019_Oct_10,202,001,4,source,39,PYJAMA,LF,target,left,yellow,pleasantness,liberal,no,1,1,0.826740901939,-,-
2019_Oct_10,202,001,4,source,40,REPORT,HF,target,right,aqua,imageability,liberal,no,8,1,1.23986994285,-,-
2019_Oct_10,202,001,4,source,41,CHAIR,HF,target,left,yellow,pleasantness,conservative,no,9,0,0.760241505373,-,-
2019_Oct_10,202,001,4,source,42,APART,HF,target,left,yellow,pleasantness,conservative,no,1,1,1.26629343731,-,-
2019_Oct_10,202,001,4,source,43,ROWAN,LF,target,left,yellow,pleasantness,liberal,no,1,1,0.773377365159,-,-
2019_Oct_10,202,001,4,source,44,TUBERS,LF,target,left,yellow,pleasantness,liberal,no,1,1,0.91997907413,-,-
2019_Oct_10,202,001,4,source,45,BAIZE,LF,target,right,aqua,imageability,conservative,no,9,1,1.00001869691,-,-
2019_Oct_10,202,001,4,source,46,DENIALS,LF,target,right,aqua,imageability,liberal,yes,7,1,0.906870709793,-,-
2019_Oct_10,202,001,4,source,47,GOVERNS,LF,target,left,yellow,pleasantness,conservative,no,7,0,1.49308434431,-,-
2019_Oct_10,202,001,4,recog,0,RAMBLE,LF,lure,-,-,-,liberal,no,z,0,1.21318762455,-1,645
2019_Oct_10,202,001,4,recog,1,BEYOND,HF,lure,-,-,-,conservative,no,m,1,0.826728437335,3,648
2019_Oct_10,202,001,4,recog,2,JEWELLED,LF,target,right,aqua,imageability,conservative,no,z,1,0.733559553679,1,649
2019_Oct_10,202,001,4,recog,3,NUTSHELL,LF,lure,-,-,-,liberal,no,m,1,0.933416284052,1,650
2019_Oct_10,202,001,4,recog,4,USHERS,LF,target,left,yellow,pleasantness,conservative,no,z,1,0.680062205707,1,651
2019_Oct_10,202,001,4,recog,5,PAUNCH,LF,target,right,aqua,imageability,liberal,no,z,1,0.533468928675,3,654
2019_Oct_10,202,001,4,recog,6,GRIEVE,LF,target,right,aqua,imageability,conservative,no,z,1,0.733390914917,1,655
2019_Oct_10,202,001,4,recog,7,CERTAIN,HF,lure,-,-,-,conservative,yes,m,1,0.999932544495,3,658
2019_Oct_10,202,001,4,recog,8,BELIEVE,HF,target,right,aqua,imageability,conservative,no,z,1,0.840041367821,1,659
2019_Oct_10,202,001,4,recog,9,CUPID,LF,lure,-,-,-,liberal,no,m,1,0.760073599822,1,660
2019_Oct_10,202,001,4,recog,10,SORRY,HF,target,left,yellow,pleasantness,liberal,no,z,1,0.853318004315,3,663
2019_Oct_10,202,001,4,recog,11,CORNER,HF,target,left,yellow,pleasantness,liberal,no,z,1,0.733708762323,3,666
2019_Oct_10,202,001,4,recog,12,GRUBS,LF,target,left,yellow,pleasantness,conservative,no,z,1,0.64012854673,1,667
2019_Oct_10,202,001,4,recog,13,REIGNING,LF,lure,-,-,-,conservative,no,m,1,0.666836160843,3,670
2019_Oct_10,202,001,4,recog,14,BAIZE,LF,target,right,aqua,imageability,conservative,no,z,1,0.6398642238,1,671
2019_Oct_10,202,001,4,recog,15,PYJAMA,LF,target,left,yellow,pleasantness,liberal,no,z,1,0.613457959823,3,674
2019_Oct_10,202,001,4,recog,16,NARRATOR,LF,lure,-,-,-,conservative,no,m,1,0.640173639269,3,677
2019_Oct_10,202,001,4,recog,17,DRINK,HF,target,right,aqua,imageability,conservative,no,z,1,0.600147228972,1,678
2019_Oct_10,202,001,4,recog,18,AREAS,HF,target,right,aqua,imageability,liberal,no,z,1,0.586793605218,3,681
2019_Oct_10,202,001,4,recog,19,GAPED,LF,target,right,aqua,imageability,conservative,no,z,1,0.600124132794,1,682
2019_Oct_10,202,001,4,recog,20,APART,HF,target,left,yellow,pleasantness,conservative,no,z,1,0.520183493638,1,683
2019_Oct_10,202,001,4,recog,21,LYNCH,LF,lure,-,-,-,conservative,no,m,1,0.640105817158,3,686
2019_Oct_10,202,001,4,recog,22,GLASS,HF,lure,-,-,-,liberal,no,m,1,0.84003146946,1,687
2019_Oct_10,202,001,4,recog,23,AHEAD,HF,target,right,aqua,imageability,conservative,no,z,1,0.86668335946,1,688
2019_Oct_10,202,001,4,recog,24,YOUNG,HF,lure,-,-,-,liberal,no,m,1,1.22656434449,1,689
2019_Oct_10,202,001,4,recog,25,IMPORTANT,HF,lure,-,-,-,liberal,no,m,1,0.733436740667,1,690
2019_Oct_10,202,001,4,recog,26,RIDDLES,LF,lure,-,-,-,liberal,no,m,1,1.46627811318,1,691
2019_Oct_10,202,001,4,recog,27,APPEARED,HF,lure,-,-,-,conservative,no,m,1,0.786676364618,3,694
2019_Oct_10,202,001,4,recog,28,TRUTH,HF,target,right,aqua,imageability,conservative,no,z,1,0.666811964847,1,695
2019_Oct_10,202,001,4,recog,29,LARGE,HF,target,right,aqua,imageability,liberal,no,z,1,0.58674851268,3,698
2019_Oct_10,202,001,4,recog,30,DILATED,LF,target,right,aqua,imageability,liberal,no,z,1,0.560180208848,3,701
2019_Oct_10,202,001,4,recog,31,POWER,HF,lure,-,-,-,conservative,no,m,1,0.706506230103,3,704
2019_Oct_10,202,001,4,recog,32,OSTRACISM,LF,lure,-,-,-,conservative,no,m,1,0.786871032406,3,707
2019_Oct_10,202,001,4,recog,33,WHETHER,HF,target,left,yellow,pleasantness,liberal,no,z,1,0.693452123455,3,710
2019_Oct_10,202,001,4,recog,34,HOWEVER,HF,target,left,yellow,pleasantness,liberal,no,z,1,0.773357568434,3,713
2019_Oct_10,202,001,4,recog,35,LOBBIES,LF,lure,-,-,-,conservative,no,m,1,0.653450275761,3,716
2019_Oct_10,202,001,4,recog,36,POUNDS,HF,lure,-,-,-,liberal,no,m,1,0.813470497748,1,717
2019_Oct_10,202,001,4,recog,37,GIRLS,HF,lure,-,-,-,liberal,no,m,1,0.613819433344,1,718
2019_Oct_10,202,001,4,recog,38,STOOD,HF,target,right,aqua,imageability,conservative,no,z,1,0.693372203346,1,719
2019_Oct_10,202,001,4,recog,39,CREAK,LF,target,left,yellow,pleasantness,conservative,no,m,0,1.07994467182,-1,718
2019_Oct_10,202,001,4,recog,40,TROUBLE,HF,lure,-,-,-,liberal,no,m,1,0.840041367821,1,719
2019_Oct_10,202,001,4,recog,41,TIDILY,LF,lure,-,-,-,conservative,no,m,1,0.90667457558,3,722
2019_Oct_10,202,001,4,recog,42,QUALITY,HF,target,left,yellow,pleasantness,conservative,no,z,1,0.613489854545,1,723
2019_Oct_10,202,001,4,recog,43,CAUGHT,HF,target,right,aqua,imageability,liberal,no,z,1,0.506818871704,3,726
2019_Oct_10,202,001,4,recog,44,MYOPIC,LF,target,left,yellow,pleasantness,liberal,no,z,1,0.506843434307,3,729
2019_Oct_10,202,001,4,recog,45,BREAK,HF,lure,-,-,-,conservative,no,m,1,0.893134715976,3,732
2019_Oct_10,202,001,4,recog,46,REPORT,HF,target,right,aqua,imageability,liberal,no,z,1,0.640121581216,3,735
2019_Oct_10,202,001,4,recog,47,PEEKED,LF,target,right,aqua,imageability,conservative,no,z,1,0.600291305132,1,736
2019_Oct_10,202,001,4,recog,48,SELECTS,LF,lure,-,-,-,liberal,no,m,1,0.706592382513,1,737
2019_Oct_10,202,001,4,recog,49,FRIEND,HF,lure,-,-,-,liberal,no,z,0,0.773402660973,-1,736
2019_Oct_10,202,001,4,recog,50,GOVERNS,LF,target,left,yellow,pleasantness,conservative,no,z,1,1.26652036643,1,737
2019_Oct_10,202,001,4,recog,51,CULINARY,LF,lure,-,-,-,conservative,no,m,1,0.958610548575,3,740
2019_Oct_10,202,001,4,recog,52,SUMMER,HF,lure,-,-,-,liberal,no,m,1,0.746843888898,1,741
2019_Oct_10,202,001,4,recog,53,NOTHING,HF,target,left,yellow,pleasantness,conservative,no,z,1,0.666519046648,1,742
2019_Oct_10,202,001,4,recog,54,INTEREST,HF,lure,-,-,-,conservative,no,m,1,0.640072089405,3,745
2019_Oct_10,202,001,4,recog,55,CALLED,HF,lure,-,-,-,conservative,no,m,1,0.893337082491,3,748
2019_Oct_10,202,001,4,recog,56,SAVOURED,LF,target,left,yellow,pleasantness,conservative,no,z,1,0.786842803744,1,749
2019_Oct_10,202,001,4,recog,57,DENIALS,LF,target,right,aqua,imageability,liberal,no,z,1,0.826710473641,3,752
2019_Oct_10,202,001,4,recog,58,COHESIVE,LF,lure,-,-,-,conservative,no,m,1,0.666869155384,3,755
2019_Oct_10,202,001,4,recog,59,JUNCTURE,LF,lure,-,-,-,liberal,no,m,1,0.693519212354,1,756
2019_Oct_10,202,001,4,recog,60,ABSENCES,LF,lure,-,-,-,liberal,no,m,1,0.773415125577,1,757
2019_Oct_10,202,001,4,recog,61,SHORT,HF,target,left,yellow,pleasantness,conservative,no,z,1,0.746735740126,1,758
2019_Oct_10,202,001,4,recog,62,JOURNEYED,LF,lure,-,-,-,conservative,no,m,1,0.666744509342,3,761
2019_Oct_10,202,001,4,recog,63,MEDDLE,LF,lure,-,-,-,liberal,no,m,1,0.666735344192,1,762
2019_Oct_10,202,001,4,recog,64,NAPPY,LF,lure,-,-,-,liberal,no,m,1,0.58678883934,1,763
2019_Oct_10,202,001,4,recog,65,FOLLOWED,HF,lure,-,-,-,conservative,no,m,1,0.746555369971,3,766
2019_Oct_10,202,001,4,recog,66,NEPHEWS,LF,target,right,aqua,imageability,liberal,no,z,1,0.626769790492,3,769
2019_Oct_10,202,001,4,recog,67,RAKING,LF,target,right,aqua,imageability,liberal,no,z,1,0.54690320575,3,772
2019_Oct_10,202,001,4,recog,68,BROUGHT,HF,lure,-,-,-,conservative,no,m,1,0.773370399645,3,775
2019_Oct_10,202,001,4,recog,69,MUSIC,HF,target,left,yellow,pleasantness,liberal,no,z,1,0.680262739192,3,778
2019_Oct_10,202,001,4,recog,70,PAPER,HF,lure,-,-,-,conservative,no,m,1,0.653269172394,3,781
2019_Oct_10,202,001,4,recog,71,REQUIRED,HF,target,left,yellow,pleasantness,conservative,no,m,0,0.959983854671,-1,780
2019_Oct_10,202,001,4,recog,72,MODERN,HF,lure,-,-,-,liberal,no,m,1,0.799807825132,1,781
2019_Oct_10,202,001,4,recog,73,TAVERNS,LF,lure,-,-,-,liberal,no,z,0,1.11993258849,-1,780
2019_Oct_10,202,001,4,recog,74,ROWAN,LF,target,left,yellow,pleasantness,liberal,yes,z,1,0.706558654761,3,783
2019_Oct_10,202,001,4,recog,75,BLUECOATS,LF,target,right,aqua,imageability,conservative,yes,z,1,0.480141319283,1,784
2019_Oct_10,202,001,4,recog,76,FURTHER,HF,lure,-,-,-,liberal,no,z,0,0.840106257085,-1,783
2019_Oct_10,202,001,4,recog,77,TRYING,HF,target,left,yellow,pleasantness,liberal,yes,z,1,0.853417721148,3,786
2019_Oct_10,202,001,4,recog,78,LABOUR,HF,lure,-,-,-,conservative,no,m,1,0.800150601747,3,789
2019_Oct_10,202,001,4,recog,79,TUBERS,LF,target,left,yellow,pleasantness,liberal,no,z,1,0.640228263564,3,792
2019_Oct_10,202,001,4,recog,80,COILING,LF,lure,-,-,-,conservative,no,m,1,0.706824444115,3,795
2019_Oct_10,202,001,4,recog,81,MINISTER,HF,lure,-,-,-,liberal,no,m,1,0.640209566657,1,796
2019_Oct_10,202,001,4,recog,82,BINDINGS,LF,target,left,yellow,pleasantness,liberal,no,m,0,0.600095904131,-3,793
2019_Oct_10,202,001,4,recog,83,BEFALL,LF,lure,-,-,-,conservative,no,m,1,0.680116463396,3,796
2019_Oct_10,202,001,4,recog,84,FINAL,HF,target,right,aqua,imageability,liberal,no,z,1,1.29316932358,3,799
2019_Oct_10,202,001,4,recog,85,DEBACLE,LF,target,left,yellow,pleasantness,liberal,no,z,1,0.746704578616,3,802
2019_Oct_10,202,001,4,recog,86,CHAIR,HF,target,left,yellow,pleasantness,conservative,no,z,1,0.706753689156,1,803
2019_Oct_10,202,001,4,recog,87,TYRANTS,LF,lure,-,-,-,conservative,no,m,1,0.880007654733,3,806
2019_Oct_10,202,001,4,recog,88,INUNDATED,LF,target,right,aqua,imageability,liberal,no,m,0,0.946607134739,-3,803
2019_Oct_10,202,001,4,recog,89,THEORY,HF,target,right,aqua,imageability,liberal,no,z,1,0.840127520233,3,806
2019_Oct_10,202,001,4,recog,90,AFTERNOON,HF,lure,-,-,-,liberal,no,m,1,1.21318029243,1,807
2019_Oct_10,202,001,4,recog,91,RANGE,HF,lure,-,-,-,conservative,no,m,1,0.866706089033,3,810
2019_Oct_10,202,001,4,recog,92,URCHIN,LF,lure,-,-,-,liberal,no,m,1,0.706586883424,1,811
2019_Oct_10,202,001,4,recog,93,ARPEGGIO,LF,target,left,yellow,pleasantness,conservative,no,z,1,0.839766046711,1,812
2019_Oct_10,202,001,4,recog,94,SYNDICATE,LF,lure,-,-,-,liberal,no,z,0,0.733428308729,-1,811
2019_Oct_10,202,001,4,recog,95,UNION,HF,target,right,aqua,imageability,conservative,no,z,1,0.640157141998,1,812
