date,subj,session,cycle,task,trial,item,wf,type,source,colour,encoding,bias,null,response,corr,rt,points,total
2019_Oct_11,203,001,0,source,0,AROUND,HF,target,right,yellow,pleasantness,liberal,no,None,-1,-1,-,-
2019_Oct_11,203,001,0,source,1,SIPHON,LF,target,left,aqua,imageability,liberal,no,None,-1,-1,-,-
2019_Oct_11,203,001,0,source,2,WHOLE,HF,target,left,aqua,imageability,liberal,no,None,-1,-1,-,-
2019_Oct_11,203,001,0,source,3,SOCIAL,HF,target,right,yellow,pleasantness,liberal,no,7,1,3.59894916055,-,-
2019_Oct_11,203,001,0,source,4,HIGHER,HF,target,left,aqua,imageability,liberal,no,1,1,4.75852872211,-,-
2019_Oct_11,203,001,0,source,5,GETTING,HF,target,left,aqua,imageability,liberal,no,3,1,3.7988781123,-,-
2019_Oct_11,203,001,0,source,6,PAPER,HF,target,left,aqua,imageability,conservative,no,1,1,1.43976919952,-,-
2019_Oct_11,203,001,0,source,7,WAKED,LF,target,left,aqua,imageability,liberal,no,1,1,2.38610211297,-,-
2019_Oct_11,203,001,0,source,8,CHIEF,HF,target,right,yellow,pleasantness,conservative,no,1,0,4.01212659345,-,-
2019_Oct_11,203,001,0,source,9,BEECHES,LF,target,right,yellow,pleasantness,liberal,no,9,1,3.14582487084,-,-
2019_Oct_11,203,001,0,source,10,SUPPORT,HF,target,right,yellow,pleasantness,liberal,yes,8,1,2.97228678561,-,-
2019_Oct_11,203,001,0,source,11,RIVER,HF,target,left,aqua,imageability,conservative,no,1,1,2.77268961229,-,-
2019_Oct_11,203,001,0,source,12,GARDEN,HF,target,right,yellow,pleasantness,conservative,no,8,1,3.21221758506,-,-
2019_Oct_11,203,001,0,source,13,EVIDENCE,HF,target,left,aqua,imageability,liberal,no,1,1,3.27904802685,-,-
2019_Oct_11,203,001,0,source,14,PUMPKIN,LF,target,right,yellow,pleasantness,conservative,no,1,0,3.13255006738,-,-
2019_Oct_11,203,001,0,source,15,SCHOOL,HF,target,left,aqua,imageability,liberal,no,1,1,0.840042834246,-,-
2019_Oct_11,203,001,0,source,16,INACTION,LF,target,right,yellow,pleasantness,conservative,no,9,1,1.25319753758,-,-
2019_Oct_11,203,001,0,source,17,RIOTERS,LF,target,right,yellow,pleasantness,liberal,no,2,0,2.75941554204,-,-
2019_Oct_11,203,001,0,source,18,LETTER,HF,target,right,yellow,pleasantness,liberal,no,1,0,1.51988690938,-,-
2019_Oct_11,203,001,0,source,19,RUNNING,HF,target,right,yellow,pleasantness,liberal,no,9,1,0.986769555864,-,-
2019_Oct_11,203,001,0,source,20,PAGANISM,LF,target,left,aqua,imageability,conservative,no,3,1,3.27910961666,-,-
2019_Oct_11,203,001,0,source,21,IGNOBLE,LF,target,left,aqua,imageability,conservative,yes,3,1,1.67969449988,-,-
2019_Oct_11,203,001,0,source,22,LADDIE,LF,target,left,aqua,imageability,liberal,yes,3,1,0.546960396287,-,-
2019_Oct_11,203,001,0,source,23,WASHBASIN,LF,target,left,aqua,imageability,conservative,no,2,1,2.22593341555,-,-
2019_Oct_11,203,001,0,source,24,EXHALED,LF,target,left,aqua,imageability,conservative,no,1,1,1.82629364261,-,-
2019_Oct_11,203,001,0,source,25,TINGLING,LF,target,left,aqua,imageability,liberal,no,1,1,1.14655881607,-,-
2019_Oct_11,203,001,0,source,26,DRYER,LF,target,left,aqua,imageability,conservative,no,1,1,0.986663606729,-,-
2019_Oct_11,203,001,0,source,27,RESEARCH,HF,target,left,aqua,imageability,conservative,no,1,1,1.65303491116,-,-
2019_Oct_11,203,001,0,source,28,SOPHISTS,LF,target,right,yellow,pleasantness,conservative,no,8,1,1.70638121745,-,-
2019_Oct_11,203,001,0,source,29,WELCOMES,LF,target,right,yellow,pleasantness,liberal,no,9,1,1.23994912975,-,-
2019_Oct_11,203,001,0,source,30,QUALITY,HF,target,right,yellow,pleasantness,conservative,no,2,0,3.45213811955,-,-
2019_Oct_11,203,001,0,source,31,FUTURE,HF,target,left,aqua,imageability,conservative,no,1,1,0.800128971993,-,-
2019_Oct_11,203,001,0,source,32,ECONOMIC,HF,target,left,aqua,imageability,conservative,yes,3,1,1.39982270934,-,-
2019_Oct_11,203,001,0,source,33,FRACTIONS,LF,target,right,yellow,pleasantness,liberal,no,9,1,1.30650791649,-,-
2019_Oct_11,203,001,0,source,34,THOUSAND,HF,target,right,yellow,pleasantness,liberal,no,1,0,2.35956680368,-,-
2019_Oct_11,203,001,0,source,35,JUTTED,LF,target,left,aqua,imageability,liberal,no,2,1,1.45205929925,-,-
2019_Oct_11,203,001,0,source,36,FEELING,HF,target,right,yellow,pleasantness,conservative,no,2,0,2.42606143437,-,-
2019_Oct_11,203,001,0,source,37,REFECTORY,LF,target,left,aqua,imageability,conservative,no,1,1,1.08000369539,-,-
2019_Oct_11,203,001,0,source,38,LACING,LF,target,right,yellow,pleasantness,liberal,no,8,1,2.57249707082,-,-
2019_Oct_11,203,001,0,source,39,ADHERE,LF,target,right,yellow,pleasantness,conservative,no,9,1,0.959981655036,-,-
2019_Oct_11,203,001,0,source,40,TEXTURES,LF,target,left,aqua,imageability,liberal,no,2,1,1.34635542306,-,-
2019_Oct_11,203,001,0,source,41,SAYING,HF,target,right,yellow,pleasantness,conservative,no,9,1,1.59981545054,-,-
2019_Oct_11,203,001,0,source,42,GESTURING,LF,target,right,yellow,pleasantness,conservative,no,9,1,0.959741894708,-,-
2019_Oct_11,203,001,0,source,43,NIPPED,LF,target,right,yellow,pleasantness,conservative,no,8,1,1.18662335339,-,-
2019_Oct_11,203,001,0,source,44,POTASH,LF,target,right,yellow,pleasantness,liberal,no,3,0,2.93258738787,-,-
2019_Oct_11,203,001,0,source,45,FRIEND,HF,target,left,aqua,imageability,conservative,no,1,1,1.8396677963,-,-
2019_Oct_11,203,001,0,source,46,HARDLY,HF,target,right,yellow,pleasantness,conservative,no,9,1,0.999998533576,-,-
2019_Oct_11,203,001,0,source,47,EITHER,HF,target,left,aqua,imageability,liberal,no,8,0,3.2657801889,-,-
2019_Oct_11,203,001,0,recog,0,IGNOBLE,LF,target,left,aqua,imageability,conservative,no,m,0,1.47979157715,-1,-1
2019_Oct_11,203,001,0,recog,1,PAPER,HF,target,left,aqua,imageability,conservative,yes,m,0,1.46649624375,-1,-2
2019_Oct_11,203,001,0,recog,2,BEAUTIFUL,HF,lure,-,-,-,conservative,no,m,1,0.999969571702,3,1
2019_Oct_11,203,001,0,recog,3,OCTAGONAL,LF,lure,-,-,-,conservative,no,m,1,0.920020500608,3,4
2019_Oct_11,203,001,0,recog,4,WHOLE,HF,target,left,aqua,imageability,liberal,no,m,0,1.61311408339,-3,1
2019_Oct_11,203,001,0,recog,5,DEDICATE,LF,lure,-,-,-,conservative,no,m,1,1.33314880831,3,4
2019_Oct_11,203,001,0,recog,6,MOCCASINS,LF,lure,-,-,-,conservative,no,m,1,1.6929967988,3,7
2019_Oct_11,203,001,0,recog,7,DAUGHTER,HF,lure,-,-,-,liberal,no,m,1,1.89297340933,1,8
2019_Oct_11,203,001,0,recog,8,BEECHES,LF,target,right,yellow,pleasantness,liberal,no,z,1,2.03766803386,3,11
2019_Oct_11,203,001,0,recog,9,WINDOW,HF,lure,-,-,-,conservative,no,m,1,2.34612446127,3,14
2019_Oct_11,203,001,0,recog,10,TIMES,HF,lure,-,-,-,conservative,no,m,1,0.9999816697,3,17
2019_Oct_11,203,001,0,recog,11,FISHY,LF,lure,-,-,-,liberal,no,m,1,1.2929203981,1,18
2019_Oct_11,203,001,0,recog,12,SYSTEM,HF,lure,-,-,-,liberal,no,m,1,2.74574993658,1,19
2019_Oct_11,203,001,0,recog,13,BONANZA,LF,lure,-,-,-,conservative,no,m,1,1.77297629819,3,22
2019_Oct_11,203,001,0,recog,14,REFECTORY,LF,target,left,aqua,imageability,conservative,no,z,1,2.15953520224,1,23
2019_Oct_11,203,001,0,recog,15,AROUND,HF,target,right,yellow,pleasantness,liberal,no,z,1,1.57322881641,3,26
2019_Oct_11,203,001,0,recog,16,QUALITY,HF,target,right,yellow,pleasantness,conservative,no,z,1,0.733395680795,1,27
2019_Oct_11,203,001,0,recog,17,PAGANISM,LF,target,left,aqua,imageability,conservative,no,z,1,0.720139574238,1,28
2019_Oct_11,203,001,0,recog,18,TEXTURES,LF,target,left,aqua,imageability,liberal,no,z,1,0.640189403327,3,31
2019_Oct_11,203,001,0,recog,19,EYEBALL,LF,lure,-,-,-,liberal,no,m,1,0.920054961572,1,32
2019_Oct_11,203,001,0,recog,20,SUPPORT,HF,target,right,yellow,pleasantness,liberal,no,z,1,0.999991201456,3,35
2019_Oct_11,203,001,0,recog,21,WREATH,LF,lure,-,-,-,conservative,no,m,1,1.18659769097,3,38
2019_Oct_11,203,001,0,recog,22,SUMMER,HF,lure,-,-,-,conservative,no,m,1,1.10637586501,3,41
2019_Oct_11,203,001,0,recog,23,WEEKS,HF,lure,-,-,-,conservative,no,m,1,3.38548584827,3,44
2019_Oct_11,203,001,0,recog,24,TAILED,LF,lure,-,-,-,liberal,no,m,1,1.93303208096,1,45
2019_Oct_11,203,001,0,recog,25,INACTION,LF,target,right,yellow,pleasantness,conservative,no,z,1,3.67905183956,1,46
2019_Oct_11,203,001,0,recog,26,ECONOMIC,HF,target,left,aqua,imageability,conservative,no,z,1,1.06662807527,1,47
2019_Oct_11,203,001,0,recog,27,POTASH,LF,target,right,yellow,pleasantness,liberal,no,m,0,1.59977219103,-3,44
2019_Oct_11,203,001,0,recog,28,JUTTED,LF,target,left,aqua,imageability,liberal,yes,z,1,2.26615669327,3,47
2019_Oct_11,203,001,0,recog,29,EITHER,HF,target,left,aqua,imageability,liberal,no,z,1,1.38656550296,3,50
2019_Oct_11,203,001,0,recog,30,NIPPED,LF,target,right,yellow,pleasantness,conservative,no,z,1,1.51997269518,1,51
2019_Oct_11,203,001,0,recog,31,RIVER,HF,target,left,aqua,imageability,conservative,no,z,1,0.853367496125,1,52
2019_Oct_11,203,001,0,recog,32,EXHALED,LF,target,left,aqua,imageability,conservative,no,z,1,1.1732612977,1,53
2019_Oct_11,203,001,0,recog,33,MOTHER,HF,lure,-,-,-,conservative,no,m,1,1.29317408946,3,56
2019_Oct_11,203,001,0,recog,34,PAWNS,LF,lure,-,-,-,conservative,no,m,1,2.23946227698,3,59
2019_Oct_11,203,001,0,recog,35,LACING,LF,target,right,yellow,pleasantness,liberal,no,z,1,1.306539078,3,62
2019_Oct_11,203,001,0,recog,36,RUNNING,HF,target,right,yellow,pleasantness,liberal,no,z,1,0.826585460992,3,65
2019_Oct_11,203,001,0,recog,37,EASILY,HF,lure,-,-,-,liberal,no,z,0,0.906650012978,-1,64
2019_Oct_11,203,001,0,recog,38,EDUCATION,HF,lure,-,-,-,conservative,no,m,1,2.74596110164,3,67
2019_Oct_11,203,001,0,recog,39,FARAWAY,LF,lure,-,-,-,conservative,no,m,1,2.39075360997,3,70
2019_Oct_11,203,001,0,recog,40,SIPHON,LF,target,left,aqua,imageability,liberal,no,z,1,1.45311292491,3,73
2019_Oct_11,203,001,0,recog,41,HIGHER,HF,target,left,aqua,imageability,liberal,no,z,1,1.066635774,3,76
2019_Oct_11,203,001,0,recog,42,FRIEND,HF,target,left,aqua,imageability,conservative,no,z,1,1.09330159503,1,77
2019_Oct_11,203,001,0,recog,43,POSITION,HF,lure,-,-,-,liberal,no,z,0,1.53309169109,-1,76
2019_Oct_11,203,001,0,recog,44,OVARIES,LF,lure,-,-,-,liberal,no,m,1,1.19985599716,1,77
2019_Oct_11,203,001,0,recog,45,RIOTERS,LF,target,right,yellow,pleasantness,liberal,no,m,0,1.59974946146,-3,74
2019_Oct_11,203,001,0,recog,46,HOWEVER,HF,lure,-,-,-,liberal,no,m,1,1.45288379616,1,75
2019_Oct_11,203,001,0,recog,47,PUMPKIN,LF,target,right,yellow,pleasantness,conservative,no,z,1,0.786765449877,1,76
2019_Oct_11,203,001,0,recog,48,FRACTIONS,LF,target,right,yellow,pleasantness,liberal,no,z,1,0.693414363037,3,79
2019_Oct_11,203,001,0,recog,49,PILGRIM,LF,lure,-,-,-,conservative,no,m,1,1.46646911491,3,82
2019_Oct_11,203,001,0,recog,50,CHIEF,HF,target,right,yellow,pleasantness,conservative,yes,m,0,0.720097781154,-1,81
2019_Oct_11,203,001,0,recog,51,NOTHING,HF,lure,-,-,-,conservative,no,z,0,5.38496893381,-3,78
2019_Oct_11,203,001,0,recog,52,WELCOMES,LF,target,right,yellow,pleasantness,liberal,no,z,1,1.39978788177,3,81
2019_Oct_11,203,001,0,recog,53,OFFER,HF,lure,-,-,-,liberal,no,m,1,2.51933516734,1,82
2019_Oct_11,203,001,0,recog,54,KITCHEN,HF,lure,-,-,-,liberal,no,z,0,4.10537503061,-1,81
2019_Oct_11,203,001,0,recog,55,SOCIAL,HF,target,right,yellow,pleasantness,liberal,no,z,1,1.55974541413,3,84
2019_Oct_11,203,001,0,recog,56,SOPHISTS,LF,target,right,yellow,pleasantness,conservative,no,z,1,1.41313490661,1,85
2019_Oct_11,203,001,0,recog,57,SAYING,HF,target,right,yellow,pleasantness,conservative,no,z,1,0.799804525678,1,86
2019_Oct_11,203,001,0,recog,58,ATTACK,HF,lure,-,-,-,liberal,no,m,1,1.01324730801,1,87
2019_Oct_11,203,001,0,recog,59,FUTURE,HF,target,left,aqua,imageability,conservative,no,z,1,3.82559305854,1,88
2019_Oct_11,203,001,0,recog,60,WAKED,LF,target,left,aqua,imageability,liberal,no,z,1,1.02639673222,3,91
2019_Oct_11,203,001,0,recog,61,MEANS,HF,lure,-,-,-,liberal,no,m,1,0.95989220317,1,92
2019_Oct_11,203,001,0,recog,62,DIPLOMAS,LF,lure,-,-,-,conservative,no,m,1,1.91939580397,3,95
2019_Oct_11,203,001,0,recog,63,SALAMI,LF,lure,-,-,-,liberal,no,m,1,3.039190182,1,96
2019_Oct_11,203,001,0,recog,64,PERHAPS,HF,lure,-,-,-,conservative,no,m,1,2.01293459309,3,99
2019_Oct_11,203,001,0,recog,65,KIPPERS,LF,lure,-,-,-,conservative,no,m,1,1.29317555588,3,102
2019_Oct_11,203,001,0,recog,66,AREAS,HF,lure,-,-,-,liberal,no,m,1,1.07993404025,1,103
2019_Oct_11,203,001,0,recog,67,GUMMED,LF,lure,-,-,-,conservative,no,m,1,1.39984543891,3,106
2019_Oct_11,203,001,0,recog,68,GARDEN,HF,target,right,yellow,pleasantness,conservative,no,z,1,0.906442880585,1,107
2019_Oct_11,203,001,0,recog,69,BUILDING,HF,lure,-,-,-,liberal,no,z,0,2.07960336163,-1,106
2019_Oct_11,203,001,0,recog,70,NUCLEAR,HF,lure,-,-,-,conservative,no,m,1,1.77307931448,3,109
2019_Oct_11,203,001,0,recog,71,TINGLING,LF,target,left,aqua,imageability,liberal,no,z,1,1.02664529109,3,112
2019_Oct_11,203,001,0,recog,72,EVIDENCE,HF,target,left,aqua,imageability,liberal,no,z,1,1.18637076185,3,115
2019_Oct_11,203,001,0,recog,73,TYRANTS,LF,lure,-,-,-,liberal,no,m,1,1.89315341288,1,116
2019_Oct_11,203,001,0,recog,74,FEELING,HF,target,right,yellow,pleasantness,conservative,no,z,1,1.47974795104,1,117
2019_Oct_11,203,001,0,recog,75,ADHERE,LF,target,right,yellow,pleasantness,conservative,no,z,1,2.13285728321,1,118
2019_Oct_11,203,001,0,recog,76,HARDLY,HF,target,right,yellow,pleasantness,conservative,no,z,1,0.893344781217,1,119
2019_Oct_11,203,001,0,recog,77,HOVELS,LF,lure,-,-,-,conservative,no,m,1,0.999939876615,3,122
2019_Oct_11,203,001,0,recog,78,GESTURING,LF,target,right,yellow,pleasantness,conservative,no,z,1,0.773371499462,1,123
2019_Oct_11,203,001,0,recog,79,TIGHTNESS,LF,lure,-,-,-,liberal,no,m,1,2.89257747485,1,124
2019_Oct_11,203,001,0,recog,80,GETTING,HF,target,left,aqua,imageability,liberal,no,z,1,1.37292519331,3,127
2019_Oct_11,203,001,0,recog,81,FREEDOM,HF,lure,-,-,-,conservative,no,m,1,4.27866748982,3,130
2019_Oct_11,203,001,0,recog,82,TWOFOLD,LF,lure,-,-,-,liberal,no,m,1,1.78611839028,1,131
2019_Oct_11,203,001,0,recog,83,FAKING,LF,lure,-,-,-,liberal,no,m,1,1.79943425361,1,132
2019_Oct_11,203,001,0,recog,84,SCHOOL,HF,target,left,aqua,imageability,liberal,yes,z,1,1.42652005848,3,135
2019_Oct_11,203,001,0,recog,85,WHITE,HF,lure,-,-,-,conservative,no,m,1,1.47980440836,3,138
2019_Oct_11,203,001,0,recog,86,BROUGHT,HF,lure,-,-,-,liberal,no,m,1,2.01292542794,1,139
2019_Oct_11,203,001,0,recog,87,CLUBBED,LF,lure,-,-,-,liberal,no,m,1,1.71966518607,1,140
2019_Oct_11,203,001,0,recog,88,RESEARCH,HF,target,left,aqua,imageability,conservative,no,z,1,2.45270525904,1,141
2019_Oct_11,203,001,0,recog,89,ARTIFACTS,LF,lure,-,-,-,liberal,no,m,1,1.35960346428,1,142
2019_Oct_11,203,001,0,recog,90,LETTER,HF,target,right,yellow,pleasantness,liberal,no,z,1,3.31911293078,3,145
2019_Oct_11,203,001,0,recog,91,EMULATION,LF,lure,-,-,-,liberal,no,m,1,1.11994358667,1,146
2019_Oct_11,203,001,0,recog,92,THOUSAND,HF,target,right,yellow,pleasantness,liberal,no,z,1,1.99955860637,3,149
2019_Oct_11,203,001,0,recog,93,LADDIE,LF,target,left,aqua,imageability,liberal,no,z,1,1.02664272485,3,152
2019_Oct_11,203,001,0,recog,94,DRYER,LF,target,left,aqua,imageability,conservative,no,z,1,1.02632451084,1,153
2019_Oct_11,203,001,0,recog,95,WASHBASIN,LF,target,left,aqua,imageability,conservative,no,z,1,2.13287341388,1,154
2019_Oct_11,203,001,1,source,0,RAPACIOUS,LF,target,left,aqua,imageability,conservative,no,2,1,2.37284050732,-,-
2019_Oct_11,203,001,1,source,1,CHOICE,HF,target,left,aqua,imageability,conservative,no,3,1,1.85295139831,-,-
2019_Oct_11,203,001,1,source,2,ASHEN,LF,target,left,aqua,imageability,liberal,no,3,1,1.02663465952,-,-
2019_Oct_11,203,001,1,source,3,ROUND,HF,target,left,aqua,imageability,conservative,no,3,1,2.02623945824,-,-
2019_Oct_11,203,001,1,source,4,LEARN,HF,target,right,yellow,pleasantness,liberal,no,9,1,1.25353518171,-,-
2019_Oct_11,203,001,1,source,5,PUBLIC,HF,target,right,yellow,pleasantness,conservative,no,2,0,1.29333722913,-,-
2019_Oct_11,203,001,1,source,6,CASES,HF,target,right,yellow,pleasantness,liberal,yes,7,1,1.61282299822,-,-
2019_Oct_11,203,001,1,source,7,FUSELAGE,LF,target,right,yellow,pleasantness,conservative,no,8,1,1.97304822629,-,-
2019_Oct_11,203,001,1,source,8,EIGHT,HF,target,right,yellow,pleasantness,liberal,no,9,1,1.38647091861,-,-
2019_Oct_11,203,001,1,source,9,SPACE,HF,target,right,yellow,pleasantness,liberal,yes,8,1,0.786718524308,-,-
2019_Oct_11,203,001,1,source,10,SCENARIOS,LF,target,right,yellow,pleasantness,liberal,no,9,1,1.27964669446,-,-
2019_Oct_11,203,001,1,source,11,HAVING,HF,target,left,aqua,imageability,conservative,no,1,1,1.10663652188,-,-
2019_Oct_11,203,001,1,source,12,USUAL,HF,target,right,yellow,pleasantness,conservative,no,2,0,1.47982347188,-,-
2019_Oct_11,203,001,1,source,13,IRRIGATED,LF,target,left,aqua,imageability,conservative,no,1,1,2.83924326655,-,-
2019_Oct_11,203,001,1,source,14,AFRAID,HF,target,right,yellow,pleasantness,conservative,no,9,1,1.5596156356,-,-
2019_Oct_11,203,001,1,source,15,NAPPY,LF,target,left,aqua,imageability,liberal,no,1,1,1.06661891012,-,-
2019_Oct_11,203,001,1,source,16,PLYWOOD,LF,target,right,yellow,pleasantness,conservative,no,9,1,1.08011147755,-,-
2019_Oct_11,203,001,1,source,17,TRIED,HF,target,left,aqua,imageability,conservative,no,1,1,1.21322355194,-,-
2019_Oct_11,203,001,1,source,18,THRASH,LF,target,right,yellow,pleasantness,conservative,no,8,1,1.65309613436,-,-
2019_Oct_11,203,001,1,source,19,KNEAD,LF,target,left,aqua,imageability,liberal,no,2,1,2.29298785361,-,-
2019_Oct_11,203,001,1,source,20,DEVELOPED,HF,target,left,aqua,imageability,conservative,no,1,1,1.35988208484,-,-
2019_Oct_11,203,001,1,source,21,PRIVATE,HF,target,left,aqua,imageability,liberal,no,1,1,1.29307547245,-,-
2019_Oct_11,203,001,1,source,22,WANTED,HF,target,right,yellow,pleasantness,conservative,no,1,0,1.05327628455,-,-
2019_Oct_11,203,001,1,source,23,COMES,HF,target,left,aqua,imageability,liberal,no,1,1,0.680172554115,-,-
2019_Oct_11,203,001,1,source,24,GORGED,LF,target,right,yellow,pleasantness,liberal,no,2,0,2.38588508222,-,-
2019_Oct_11,203,001,1,source,25,MATERIAL,HF,target,right,yellow,pleasantness,liberal,no,8,1,1.59971316746,-,-
2019_Oct_11,203,001,1,source,26,POLICE,HF,target,left,aqua,imageability,liberal,no,1,1,0.986732528658,-,-
2019_Oct_11,203,001,1,source,27,ROOFED,LF,target,right,yellow,pleasantness,liberal,yes,3,0,1.21324921436,-,-
2019_Oct_11,203,001,1,source,28,SQUADRONS,LF,target,left,aqua,imageability,conservative,no,1,1,2.14618927721,-,-
2019_Oct_11,203,001,1,source,29,HEEDED,LF,target,right,yellow,pleasantness,liberal,no,3,0,2.74596806715,-,-
2019_Oct_11,203,001,1,source,30,DEGREE,HF,target,left,aqua,imageability,liberal,no,3,1,2.14597591252,-,-
2019_Oct_11,203,001,1,source,31,KNOWLEDGE,HF,target,right,yellow,pleasantness,conservative,no,9,1,0.893352846549,-,-
2019_Oct_11,203,001,1,source,32,AIRBED,LF,target,right,yellow,pleasantness,conservative,no,9,1,1.26632276579,-,-
2019_Oct_11,203,001,1,source,33,WIPERS,LF,target,right,yellow,pleasantness,liberal,yes,8,1,0.519345432309,-,-
2019_Oct_11,203,001,1,source,34,FANATICS,LF,target,right,yellow,pleasantness,liberal,no,8,1,1.34653139394,-,-
2019_Oct_11,203,001,1,source,35,MACARONI,LF,target,left,aqua,imageability,conservative,no,1,1,2.25292368289,-,-
2019_Oct_11,203,001,1,source,36,MICROCOSM,LF,target,right,yellow,pleasantness,conservative,no,9,1,1.46624951791,-,-
2019_Oct_11,203,001,1,source,37,CUSTODIAN,LF,target,left,aqua,imageability,conservative,no,1,1,1.54616889392,-,-
2019_Oct_11,203,001,1,source,38,LESSENED,LF,target,right,yellow,pleasantness,conservative,no,9,1,1.13325615055,-,-
2019_Oct_11,203,001,1,source,39,DURING,HF,target,left,aqua,imageability,liberal,no,1,1,1.46653290436,-,-
2019_Oct_11,203,001,1,source,40,METABOLIC,LF,target,left,aqua,imageability,liberal,no,1,1,1.8529997903,-,-
2019_Oct_11,203,001,1,source,41,WARDROBES,LF,target,left,aqua,imageability,conservative,no,1,1,0.999999633394,-,-
2019_Oct_11,203,001,1,source,42,ERRANT,LF,target,left,aqua,imageability,liberal,no,2,1,1.15995130006,-,-
2019_Oct_11,203,001,1,source,43,MERELY,HF,target,right,yellow,pleasantness,conservative,no,7,1,1.63975937448,-,-
2019_Oct_11,203,001,1,source,44,SPEAK,HF,target,left,aqua,imageability,liberal,no,1,1,1.08004878793,-,-
2019_Oct_11,203,001,1,source,45,CURATOR,LF,target,left,aqua,imageability,liberal,no,1,1,1.63971024928,-,-
2019_Oct_11,203,001,1,source,46,BECAME,HF,target,right,yellow,pleasantness,liberal,no,9,1,1.47993968598,-,-
2019_Oct_11,203,001,1,source,47,GROUND,HF,target,left,aqua,imageability,conservative,no,9,0,1.14694631862,-,-
2019_Oct_11,203,001,1,recog,0,ALONE,HF,lure,-,-,-,conservative,no,m,1,1.75969306279,3,157
2019_Oct_11,203,001,1,recog,1,SCENARIOS,LF,target,right,yellow,pleasantness,liberal,no,z,1,3.69227568478,3,160
2019_Oct_11,203,001,1,recog,2,RECENT,HF,lure,-,-,-,conservative,no,m,1,0.999962606188,3,163
2019_Oct_11,203,001,1,recog,3,TALKING,HF,lure,-,-,-,liberal,no,m,1,2.2261808746,1,164
2019_Oct_11,203,001,1,recog,4,IRRIGATED,LF,target,left,aqua,imageability,conservative,no,z,1,1.93294592855,1,165
2019_Oct_11,203,001,1,recog,5,PUCKERED,LF,lure,-,-,-,conservative,no,m,1,0.946670190972,3,168
2019_Oct_11,203,001,1,recog,6,MATERIAL,HF,target,right,yellow,pleasantness,liberal,no,z,1,1.19994104975,3,171
2019_Oct_11,203,001,1,recog,7,THRASH,LF,target,right,yellow,pleasantness,conservative,no,z,1,1.09330526109,1,172
2019_Oct_11,203,001,1,recog,8,COMES,HF,target,left,aqua,imageability,liberal,no,z,1,0.693479985512,3,175
2019_Oct_11,203,001,1,recog,9,PRIVATE,HF,target,left,aqua,imageability,liberal,no,z,1,0.706488266408,3,178
2019_Oct_11,203,001,1,recog,10,BEQUEST,LF,lure,-,-,-,liberal,no,m,1,1.49311110655,1,179
2019_Oct_11,203,001,1,recog,11,UNZIPPED,LF,lure,-,-,-,liberal,no,m,1,1.17330749005,1,180
2019_Oct_11,203,001,1,recog,12,MORNING,HF,lure,-,-,-,conservative,no,m,1,1.91942476585,3,183
2019_Oct_11,203,001,1,recog,13,BEGAN,HF,lure,-,-,-,liberal,no,m,1,2.15967194628,1,184
2019_Oct_11,203,001,1,recog,14,KIBBUTZIM,LF,lure,-,-,-,conservative,no,m,1,1.29329726908,3,187
2019_Oct_11,203,001,1,recog,15,STOOD,HF,lure,-,-,-,liberal,no,m,1,1.02660459783,1,188
2019_Oct_11,203,001,1,recog,16,OPENED,HF,lure,-,-,-,conservative,no,m,1,1.43979669497,3,191
2019_Oct_11,203,001,1,recog,17,MAKES,HF,lure,-,-,-,conservative,no,m,1,1.31994109375,3,194
2019_Oct_11,203,001,1,recog,18,GORGED,LF,target,right,yellow,pleasantness,liberal,no,m,0,1.75963990492,-3,191
2019_Oct_11,203,001,1,recog,19,SHIELDING,LF,lure,-,-,-,conservative,no,z,0,1.58681193552,-3,188
2019_Oct_11,203,001,1,recog,20,INDEED,HF,lure,-,-,-,conservative,no,m,1,1.97301523175,3,191
2019_Oct_11,203,001,1,recog,21,FIELD,HF,lure,-,-,-,liberal,no,m,1,2.35956460404,1,192
2019_Oct_11,203,001,1,recog,22,CURATOR,LF,target,left,aqua,imageability,liberal,no,z,1,1.41316900097,3,195
2019_Oct_11,203,001,1,recog,23,ROOFED,LF,target,right,yellow,pleasantness,liberal,no,z,1,1.39982564218,3,198
2019_Oct_11,203,001,1,recog,24,MACARONI,LF,target,left,aqua,imageability,conservative,yes,m,0,1.21320595485,-1,197
2019_Oct_11,203,001,1,recog,25,AFRAID,HF,target,right,yellow,pleasantness,conservative,no,z,1,4.85177752588,1,198
2019_Oct_11,203,001,1,recog,26,METABOLIC,LF,target,left,aqua,imageability,liberal,no,z,1,0.88000985437,3,201
2019_Oct_11,203,001,1,recog,27,ERRANT,LF,target,left,aqua,imageability,liberal,no,z,1,0.746747838125,3,204
2019_Oct_11,203,001,1,recog,28,REPORT,HF,lure,-,-,-,conservative,no,m,1,1.17342517058,3,207
2019_Oct_11,203,001,1,recog,29,INSIDE,HF,lure,-,-,-,liberal,no,z,0,3.70554645558,-1,206
2019_Oct_11,203,001,1,recog,30,KNEAD,LF,target,left,aqua,imageability,liberal,no,z,1,4.46532127151,3,209
2019_Oct_11,203,001,1,recog,31,FERRET,LF,lure,-,-,-,liberal,no,z,0,1.13324551897,-1,208
2019_Oct_11,203,001,1,recog,32,AIRBED,LF,target,right,yellow,pleasantness,conservative,no,z,1,1.83939577465,1,209
2019_Oct_11,203,001,1,recog,33,BUGGED,LF,lure,-,-,-,conservative,no,m,1,1.34628723434,3,212
2019_Oct_11,203,001,1,recog,34,SLACKEN,LF,lure,-,-,-,conservative,no,m,1,1.07994760467,3,215
2019_Oct_11,203,001,1,recog,35,ADDED,HF,lure,-,-,-,liberal,no,m,1,1.39995981998,1,216
2019_Oct_11,203,001,1,recog,36,DEVELOPED,HF,target,left,aqua,imageability,conservative,no,m,0,1.01327810292,-1,215
2019_Oct_11,203,001,1,recog,37,POLICE,HF,target,left,aqua,imageability,liberal,no,z,1,2.4261123926,3,218
2019_Oct_11,203,001,1,recog,38,KNOWLEDGE,HF,target,right,yellow,pleasantness,conservative,no,z,1,1.01223547544,1,219
2019_Oct_11,203,001,1,recog,39,EIGHT,HF,target,right,yellow,pleasantness,liberal,no,z,1,1.04010339756,3,222
2019_Oct_11,203,001,1,recog,40,OPPOSES,LF,lure,-,-,-,liberal,no,m,1,1.33320233279,1,223
2019_Oct_11,203,001,1,recog,41,PUBLIC,HF,target,right,yellow,pleasantness,conservative,yes,m,0,1.19965436386,-1,222
2019_Oct_11,203,001,1,recog,42,MERELY,HF,target,right,yellow,pleasantness,conservative,no,z,1,3.17250865557,1,223
2019_Oct_11,203,001,1,recog,43,UNKEMPT,LF,lure,-,-,-,liberal,no,m,1,1.26655922667,1,224
2019_Oct_11,203,001,1,recog,44,BEHIND,HF,lure,-,-,-,conservative,no,m,1,2.31950299957,3,227
2019_Oct_11,203,001,1,recog,45,DEGREE,HF,target,left,aqua,imageability,liberal,no,z,1,2.21283458297,3,230
2019_Oct_11,203,001,1,recog,46,OUTSIDE,HF,lure,-,-,-,liberal,no,m,1,3.33246105544,1,231
2019_Oct_11,203,001,1,recog,47,GROUND,HF,target,left,aqua,imageability,conservative,no,z,1,0.866473294219,1,232
2019_Oct_11,203,001,1,recog,48,CERTAIN,HF,lure,-,-,-,liberal,no,m,1,4.59849640213,1,233
2019_Oct_11,203,001,1,recog,49,ENVIRONS,LF,lure,-,-,-,liberal,no,m,1,3.13246428158,1,234
2019_Oct_11,203,001,1,recog,50,NAPPY,LF,target,left,aqua,imageability,liberal,no,z,1,0.733502363142,3,237
2019_Oct_11,203,001,1,recog,51,DARKEN,LF,lure,-,-,-,conservative,no,m,1,1.30655484206,3,240
2019_Oct_11,203,001,1,recog,52,WIPERS,LF,target,right,yellow,pleasantness,liberal,no,m,0,2.53276724478,-3,237
2019_Oct_11,203,001,1,recog,53,ADULATION,LF,lure,-,-,-,conservative,no,m,1,1.38651637776,3,240
2019_Oct_11,203,001,1,recog,54,SCRABBLE,LF,lure,-,-,-,liberal,no,m,1,1.61306165873,1,241
2019_Oct_11,203,001,1,recog,55,SQUADRONS,LF,target,left,aqua,imageability,conservative,no,m,0,2.89257527521,-1,240
2019_Oct_11,203,001,1,recog,56,HEEDED,LF,target,right,yellow,pleasantness,liberal,no,z,1,2.02630691375,3,243
2019_Oct_11,203,001,1,recog,57,SOUND,HF,lure,-,-,-,liberal,yes,z,0,1.04027826862,-1,242
2019_Oct_11,203,001,1,recog,58,ROUND,HF,target,left,aqua,imageability,conservative,no,z,1,2.26620141921,1,243
2019_Oct_11,203,001,1,recog,59,CASES,HF,target,right,yellow,pleasantness,liberal,no,z,1,0.799880779727,3,246
2019_Oct_11,203,001,1,recog,60,ABHORRENT,LF,lure,-,-,-,conservative,no,m,1,1.83971325545,3,249
2019_Oct_11,203,001,1,recog,61,PLYWOOD,LF,target,right,yellow,pleasantness,conservative,no,z,1,1.35965698876,1,250
2019_Oct_11,203,001,1,recog,62,DURING,HF,target,left,aqua,imageability,liberal,no,z,1,3.23930793585,3,253
2019_Oct_11,203,001,1,recog,63,TRIED,HF,target,left,aqua,imageability,conservative,no,z,1,0.99999450091,1,254
2019_Oct_11,203,001,1,recog,64,BUNGALOWS,LF,lure,-,-,-,liberal,no,m,1,1.75964393758,1,255
2019_Oct_11,203,001,1,recog,65,ASHEN,LF,target,left,aqua,imageability,liberal,no,z,1,1.18662738606,3,258
2019_Oct_11,203,001,1,recog,66,ULCER,LF,lure,-,-,-,conservative,no,m,1,3.8389045226,3,261
2019_Oct_11,203,001,1,recog,67,WANTED,HF,target,right,yellow,pleasantness,conservative,no,z,1,1.29312679729,1,262
2019_Oct_11,203,001,1,recog,68,LEARN,HF,target,right,yellow,pleasantness,liberal,no,z,1,0.986650042306,3,265
2019_Oct_11,203,001,1,recog,69,USUAL,HF,target,right,yellow,pleasantness,conservative,no,z,1,2.66600469842,1,266
2019_Oct_11,203,001,1,recog,70,BECAME,HF,target,right,yellow,pleasantness,liberal,no,z,1,1.15989081007,3,269
2019_Oct_11,203,001,1,recog,71,WARDROBES,LF,target,left,aqua,imageability,conservative,no,z,1,1.39998914846,1,270
2019_Oct_11,203,001,1,recog,72,ODOURS,LF,lure,-,-,-,conservative,no,m,1,1.23991246915,3,273
2019_Oct_11,203,001,1,recog,73,DECIDED,HF,lure,-,-,-,liberal,no,z,0,2.19832175103,-1,272
2019_Oct_11,203,001,1,recog,74,MICROCOSM,LF,target,right,yellow,pleasantness,conservative,no,z,1,2.21297096041,1,273
2019_Oct_11,203,001,1,recog,75,ACCORDING,HF,lure,-,-,-,conservative,no,m,1,1.29321514933,3,276
2019_Oct_11,203,001,1,recog,76,CANNOT,HF,lure,-,-,-,liberal,no,m,1,2.21285401309,1,277
2019_Oct_11,203,001,1,recog,77,REACHED,HF,lure,-,-,-,conservative,no,m,1,2.75933122266,3,280
2019_Oct_11,203,001,1,recog,78,HAVING,HF,target,left,aqua,imageability,conservative,no,z,1,0.746832524112,1,281
2019_Oct_11,203,001,1,recog,79,FANATICS,LF,target,right,yellow,pleasantness,liberal,no,z,1,0.933341863033,3,284
2019_Oct_11,203,001,1,recog,80,PUTTS,LF,lure,-,-,-,liberal,no,m,1,0.826867747617,1,285
2019_Oct_11,203,001,1,recog,81,NUMBER,HF,lure,-,-,-,conservative,no,z,0,3.06593812277,-3,282
2019_Oct_11,203,001,1,recog,82,DONATE,LF,lure,-,-,-,conservative,no,z,0,5.14499414164,-3,279
2019_Oct_11,203,001,1,recog,83,LESSENED,LF,target,right,yellow,pleasantness,conservative,no,z,1,1.06659728037,1,280
2019_Oct_11,203,001,1,recog,84,DEEPEN,LF,lure,-,-,-,liberal,yes,z,0,1.46638552874,-1,279
2019_Oct_11,203,001,1,recog,85,SPACE,HF,target,right,yellow,pleasantness,liberal,no,z,1,4.58521903242,3,282
2019_Oct_11,203,001,1,recog,86,LEOPARDS,LF,lure,-,-,-,liberal,no,m,1,1.66636177267,1,283
2019_Oct_11,203,001,1,recog,87,CUSTODIAN,LF,target,left,aqua,imageability,conservative,no,z,1,1.18637186167,1,284
2019_Oct_11,203,001,1,recog,88,FUSELAGE,LF,target,right,yellow,pleasantness,conservative,no,m,0,3.07896913324,-1,283
2019_Oct_11,203,001,1,recog,89,RAPACIOUS,LF,target,left,aqua,imageability,conservative,no,z,1,3.09252988939,1,284
2019_Oct_11,203,001,1,recog,90,BEYOND,HF,lure,-,-,-,conservative,no,z,0,0.999979470063,-3,281
2019_Oct_11,203,001,1,recog,91,NEBULOUS,LF,lure,-,-,-,liberal,no,m,1,1.63979163581,1,282
2019_Oct_11,203,001,1,recog,92,PHANTOMS,LF,lure,-,-,-,conservative,no,m,1,1.01333126079,3,285
2019_Oct_11,203,001,1,recog,93,SINCE,HF,lure,-,-,-,liberal,no,m,1,1.14659511006,1,286
2019_Oct_11,203,001,1,recog,94,CHOICE,HF,target,left,aqua,imageability,conservative,no,m,0,1.57309537182,-1,285
2019_Oct_11,203,001,1,recog,95,SPEAK,HF,target,left,aqua,imageability,liberal,no,z,1,0.973214665414,3,288
2019_Oct_11,203,001,2,source,0,RADIAL,LF,target,left,aqua,imageability,conservative,no,2,1,2.02623175952,-,-
2019_Oct_11,203,001,2,source,1,TEMERITY,LF,target,right,yellow,pleasantness,liberal,no,3,0,3.83894521586,-,-
2019_Oct_11,203,001,2,source,2,FOUND,HF,target,right,yellow,pleasantness,conservative,no,8,1,1.65300741571,-,-
2019_Oct_11,203,001,2,source,3,KRAALS,LF,target,left,aqua,imageability,liberal,no,3,1,1.13330564236,-,-
2019_Oct_11,203,001,2,source,4,ENTIRELY,HF,target,right,yellow,pleasantness,liberal,no,9,1,1.1066504529,-,-
2019_Oct_11,203,001,2,source,5,SENSE,HF,target,left,aqua,imageability,conservative,no,1,1,2.09282610704,-,-
2019_Oct_11,203,001,2,source,6,REWRITE,LF,target,left,aqua,imageability,conservative,no,1,1,0.999992301274,-,-
2019_Oct_11,203,001,2,source,7,NUANCE,LF,target,left,aqua,imageability,conservative,no,1,1,0.826972230328,-,-
2019_Oct_11,203,001,2,source,8,CLEAR,HF,target,right,yellow,pleasantness,conservative,no,9,1,2.61265032679,-,-
2019_Oct_11,203,001,2,source,9,NEMESIS,LF,target,left,aqua,imageability,conservative,no,7,0,1.53283873295,-,-
2019_Oct_11,203,001,2,source,10,AVOCADO,LF,target,right,yellow,pleasantness,conservative,no,9,1,0.880115436899,-,-
2019_Oct_11,203,001,2,source,11,ACTION,HF,target,right,yellow,pleasantness,liberal,no,9,1,0.746809427933,-,-
2019_Oct_11,203,001,2,source,12,SKETCHY,LF,target,right,yellow,pleasantness,conservative,no,9,1,1.1465731137,-,-
2019_Oct_11,203,001,2,source,13,HOSPITAL,HF,target,left,aqua,imageability,conservative,yes,8,0,1.05332394333,-,-
2019_Oct_11,203,001,2,source,14,LOWED,LF,target,left,aqua,imageability,liberal,no,2,1,2.21283201673,-,-
2019_Oct_11,203,001,2,source,15,PASSED,HF,target,right,yellow,pleasantness,conservative,no,1,0,2.55935461212,-,-
2019_Oct_11,203,001,2,source,16,GABLE,LF,target,left,aqua,imageability,liberal,no,3,1,1.93304747841,-,-
2019_Oct_11,203,001,2,source,17,MIDDLE,HF,target,left,aqua,imageability,conservative,no,7,0,1.9462749897,-,-
2019_Oct_11,203,001,2,source,18,UNTIL,HF,target,right,yellow,pleasantness,liberal,no,9,1,2.99930124895,-,-
2019_Oct_11,203,001,2,source,19,MILES,HF,target,left,aqua,imageability,conservative,no,8,0,1.29321588255,-,-
2019_Oct_11,203,001,2,source,20,REUNITED,LF,target,right,yellow,pleasantness,conservative,yes,8,1,0.841442535975,-,-
2019_Oct_11,203,001,2,source,21,FURTHER,HF,target,right,yellow,pleasantness,conservative,no,7,1,3.06587213369,-,-
2019_Oct_11,203,001,2,source,22,ACROSS,HF,target,right,yellow,pleasantness,conservative,no,9,1,0.826466680647,-,-
2019_Oct_11,203,001,2,source,23,QUICKLY,HF,target,left,aqua,imageability,liberal,no,2,1,1.09326420122,-,-
2019_Oct_11,203,001,2,source,24,THWART,LF,target,left,aqua,imageability,conservative,no,1,1,1.11969282816,-,-
2019_Oct_11,203,001,2,source,25,UNDER,HF,target,left,aqua,imageability,conservative,no,1,1,1.82631453915,-,-
2019_Oct_11,203,001,2,source,26,PAUNCH,LF,target,right,yellow,pleasantness,liberal,no,9,1,0.8400461337,-,-
2019_Oct_11,203,001,2,source,27,KANGAROO,LF,target,right,yellow,pleasantness,conservative,no,1,0,1.07998499848,-,-
2019_Oct_11,203,001,2,source,28,LENGTHEN,LF,target,left,aqua,imageability,liberal,no,1,1,0.920062293692,-,-
2019_Oct_11,203,001,2,source,29,BINDINGS,LF,target,right,yellow,pleasantness,liberal,no,8,1,2.03954359019,-,-
2019_Oct_11,203,001,2,source,30,RIMMED,LF,target,right,yellow,pleasantness,liberal,no,2,0,2.2794780557,-,-
2019_Oct_11,203,001,2,source,31,LODGERS,LF,target,left,aqua,imageability,conservative,no,8,0,1.39985863672,-,-
2019_Oct_11,203,001,2,source,32,EBONY,LF,target,left,aqua,imageability,liberal,no,3,1,1.62645634236,-,-
2019_Oct_11,203,001,2,source,33,SITTING,HF,target,right,yellow,pleasantness,liberal,no,9,1,2.21289470636,-,-
2019_Oct_11,203,001,2,source,34,SNIGGERED,LF,target,right,yellow,pleasantness,conservative,no,7,1,1.26634512876,-,-
2019_Oct_11,203,001,2,source,35,LAPELS,LF,target,right,yellow,pleasantness,conservative,no,1,0,0.999763905733,-,-
2019_Oct_11,203,001,2,source,36,BOLDNESS,LF,target,right,yellow,pleasantness,liberal,no,1,0,2.02603415888,-,-
2019_Oct_11,203,001,2,source,37,HANDS,HF,target,left,aqua,imageability,liberal,no,1,1,0.759825774162,-,-
2019_Oct_11,203,001,2,source,38,WADDLED,LF,target,right,yellow,pleasantness,liberal,no,2,0,0.999712580892,-,-
2019_Oct_11,203,001,2,source,39,THANK,HF,target,right,yellow,pleasantness,conservative,no,8,1,0.826516539064,-,-
2019_Oct_11,203,001,2,source,40,OBVIOUSLY,HF,target,right,yellow,pleasantness,liberal,no,8,1,3.07896583379,-,-
2019_Oct_11,203,001,2,source,41,TOTAL,HF,target,left,aqua,imageability,liberal,yes,7,0,0.866757413873,-,-
2019_Oct_11,203,001,2,source,42,ENOUGH,HF,target,left,aqua,imageability,liberal,no,1,1,1.43956280034,-,-
2019_Oct_11,203,001,2,source,43,OMITTING,LF,target,left,aqua,imageability,liberal,no,1,1,1.04003630866,-,-
2019_Oct_11,203,001,2,source,44,CLOSE,HF,target,right,yellow,pleasantness,liberal,yes,7,1,0.719946739479,-,-
2019_Oct_11,203,001,2,source,45,GIRLS,HF,target,left,aqua,imageability,conservative,no,8,0,1.13323892007,-,-
2019_Oct_11,203,001,2,source,46,UNLESS,HF,target,left,aqua,imageability,liberal,no,9,0,1.12006639968,-,-
2019_Oct_11,203,001,2,source,47,WAITING,HF,target,left,aqua,imageability,liberal,no,1,1,1.14631978895,-,-
2019_Oct_11,203,001,2,recog,0,LODGERS,LF,target,left,aqua,imageability,conservative,no,z,1,1.81276734743,1,289
2019_Oct_11,203,001,2,recog,1,SKETCHY,LF,target,right,yellow,pleasantness,conservative,no,z,1,0.946628031282,1,290
2019_Oct_11,203,001,2,recog,2,RADIAL,LF,target,left,aqua,imageability,conservative,no,m,0,2.81263573587,-1,289
2019_Oct_11,203,001,2,recog,3,NUANCE,LF,target,left,aqua,imageability,conservative,no,z,1,0.866808005502,1,290
2019_Oct_11,203,001,2,recog,4,MYSELF,HF,lure,-,-,-,conservative,no,m,1,0.799778130045,3,293
2019_Oct_11,203,001,2,recog,5,ITSELF,HF,lure,-,-,-,liberal,no,m,1,0.786776448057,1,294
2019_Oct_11,203,001,2,recog,6,FAMILY,HF,lure,-,-,-,liberal,no,m,1,1.58646475963,1,295
2019_Oct_11,203,001,2,recog,7,FITFUL,LF,lure,-,-,-,liberal,no,m,1,1.213227218,1,296
2019_Oct_11,203,001,2,recog,8,MIDDLE,HF,target,left,aqua,imageability,conservative,no,z,1,1.03968106744,1,297
2019_Oct_11,203,001,2,recog,9,HOTEL,HF,lure,-,-,-,conservative,no,m,1,0.853398657635,3,300
2019_Oct_11,203,001,2,recog,10,MILES,HF,target,left,aqua,imageability,conservative,no,z,1,0.880028917882,1,301
2019_Oct_11,203,001,2,recog,11,GOBBLE,LF,lure,-,-,-,conservative,no,z,0,2.05263362422,-3,298
2019_Oct_11,203,001,2,recog,12,REWRITE,LF,target,left,aqua,imageability,conservative,no,z,1,0.773453619208,1,299
2019_Oct_11,203,001,2,recog,13,RIMMED,LF,target,right,yellow,pleasantness,liberal,no,z,1,1.82631050649,3,302
2019_Oct_11,203,001,2,recog,14,FOUND,HF,target,right,yellow,pleasantness,conservative,yes,m,0,1.08003998938,-1,301
2019_Oct_11,203,001,2,recog,15,MARKET,HF,lure,-,-,-,liberal,no,m,1,4.99836457061,1,302
2019_Oct_11,203,001,2,recog,16,CARRIED,HF,lure,-,-,-,conservative,no,m,1,1.54662238555,3,305
2019_Oct_11,203,001,2,recog,17,GEOLOGIST,LF,lure,-,-,-,liberal,no,m,1,1.21321402019,1,306
2019_Oct_11,203,001,2,recog,18,CHAIR,HF,lure,-,-,-,conservative,no,m,1,1.26662338272,3,309
2019_Oct_11,203,001,2,recog,19,PIANOS,LF,lure,-,-,-,liberal,no,m,1,0.800062616306,1,310
2019_Oct_11,203,001,2,recog,20,TROUBLE,HF,lure,-,-,-,liberal,no,m,1,2.23960561992,1,311
2019_Oct_11,203,001,2,recog,21,OUGHT,HF,lure,-,-,-,conservative,no,m,1,1.42651969188,3,314
2019_Oct_11,203,001,2,recog,22,AFFABLE,LF,lure,-,-,-,liberal,no,m,1,2.11951062498,1,315
2019_Oct_11,203,001,2,recog,23,NIMBLE,LF,lure,-,-,-,liberal,no,m,1,2.77261592449,1,316
2019_Oct_11,203,001,2,recog,24,LAPELS,LF,target,right,yellow,pleasantness,conservative,no,z,1,0.826681511766,1,317
2019_Oct_11,203,001,2,recog,25,HORDE,LF,lure,-,-,-,conservative,no,m,1,0.760106594362,3,320
2019_Oct_11,203,001,2,recog,26,LASER,LF,lure,-,-,-,conservative,no,m,1,1.02666802067,3,323
2019_Oct_11,203,001,2,recog,27,SITTING,HF,target,right,yellow,pleasantness,liberal,no,z,1,0.720141040663,3,326
2019_Oct_11,203,001,2,recog,28,RANGE,HF,lure,-,-,-,conservative,no,m,1,2.01275788899,3,329
2019_Oct_11,203,001,2,recog,29,DOSSIERS,LF,lure,-,-,-,liberal,no,m,1,2.3194377437,1,330
2019_Oct_11,203,001,2,recog,30,ANIMAL,HF,lure,-,-,-,liberal,no,z,0,1.13359672753,-1,329
2019_Oct_11,203,001,2,recog,31,TEMERITY,LF,target,right,yellow,pleasantness,liberal,no,z,1,3.95881144867,3,332
2019_Oct_11,203,001,2,recog,32,AMONG,HF,lure,-,-,-,liberal,no,m,1,0.826742368363,1,333
2019_Oct_11,203,001,2,recog,33,SOYBEAN,LF,lure,-,-,-,liberal,no,m,1,1.23987470873,1,334
2019_Oct_11,203,001,2,recog,34,OMITTING,LF,target,left,aqua,imageability,liberal,no,z,1,0.893095855739,3,337
2019_Oct_11,203,001,2,recog,35,NEMESIS,LF,target,left,aqua,imageability,conservative,no,z,1,0.999725412102,1,338
2019_Oct_11,203,001,2,recog,36,BREAK,HF,lure,-,-,-,conservative,no,m,1,2.0662391063,3,341
2019_Oct_11,203,001,2,recog,37,BELIEVE,HF,lure,-,-,-,liberal,no,m,1,1.59946644162,1,342
2019_Oct_11,203,001,2,recog,38,ACROSS,HF,target,right,yellow,pleasantness,conservative,no,z,1,0.866742016421,1,343
2019_Oct_11,203,001,2,recog,39,SPUDS,LF,lure,-,-,-,conservative,yes,z,0,0.893129950098,-3,340
2019_Oct_11,203,001,2,recog,40,LENGTHEN,LF,target,left,aqua,imageability,liberal,no,z,1,0.946628397888,3,343
2019_Oct_11,203,001,2,recog,41,STUDENT,HF,lure,-,-,-,conservative,no,m,1,1.06661414425,3,346
2019_Oct_11,203,001,2,recog,42,EARLIER,HF,lure,-,-,-,conservative,no,z,0,2.93251516649,-3,343
2019_Oct_11,203,001,2,recog,43,ANYONE,HF,lure,-,-,-,liberal,no,m,1,1.94630028551,1,344
2019_Oct_11,203,001,2,recog,44,KANGAROO,LF,target,right,yellow,pleasantness,conservative,no,z,1,0.84008646036,1,345
2019_Oct_11,203,001,2,recog,45,OBVIOUSLY,HF,target,right,yellow,pleasantness,liberal,no,z,1,0.906744597327,3,348
2019_Oct_11,203,001,2,recog,46,ELECTING,LF,lure,-,-,-,conservative,no,z,0,3.39907300005,-3,345
2019_Oct_11,203,001,2,recog,47,FOLLOWED,HF,lure,-,-,-,liberal,no,z,0,2.18617939352,-1,344
2019_Oct_11,203,001,2,recog,48,BOLDNESS,LF,target,right,yellow,pleasantness,liberal,no,z,1,1.50651275569,3,347
2019_Oct_11,203,001,2,recog,49,LULLED,LF,lure,-,-,-,conservative,no,m,1,0.800185429318,3,350
2019_Oct_11,203,001,2,recog,50,UNDER,HF,target,left,aqua,imageability,conservative,no,z,1,1.49299452584,1,351
2019_Oct_11,203,001,2,recog,51,THEORY,HF,lure,-,-,-,liberal,no,m,1,1.17342920325,1,352
2019_Oct_11,203,001,2,recog,52,SENSE,HF,target,left,aqua,imageability,conservative,no,z,1,0.680055606799,1,353
2019_Oct_11,203,001,2,recog,53,PLACE,HF,lure,-,-,-,liberal,no,m,1,0.920128282773,1,354
2019_Oct_11,203,001,2,recog,54,LOWED,LF,target,left,aqua,imageability,liberal,no,z,1,0.706533725553,3,357
2019_Oct_11,203,001,2,recog,55,REUNITED,LF,target,right,yellow,pleasantness,conservative,no,z,1,0.946641229098,1,358
2019_Oct_11,203,001,2,recog,56,HANDS,HF,target,left,aqua,imageability,liberal,yes,z,1,1.67949103355,3,361
2019_Oct_11,203,001,2,recog,57,ACTION,HF,target,right,yellow,pleasantness,liberal,no,z,1,2.46608674485,3,364
2019_Oct_11,203,001,2,recog,58,BRUISING,LF,lure,-,-,-,liberal,no,m,1,1.3998080451,1,365
2019_Oct_11,203,001,2,recog,59,ENTIRELY,HF,target,right,yellow,pleasantness,liberal,no,z,1,0.826713406488,3,368
2019_Oct_11,203,001,2,recog,60,GABLE,LF,target,left,aqua,imageability,liberal,no,z,1,0.906726633633,3,371
2019_Oct_11,203,001,2,recog,61,WADDLED,LF,target,right,yellow,pleasantness,liberal,no,z,1,1.35980583079,3,374
2019_Oct_11,203,001,2,recog,62,QUICKLY,HF,target,left,aqua,imageability,liberal,no,m,0,1.40015815383,-3,371
2019_Oct_11,203,001,2,recog,63,HOSPITAL,HF,target,left,aqua,imageability,conservative,no,z,1,0.960163125008,1,372
2019_Oct_11,203,001,2,recog,64,TOTAL,HF,target,left,aqua,imageability,liberal,no,z,1,0.626807917517,3,375
2019_Oct_11,203,001,2,recog,65,LYNCH,LF,lure,-,-,-,conservative,no,z,0,1.02641726216,-3,372
2019_Oct_11,203,001,2,recog,66,ARMAMENT,LF,lure,-,-,-,conservative,no,m,1,1.39984067303,3,375
2019_Oct_11,203,001,2,recog,67,DUCHY,LF,lure,-,-,-,conservative,no,m,1,1.08008104926,3,378
2019_Oct_11,203,001,2,recog,68,TIRADE,LF,lure,-,-,-,conservative,no,m,1,1.42649842873,3,381
2019_Oct_11,203,001,2,recog,69,GIRLS,HF,target,left,aqua,imageability,conservative,no,z,1,0.853405989756,1,382
2019_Oct_11,203,001,2,recog,70,PASSED,HF,target,right,yellow,pleasantness,conservative,no,z,1,3.75893895423,1,383
2019_Oct_11,203,001,2,recog,71,KRAALS,LF,target,left,aqua,imageability,liberal,yes,z,1,0.653179720529,3,386
2019_Oct_11,203,001,2,recog,72,TYCOONS,LF,lure,-,-,-,liberal,no,m,1,1.59990306937,1,387
2019_Oct_11,203,001,2,recog,73,FLOOR,HF,lure,-,-,-,conservative,no,z,0,1.39980694528,-3,384
2019_Oct_11,203,001,2,recog,74,FURTHER,HF,target,right,yellow,pleasantness,conservative,no,z,1,1.31987143861,1,385
2019_Oct_11,203,001,2,recog,75,WAITING,HF,target,left,aqua,imageability,liberal,no,z,1,0.706607046754,3,388
2019_Oct_11,203,001,2,recog,76,THWART,LF,target,left,aqua,imageability,conservative,no,z,1,0.759809643498,1,389
2019_Oct_11,203,001,2,recog,77,SEABED,LF,lure,-,-,-,conservative,no,m,1,1.83999994134,3,392
2019_Oct_11,203,001,2,recog,78,CENTRAL,HF,lure,-,-,-,liberal,no,m,1,1.58619383779,1,393
2019_Oct_11,203,001,2,recog,79,ENOUGH,HF,target,left,aqua,imageability,liberal,no,z,1,0.893252396503,3,396
2019_Oct_11,203,001,2,recog,80,UNTIL,HF,target,right,yellow,pleasantness,liberal,no,z,1,0.680116830002,3,399
2019_Oct_11,203,001,2,recog,81,VAINLY,LF,lure,-,-,-,conservative,no,z,0,1.38646102025,-3,396
2019_Oct_11,203,001,2,recog,82,WOODCOCK,LF,lure,-,-,-,liberal,no,m,1,1.59988987156,1,397
2019_Oct_11,203,001,2,recog,83,SECOND,HF,lure,-,-,-,conservative,no,m,1,1.39981831006,3,400
2019_Oct_11,203,001,2,recog,84,TILTS,LF,lure,-,-,-,liberal,no,m,1,4.29197015534,1,401
2019_Oct_11,203,001,2,recog,85,EXACTLY,HF,lure,-,-,-,conservative,no,z,0,2.23923938052,-3,398
2019_Oct_11,203,001,2,recog,86,UNLESS,HF,target,left,aqua,imageability,liberal,no,z,1,0.786723656792,3,401
2019_Oct_11,203,001,2,recog,87,THANK,HF,target,right,yellow,pleasantness,conservative,no,z,1,0.626949794041,1,402
2019_Oct_11,203,001,2,recog,88,ALDER,LF,lure,-,-,-,liberal,no,z,0,1.17308532681,-1,401
2019_Oct_11,203,001,2,recog,89,AVOCADO,LF,target,right,yellow,pleasantness,conservative,no,z,1,0.960002551578,1,402
2019_Oct_11,203,001,2,recog,90,BINDINGS,LF,target,right,yellow,pleasantness,liberal,no,z,1,0.799932471174,3,405
2019_Oct_11,203,001,2,recog,91,SNIGGERED,LF,target,right,yellow,pleasantness,conservative,no,z,1,1.27994071248,1,406
2019_Oct_11,203,001,2,recog,92,PAUNCH,LF,target,right,yellow,pleasantness,liberal,no,z,1,1.01338588508,3,409
2019_Oct_11,203,001,2,recog,93,EBONY,LF,target,left,aqua,imageability,liberal,no,z,1,1.21332656823,3,412
2019_Oct_11,203,001,2,recog,94,CLEAR,HF,target,right,yellow,pleasantness,conservative,no,z,1,0.733407412187,1,413
2019_Oct_11,203,001,2,recog,95,CLOSE,HF,target,right,yellow,pleasantness,liberal,no,m,0,0.800295777725,-3,410
2019_Oct_11,203,001,3,source,0,TRADE,HF,target,right,yellow,pleasantness,liberal,yes,2,0,1.55990195489,-,-
2019_Oct_11,203,001,3,source,1,LARGE,HF,target,right,yellow,pleasantness,liberal,no,7,1,2.77236296634,-,-
2019_Oct_11,203,001,3,source,2,SHALL,HF,target,left,aqua,imageability,liberal,no,1,1,2.30610794934,-,-
2019_Oct_11,203,001,3,source,3,BOMBARDED,LF,target,left,aqua,imageability,conservative,no,1,1,1.06678534925,-,-
2019_Oct_11,203,001,3,source,4,TULIPS,LF,target,right,yellow,pleasantness,conservative,no,7,1,1.69282559379,-,-
2019_Oct_11,203,001,3,source,5,FORCE,HF,target,left,aqua,imageability,liberal,no,1,1,1.02672007872,-,-
2019_Oct_11,203,001,3,source,6,AMICABLY,LF,target,right,yellow,pleasantness,liberal,no,3,0,2.05307135179,-,-
2019_Oct_11,203,001,3,source,7,AWAITS,LF,target,right,yellow,pleasantness,liberal,no,7,1,1.54640242195,-,-
2019_Oct_11,203,001,3,source,8,DIVAN,LF,target,left,aqua,imageability,liberal,no,1,1,0.893303721344,-,-
2019_Oct_11,203,001,3,source,9,ORDER,HF,target,left,aqua,imageability,conservative,no,1,1,0.826485744159,-,-
2019_Oct_11,203,001,3,source,10,WIRING,LF,target,right,yellow,pleasantness,conservative,no,1,0,0.919761676768,-,-
2019_Oct_11,203,001,3,source,11,URCHIN,LF,target,right,yellow,pleasantness,liberal,no,3,0,1.41313197376,-,-
2019_Oct_11,203,001,3,source,12,SHRED,LF,target,left,aqua,imageability,conservative,yes,2,1,1.38676860269,-,-
2019_Oct_11,203,001,3,source,13,VARIOUS,HF,target,left,aqua,imageability,liberal,no,1,1,3.45214618488,-,-
2019_Oct_11,203,001,3,source,14,RALLIED,LF,target,left,aqua,imageability,liberal,no,2,1,2.17299734137,-,-
2019_Oct_11,203,001,3,source,15,WITHIN,HF,target,left,aqua,imageability,conservative,no,1,1,0.999951974613,-,-
2019_Oct_11,203,001,3,source,16,TRYING,HF,target,left,aqua,imageability,liberal,no,1,1,1.3778692419,-,-
2019_Oct_11,203,001,3,source,17,ERODE,LF,target,right,yellow,pleasantness,conservative,no,8,1,1.75971285951,-,-
2019_Oct_11,203,001,3,source,18,SUCCESS,HF,target,right,yellow,pleasantness,liberal,no,9,1,2.90586290988,-,-
2019_Oct_11,203,001,3,source,19,NEGATION,LF,target,left,aqua,imageability,conservative,no,1,1,1.37292849277,-,-
2019_Oct_11,203,001,3,source,20,BOVINE,LF,target,left,aqua,imageability,conservative,no,1,1,1.03994868982,-,-
2019_Oct_11,203,001,3,source,21,RATHER,HF,target,right,yellow,pleasantness,conservative,no,9,1,0.826718538973,-,-
2019_Oct_11,203,001,3,source,22,LABOUR,HF,target,right,yellow,pleasantness,conservative,no,9,1,1.01335765642,-,-
2019_Oct_11,203,001,3,source,23,CLASS,HF,target,left,aqua,imageability,conservative,no,1,1,0.840194242526,-,-
2019_Oct_11,203,001,3,source,24,LONGER,HF,target,left,aqua,imageability,conservative,no,2,1,1.18631613756,-,-
2019_Oct_11,203,001,3,source,25,NORTH,HF,target,right,yellow,pleasantness,liberal,no,9,1,0.85317796082,-,-
2019_Oct_11,203,001,3,source,26,DISARMED,LF,target,right,yellow,pleasantness,liberal,no,9,1,1.0663611861,-,-
2019_Oct_11,203,001,3,source,27,CALLED,HF,target,right,yellow,pleasantness,liberal,no,9,1,0.973375972056,-,-
2019_Oct_11,203,001,3,source,28,TAKEN,HF,target,right,yellow,pleasantness,conservative,no,9,1,0.733413644489,-,-
2019_Oct_11,203,001,3,source,29,ANGERS,LF,target,left,aqua,imageability,conservative,no,9,0,0.879761295498,-,-
2019_Oct_11,203,001,3,source,30,UPKEEP,LF,target,left,aqua,imageability,liberal,yes,8,0,0.706744524006,-,-
2019_Oct_11,203,001,3,source,31,CITES,LF,target,left,aqua,imageability,liberal,no,2,1,1.55972085152,-,-
2019_Oct_11,203,001,3,source,32,JUNCTURE,LF,target,right,yellow,pleasantness,liberal,no,9,1,0.893220868387,-,-
2019_Oct_11,203,001,3,source,33,CUCKOO,LF,target,left,aqua,imageability,liberal,no,9,0,1.41315506994,-,-
2019_Oct_11,203,001,3,source,34,NECESSARY,HF,target,right,yellow,pleasantness,conservative,no,2,0,1.47966289845,-,-
2019_Oct_11,203,001,3,source,35,BLACK,HF,target,left,aqua,imageability,liberal,no,1,1,0.933318400248,-,-
2019_Oct_11,203,001,3,source,36,WHETHER,HF,target,right,yellow,pleasantness,liberal,no,7,1,1.86630428885,-,-
2019_Oct_11,203,001,3,source,37,CHURCH,HF,target,left,aqua,imageability,conservative,no,1,1,1.21297242683,-,-
2019_Oct_11,203,001,3,source,38,PARENTS,HF,target,right,yellow,pleasantness,conservative,no,9,1,0.946683755395,-,-
2019_Oct_11,203,001,3,source,39,CAUGHT,HF,target,left,aqua,imageability,liberal,no,2,1,1.13303875319,-,-
2019_Oct_11,203,001,3,source,40,HYDRAULIC,LF,target,right,yellow,pleasantness,liberal,no,2,0,1.74653080737,-,-
2019_Oct_11,203,001,3,source,41,JEERED,LF,target,right,yellow,pleasantness,conservative,no,7,1,1.70634272382,-,-
2019_Oct_11,203,001,3,source,42,MONEY,HF,target,right,yellow,pleasantness,conservative,no,9,1,0.986771022288,-,-
2019_Oct_11,203,001,3,source,43,ABOVE,HF,target,left,aqua,imageability,conservative,no,1,1,0.906670542914,-,-
2019_Oct_11,203,001,3,source,44,MAMMAL,LF,target,left,aqua,imageability,conservative,no,1,1,1.66645855666,-,-
2019_Oct_11,203,001,3,source,45,DAILIES,LF,target,right,yellow,pleasantness,conservative,no,2,0,1.45308103019,-,-
2019_Oct_11,203,001,3,source,46,LOITERING,LF,target,left,aqua,imageability,liberal,no,1,1,1.21297792592,-,-
2019_Oct_11,203,001,3,source,47,CUPID,LF,target,right,yellow,pleasantness,conservative,yes,7,1,1.41322215884,-,-
2019_Oct_11,203,001,3,recog,0,JINGLE,LF,lure,-,-,-,liberal,no,m,1,1.63982059768,1,411
2019_Oct_11,203,001,3,recog,1,NORTH,HF,target,right,yellow,pleasantness,liberal,no,z,1,1.38637450123,3,414
2019_Oct_11,203,001,3,recog,2,WITHIN,HF,target,left,aqua,imageability,conservative,no,z,1,0.706826643751,1,415
2019_Oct_11,203,001,3,recog,3,MENFOLK,LF,lure,-,-,-,conservative,no,m,1,0.973311082793,3,418
2019_Oct_11,203,001,3,recog,4,NATIONAL,HF,lure,-,-,-,liberal,no,z,0,1.92103489943,-1,417
2019_Oct_11,203,001,3,recog,5,LARGE,HF,target,right,yellow,pleasantness,liberal,no,z,1,2.95925430872,3,420
2019_Oct_11,203,001,3,recog,6,BLACK,HF,target,left,aqua,imageability,liberal,no,z,1,0.559897555618,3,423
2019_Oct_11,203,001,3,recog,7,MYTHIC,LF,lure,-,-,-,liberal,no,m,1,0.959875339294,1,424
2019_Oct_11,203,001,3,recog,8,BOUGH,LF,lure,-,-,-,conservative,no,m,1,0.74669504686,3,427
2019_Oct_11,203,001,3,recog,9,ROBBERIES,LF,lure,-,-,-,conservative,no,m,1,2.05288438273,3,430
2019_Oct_11,203,001,3,recog,10,DAGGERS,LF,lure,-,-,-,liberal,no,m,1,1.87962491806,1,431
2019_Oct_11,203,001,3,recog,11,PROBABLY,HF,lure,-,-,-,conservative,no,z,0,1.30654311067,-3,428
2019_Oct_11,203,001,3,recog,12,SPICED,LF,lure,-,-,-,conservative,no,m,1,1.25337974077,3,431
2019_Oct_11,203,001,3,recog,13,DISARMED,LF,target,right,yellow,pleasantness,liberal,no,z,1,0.813550784464,3,434
2019_Oct_11,203,001,3,recog,14,WHETHER,HF,target,right,yellow,pleasantness,liberal,no,z,1,0.773475248962,3,437
2019_Oct_11,203,001,3,recog,15,WALKED,HF,lure,-,-,-,conservative,no,z,0,1.91993508141,-3,434
2019_Oct_11,203,001,3,recog,16,ARRIVED,HF,lure,-,-,-,conservative,no,z,0,1.94623649607,-3,431
2019_Oct_11,203,001,3,recog,17,DAILIES,LF,target,right,yellow,pleasantness,conservative,no,m,0,1.22630368762,-1,430
2019_Oct_11,203,001,3,recog,18,NECESSARY,HF,target,right,yellow,pleasantness,conservative,no,z,1,2.25286575915,1,431
2019_Oct_11,203,001,3,recog,19,ABOVE,HF,target,left,aqua,imageability,conservative,no,z,1,0.6535320289,1,432
2019_Oct_11,203,001,3,recog,20,EFFECT,HF,lure,-,-,-,liberal,no,m,1,0.946638662856,1,433
2019_Oct_11,203,001,3,recog,21,BYGONE,LF,lure,-,-,-,liberal,no,m,1,0.906672009338,1,434
2019_Oct_11,203,001,3,recog,22,CLASS,HF,target,left,aqua,imageability,conservative,no,z,1,1.34641371341,1,435
2019_Oct_11,203,001,3,recog,23,SHRED,LF,target,left,aqua,imageability,conservative,no,z,1,0.693422428369,1,436
2019_Oct_11,203,001,3,recog,24,PARENTS,HF,target,right,yellow,pleasantness,conservative,no,z,1,0.640195269023,1,437
2019_Oct_11,203,001,3,recog,25,TAKEN,HF,target,right,yellow,pleasantness,conservative,no,z,1,1.29297428919,1,438
2019_Oct_11,203,001,3,recog,26,VAULTED,LF,lure,-,-,-,conservative,no,z,0,0.773463884176,-3,435
2019_Oct_11,203,001,3,recog,27,TRADE,HF,target,right,yellow,pleasantness,liberal,no,z,1,1.34627110368,3,438
2019_Oct_11,203,001,3,recog,28,PEOPLED,LF,lure,-,-,-,conservative,no,m,1,1.26656399254,3,441
2019_Oct_11,203,001,3,recog,29,ERODE,LF,target,right,yellow,pleasantness,conservative,no,z,1,0.693374402982,1,442
2019_Oct_11,203,001,3,recog,30,MOVED,HF,lure,-,-,-,conservative,no,m,1,1.31982158019,3,445
2019_Oct_11,203,001,3,recog,31,TRYING,HF,target,left,aqua,imageability,liberal,no,z,1,1.02631644551,3,448
2019_Oct_11,203,001,3,recog,32,ANGERS,LF,target,left,aqua,imageability,conservative,no,z,1,0.999835027297,1,449
2019_Oct_11,203,001,3,recog,33,MAMMAL,LF,target,left,aqua,imageability,conservative,no,z,1,0.800031821401,1,450
2019_Oct_11,203,001,3,recog,34,JADED,LF,lure,-,-,-,liberal,no,m,1,1.15991500606,1,451
2019_Oct_11,203,001,3,recog,35,ORDER,HF,target,left,aqua,imageability,conservative,no,z,1,0.640116448732,1,452
2019_Oct_11,203,001,3,recog,36,AMICABLY,LF,target,right,yellow,pleasantness,liberal,no,z,1,1.27983732958,3,455
2019_Oct_11,203,001,3,recog,37,SUBJECT,HF,lure,-,-,-,conservative,no,m,1,0.800144736051,3,458
2019_Oct_11,203,001,3,recog,38,THUDDING,LF,lure,-,-,-,conservative,no,m,1,1.31984577619,3,461
2019_Oct_11,203,001,3,recog,39,NEGATION,LF,target,left,aqua,imageability,conservative,no,z,1,0.760170017201,1,462
2019_Oct_11,203,001,3,recog,40,MONEY,HF,target,right,yellow,pleasantness,conservative,no,z,1,0.653176787681,1,463
2019_Oct_11,203,001,3,recog,41,DWELT,LF,lure,-,-,-,liberal,no,m,1,1.01329753303,1,464
2019_Oct_11,203,001,3,recog,42,SUAVE,LF,lure,-,-,-,conservative,no,m,1,0.677405045378,3,467
2019_Oct_11,203,001,3,recog,43,LABOUR,HF,target,right,yellow,pleasantness,conservative,no,z,1,0.840019371461,1,468
2019_Oct_11,203,001,3,recog,44,PREPARED,HF,lure,-,-,-,conservative,no,z,0,2.7059874826,-3,465
2019_Oct_11,203,001,3,recog,45,MINISTER,HF,lure,-,-,-,conservative,no,m,1,1.10642755645,3,468
2019_Oct_11,203,001,3,recog,46,DIFFERENT,HF,lure,-,-,-,liberal,no,m,1,3.14571965492,1,469
2019_Oct_11,203,001,3,recog,47,FELLS,LF,lure,-,-,-,liberal,no,m,1,2.06626696836,1,470
2019_Oct_11,203,001,3,recog,48,WESTERN,HF,lure,-,-,-,liberal,no,m,1,1.54646364515,1,471
2019_Oct_11,203,001,3,recog,49,CRACKLE,LF,lure,-,-,-,liberal,yes,z,0,1.21298085877,-1,470
2019_Oct_11,203,001,3,recog,50,HYDRAULIC,LF,target,right,yellow,pleasantness,liberal,no,m,0,2.25282763212,-3,467
2019_Oct_11,203,001,3,recog,51,RATHER,HF,target,right,yellow,pleasantness,conservative,no,z,1,1.30650095098,1,468
2019_Oct_11,203,001,3,recog,52,MAYBE,HF,lure,-,-,-,liberal,no,m,1,0.986714198357,1,469
2019_Oct_11,203,001,3,recog,53,TERMS,HF,lure,-,-,-,liberal,no,z,0,1.14668712817,-1,468
2019_Oct_11,203,001,3,recog,54,RAGES,LF,lure,-,-,-,liberal,no,m,1,2.67940891381,1,469
2019_Oct_11,203,001,3,recog,55,TABLE,HF,lure,-,-,-,conservative,no,m,1,1.00002786206,3,472
2019_Oct_11,203,001,3,recog,56,URCHIN,LF,target,right,yellow,pleasantness,liberal,yes,m,0,1.5730638437,-3,469
2019_Oct_11,203,001,3,recog,57,LOPSIDED,LF,lure,-,-,-,conservative,no,m,1,4.3187540235,3,472
2019_Oct_11,203,001,3,recog,58,AWAITS,LF,target,right,yellow,pleasantness,liberal,no,z,1,0.786757017939,3,475
2019_Oct_11,203,001,3,recog,59,COVER,HF,lure,-,-,-,liberal,yes,z,0,1.11980097693,-1,474
2019_Oct_11,203,001,3,recog,60,TETHER,LF,lure,-,-,-,liberal,no,m,1,1.20002646895,1,475
2019_Oct_11,203,001,3,recog,61,SHALL,HF,target,left,aqua,imageability,liberal,no,z,1,0.720054888251,3,478
2019_Oct_11,203,001,3,recog,62,WRITE,HF,lure,-,-,-,liberal,no,m,1,1.6397846703,1,479
2019_Oct_11,203,001,3,recog,63,WIRING,LF,target,right,yellow,pleasantness,conservative,no,z,1,1.49312430437,1,480
2019_Oct_11,203,001,3,recog,64,CUCKOO,LF,target,left,aqua,imageability,liberal,no,z,1,0.87976386174,3,483
2019_Oct_11,203,001,3,recog,65,VERBALLY,LF,lure,-,-,-,liberal,no,m,1,0.800062982912,1,484
2019_Oct_11,203,001,3,recog,66,FORCE,HF,target,left,aqua,imageability,liberal,no,z,1,0.66677310461,3,487
2019_Oct_11,203,001,3,recog,67,UPKEEP,LF,target,left,aqua,imageability,liberal,no,z,1,0.999988635214,3,490
2019_Oct_11,203,001,3,recog,68,TULIPS,LF,target,right,yellow,pleasantness,conservative,no,z,1,1.08007994944,1,491
2019_Oct_11,203,001,3,recog,69,TREES,HF,lure,-,-,-,liberal,no,m,1,1.15993077012,1,492
2019_Oct_11,203,001,3,recog,70,BOMBARDED,LF,target,left,aqua,imageability,conservative,no,z,1,1.41318513163,1,493
2019_Oct_11,203,001,3,recog,71,RALLIED,LF,target,left,aqua,imageability,liberal,no,z,1,1.19990805521,3,496
2019_Oct_11,203,001,3,recog,72,BOVINE,LF,target,left,aqua,imageability,conservative,no,z,1,0.706768353396,1,497
2019_Oct_11,203,001,3,recog,73,AMPLIFY,LF,lure,-,-,-,conservative,no,z,0,0.946494953302,-3,494
2019_Oct_11,203,001,3,recog,74,JEERED,LF,target,right,yellow,pleasantness,conservative,no,z,1,1.18689574165,1,495
2019_Oct_11,203,001,3,recog,75,SUCCESS,HF,target,right,yellow,pleasantness,liberal,no,z,1,1.42651639242,3,498
2019_Oct_11,203,001,3,recog,76,APPEARED,HF,lure,-,-,-,conservative,no,z,0,1.51981652103,-3,495
2019_Oct_11,203,001,3,recog,77,LONGER,HF,target,left,aqua,imageability,conservative,no,z,1,1.15999529278,1,496
2019_Oct_11,203,001,3,recog,78,VARIOUS,HF,target,left,aqua,imageability,liberal,no,m,0,1.14655624983,-3,493
2019_Oct_11,203,001,3,recog,79,DRINK,HF,lure,-,-,-,conservative,yes,z,0,0.506917122113,-3,490
2019_Oct_11,203,001,3,recog,80,NEARLY,HF,lure,-,-,-,conservative,no,m,1,3.15910883946,3,493
2019_Oct_11,203,001,3,recog,81,SPLASHES,LF,lure,-,-,-,liberal,no,m,1,1.17322317067,1,494
2019_Oct_11,203,001,3,recog,82,DIVAN,LF,target,left,aqua,imageability,liberal,no,z,1,0.840075828786,3,497
2019_Oct_11,203,001,3,recog,83,CUPID,LF,target,right,yellow,pleasantness,conservative,no,z,1,0.986927929659,1,498
2019_Oct_11,203,001,3,recog,84,LAXATIVE,LF,lure,-,-,-,conservative,no,z,0,0.91991381826,-3,495
2019_Oct_11,203,001,3,recog,85,MOMENT,HF,lure,-,-,-,liberal,no,m,1,3.07915720212,1,496
2019_Oct_11,203,001,3,recog,86,ALREADY,HF,lure,-,-,-,liberal,no,m,1,1.27975594305,1,497
2019_Oct_11,203,001,3,recog,87,CITES,LF,target,left,aqua,imageability,liberal,no,z,1,1.17320850643,3,500
2019_Oct_11,203,001,3,recog,88,CALLED,HF,target,right,yellow,pleasantness,liberal,no,z,1,0.693428294065,3,503
2019_Oct_11,203,001,3,recog,89,DOING,HF,lure,-,-,-,conservative,no,m,1,0.760151686901,3,506
2019_Oct_11,203,001,3,recog,90,CHURCH,HF,target,left,aqua,imageability,conservative,no,z,1,0.746949471427,1,507
2019_Oct_11,203,001,3,recog,91,TELEPHONE,HF,lure,-,-,-,liberal,no,z,0,1.21302265185,-1,506
2019_Oct_11,203,001,3,recog,92,ARBITER,LF,lure,-,-,-,conservative,no,z,0,2.09291555891,-3,503
2019_Oct_11,203,001,3,recog,93,JUNCTURE,LF,target,right,yellow,pleasantness,liberal,no,z,1,1.6265138995,3,506
2019_Oct_11,203,001,3,recog,94,CAUGHT,HF,target,left,aqua,imageability,liberal,no,z,1,3.11913265418,3,509
2019_Oct_11,203,001,3,recog,95,LOITERING,LF,target,left,aqua,imageability,liberal,no,z,1,0.800087545514,3,512
2019_Oct_11,203,001,4,source,0,FLYWHEEL,LF,target,right,yellow,pleasantness,liberal,no,3,0,3.51898359218,-,-
2019_Oct_11,203,001,4,source,1,CORNER,HF,target,left,aqua,imageability,liberal,no,3,1,1.4131279411,-,-
2019_Oct_11,203,001,4,source,2,CELLO,LF,target,right,yellow,pleasantness,liberal,no,9,1,0.973298618189,-,-
2019_Oct_11,203,001,4,source,3,TODAY,HF,target,right,yellow,pleasantness,conservative,no,9,1,0.866744582663,-,-
2019_Oct_11,203,001,4,source,4,USING,HF,target,right,yellow,pleasantness,liberal,no,2,0,2.05297493441,-,-
2019_Oct_11,203,001,4,source,5,HYPNOSIS,LF,target,right,yellow,pleasantness,liberal,no,9,1,0.746537039671,-,-
2019_Oct_11,203,001,4,source,6,QUESTION,HF,target,right,yellow,pleasantness,conservative,yes,7,1,0.840021571097,-,-
2019_Oct_11,203,001,4,source,7,SANDAL,LF,target,left,aqua,imageability,liberal,no,1,1,3.27912134805,-,-
2019_Oct_11,203,001,4,source,8,MEETING,HF,target,right,yellow,pleasantness,conservative,no,3,0,1.01348083604,-,-
2019_Oct_11,203,001,4,source,9,STYLED,LF,target,left,aqua,imageability,conservative,no,9,0,1.01343207744,-,-
2019_Oct_11,203,001,4,source,10,BABBLED,LF,target,left,aqua,imageability,liberal,no,1,1,1.53322146962,-,-
2019_Oct_11,203,001,4,source,11,JASMINE,LF,target,left,aqua,imageability,liberal,no,1,1,0.70672216104,-,-
2019_Oct_11,203,001,4,source,12,NUTSHELL,LF,target,right,yellow,pleasantness,liberal,no,9,1,2.47933405286,-,-
2019_Oct_11,203,001,4,source,13,ALCHEMIST,LF,target,right,yellow,pleasantness,conservative,no,9,1,1.66634710843,-,-
2019_Oct_11,203,001,4,source,14,SUSPEND,LF,target,left,aqua,imageability,conservative,no,1,1,0.99997617061,-,-
2019_Oct_11,203,001,4,source,15,POWER,HF,target,right,yellow,pleasantness,liberal,no,9,1,0.746784498725,-,-
2019_Oct_11,203,001,4,source,16,ENGULF,LF,target,left,aqua,imageability,conservative,yes,8,0,0.559834132779,-,-
2019_Oct_11,203,001,4,source,17,ADMIRALS,LF,target,left,aqua,imageability,liberal,no,1,1,1.62620155118,-,-
2019_Oct_11,203,001,4,source,18,PICTURE,HF,target,right,yellow,pleasantness,liberal,no,9,1,0.613439262916,-,-
2019_Oct_11,203,001,4,source,19,EXCEPT,HF,target,left,aqua,imageability,conservative,no,2,1,1.57322625016,-,-
2019_Oct_11,203,001,4,source,20,UPHEAVALS,LF,target,right,yellow,pleasantness,conservative,no,9,1,0.82684355162,-,-
2019_Oct_11,203,001,4,source,21,NEITHER,HF,target,left,aqua,imageability,conservative,no,1,1,0.893130316703,-,-
2019_Oct_11,203,001,4,source,22,HUNDRED,HF,target,right,yellow,pleasantness,conservative,yes,7,1,0.693447724183,-,-
2019_Oct_11,203,001,4,source,23,SIMILAR,HF,target,left,aqua,imageability,liberal,no,1,1,1.27984099564,-,-
2019_Oct_11,203,001,4,source,24,HAIRDO,LF,target,right,yellow,pleasantness,liberal,no,2,0,1.29353812922,-,-
2019_Oct_11,203,001,4,source,25,TOXICITY,LF,target,right,yellow,pleasantness,conservative,no,9,1,0.813136153071,-,-
2019_Oct_11,203,001,4,source,26,LEVEL,HF,target,left,aqua,imageability,conservative,no,8,0,2.46603175395,-,-
2019_Oct_11,203,001,4,source,27,IDEAS,HF,target,left,aqua,imageability,liberal,no,1,1,2.42610872654,-,-
2019_Oct_11,203,001,4,source,28,BOOKS,HF,target,right,yellow,pleasantness,conservative,no,3,0,2.11943217129,-,-
2019_Oct_11,203,001,4,source,29,AHEAD,HF,target,left,aqua,imageability,conservative,no,1,1,0.719782499989,-,-
2019_Oct_11,203,001,4,source,30,WEBBED,LF,target,right,yellow,pleasantness,conservative,no,9,1,1.10660646018,-,-
2019_Oct_11,203,001,4,source,31,GAUCHE,LF,target,right,yellow,pleasantness,liberal,no,9,1,1.47983630309,-,-
2019_Oct_11,203,001,4,source,32,TRUTH,HF,target,left,aqua,imageability,liberal,no,1,1,0.933310701523,-,-
2019_Oct_11,203,001,4,source,33,TWENTY,HF,target,right,yellow,pleasantness,liberal,no,9,1,2.7057000635,-,-
2019_Oct_11,203,001,4,source,34,POUNDS,HF,target,right,yellow,pleasantness,liberal,no,9,1,0.759883331305,-,-
2019_Oct_11,203,001,4,source,35,FOOLHARDY,LF,target,right,yellow,pleasantness,conservative,no,7,1,2.31945094152,-,-
2019_Oct_11,203,001,4,source,36,SEINE,LF,target,left,aqua,imageability,conservative,no,1,1,2.47950452465,-,-
2019_Oct_11,203,001,4,source,37,BETTER,HF,target,left,aqua,imageability,liberal,no,1,1,1.5597560457,-,-
2019_Oct_11,203,001,4,source,38,INFECT,LF,target,left,aqua,imageability,liberal,yes,2,1,0.666589068396,-,-
2019_Oct_11,203,001,4,source,39,PHYSICAL,HF,target,left,aqua,imageability,conservative,no,2,1,2.69269654848,-,-
2019_Oct_11,203,001,4,source,40,WRONG,HF,target,left,aqua,imageability,liberal,no,7,0,1.06676775216,-,-
2019_Oct_11,203,001,4,source,41,GUARDSMEN,LF,target,left,aqua,imageability,conservative,no,1,1,1.13311757348,-,-
2019_Oct_11,203,001,4,source,42,FECKLESS,LF,target,left,aqua,imageability,liberal,no,7,0,1.90626727631,-,-
2019_Oct_11,203,001,4,source,43,STRAIGHT,HF,target,right,yellow,pleasantness,conservative,no,9,1,0.760197879258,-,-
2019_Oct_11,203,001,4,source,44,SORRY,HF,target,left,aqua,imageability,conservative,no,1,1,0.853411488845,-,-
2019_Oct_11,203,001,4,source,45,CONCERNED,HF,target,right,yellow,pleasantness,liberal,no,3,0,1.9596256806,-,-
2019_Oct_11,203,001,4,source,46,INHABITS,LF,target,left,aqua,imageability,conservative,no,1,1,1.15991390625,-,-
2019_Oct_11,203,001,4,source,47,BUTCHERED,LF,target,right,yellow,pleasantness,conservative,no,3,0,1.43979926122,-,-
2019_Oct_11,203,001,4,recog,0,KOSHER,LF,lure,-,-,-,conservative,no,m,1,1.34647823607,3,515
2019_Oct_11,203,001,4,recog,1,VOICE,HF,lure,-,-,-,liberal,no,m,1,0.866728451999,1,516
2019_Oct_11,203,001,4,recog,2,KENNEL,LF,lure,-,-,-,conservative,no,m,1,1.02664015861,3,519
2019_Oct_11,203,001,4,recog,3,ASTERN,LF,lure,-,-,-,liberal,no,z,0,1.25331301847,-1,518
2019_Oct_11,203,001,4,recog,4,DELEGATED,LF,lure,-,-,-,liberal,no,m,1,1.22653354958,1,519
2019_Oct_11,203,001,4,recog,5,BABBLED,LF,target,left,aqua,imageability,liberal,yes,z,1,1.59948147247,3,522
2019_Oct_11,203,001,4,recog,6,HOURS,HF,lure,-,-,-,conservative,no,m,1,1.1333752975,3,525
2019_Oct_11,203,001,4,recog,7,DUGOUTS,LF,lure,-,-,-,liberal,no,m,1,0.986676071333,1,526
2019_Oct_11,203,001,4,recog,8,BLOOD,HF,lure,-,-,-,liberal,no,m,1,0.893129216885,1,527
2019_Oct_11,203,001,4,recog,9,UNION,HF,lure,-,-,-,liberal,no,m,1,0.800089011938,1,528
2019_Oct_11,203,001,4,recog,10,HUNDRED,HF,target,right,yellow,pleasantness,conservative,no,z,1,0.97365092656,1,529
2019_Oct_11,203,001,4,recog,11,INFECT,LF,target,left,aqua,imageability,liberal,yes,z,1,1.10659032952,3,532
2019_Oct_11,203,001,4,recog,12,WEBBED,LF,target,right,yellow,pleasantness,conservative,no,z,1,0.893432766658,1,533
2019_Oct_11,203,001,4,recog,13,VALUE,HF,lure,-,-,-,conservative,no,z,0,1.71959296468,-3,530
2019_Oct_11,203,001,4,recog,14,UPHEAVALS,LF,target,right,yellow,pleasantness,conservative,no,z,1,0.906835515617,1,531
2019_Oct_11,203,001,4,recog,15,TODAY,HF,target,right,yellow,pleasantness,conservative,no,z,1,2.33248451823,1,532
2019_Oct_11,203,001,4,recog,16,TAUNTED,LF,lure,-,-,-,liberal,no,m,1,0.919798703975,1,533
2019_Oct_11,203,001,4,recog,17,CONCERNED,HF,target,right,yellow,pleasantness,liberal,no,z,1,0.813525122043,3,536
2019_Oct_11,203,001,4,recog,18,GAUCHE,LF,target,right,yellow,pleasantness,liberal,no,z,1,0.880003988673,3,539
2019_Oct_11,203,001,4,recog,19,TOXICITY,LF,target,right,yellow,pleasantness,conservative,no,z,1,0.999905782257,1,540
2019_Oct_11,203,001,4,recog,20,ASPIRED,LF,lure,-,-,-,liberal,no,m,1,2.37280348012,1,541
2019_Oct_11,203,001,4,recog,21,PHYSICAL,HF,target,left,aqua,imageability,conservative,no,z,1,0.799806358708,1,542
2019_Oct_11,203,001,4,recog,22,FECKLESS,LF,target,left,aqua,imageability,liberal,no,z,1,1.01478815305,3,545
2019_Oct_11,203,001,4,recog,23,LUMBER,LF,lure,-,-,-,liberal,no,z,0,0.827070480738,-1,544
2019_Oct_11,203,001,4,recog,24,SUDDENLY,HF,lure,-,-,-,conservative,no,m,1,1.38657136866,3,547
2019_Oct_11,203,001,4,recog,25,BUTCHERED,LF,target,right,yellow,pleasantness,conservative,no,z,1,2.25260326925,1,548
2019_Oct_11,203,001,4,recog,26,SIMILAR,HF,target,left,aqua,imageability,liberal,no,z,1,0.759848503734,3,551
2019_Oct_11,203,001,4,recog,27,DOCTOR,HF,lure,-,-,-,conservative,no,m,1,1.98622477934,3,554
2019_Oct_11,203,001,4,recog,28,ROMANCES,LF,lure,-,-,-,liberal,no,m,1,1.1466218723,1,555
2019_Oct_11,203,001,4,recog,29,NUTSHELL,LF,target,right,yellow,pleasantness,liberal,no,z,1,0.733156653679,3,558
2019_Oct_11,203,001,4,recog,30,TICKLE,LF,lure,-,-,-,liberal,no,m,1,1.27999203732,1,559
2019_Oct_11,203,001,4,recog,31,ENGULF,LF,target,left,aqua,imageability,conservative,no,z,1,0.946422731919,1,560
2019_Oct_11,203,001,4,recog,32,WOMAN,HF,lure,-,-,-,conservative,no,m,1,1.26650863504,3,563
2019_Oct_11,203,001,4,recog,33,LEVEL,HF,target,left,aqua,imageability,conservative,no,z,1,1.41320712799,1,564
2019_Oct_11,203,001,4,recog,34,BASIC,HF,lure,-,-,-,liberal,no,m,1,0.920155045012,1,565
2019_Oct_11,203,001,4,recog,35,BETTER,HF,target,left,aqua,imageability,liberal,no,z,1,1.07991717637,3,568
2019_Oct_11,203,001,4,recog,36,AUSPICES,LF,lure,-,-,-,conservative,no,m,1,1.50618061065,3,571
2019_Oct_11,203,001,4,recog,37,STYLED,LF,target,left,aqua,imageability,conservative,no,z,1,0.933221982869,1,572
2019_Oct_11,203,001,4,recog,38,CORNER,HF,target,left,aqua,imageability,liberal,no,z,1,1.41327348368,3,575
2019_Oct_11,203,001,4,recog,39,SLEEP,HF,lure,-,-,-,conservative,no,m,1,0.813430537693,3,578
2019_Oct_11,203,001,4,recog,40,IDEAS,HF,target,left,aqua,imageability,liberal,no,z,1,0.680079802795,3,581
2019_Oct_11,203,001,4,recog,41,BOOKS,HF,target,right,yellow,pleasantness,conservative,no,z,1,0.640125980487,1,582
2019_Oct_11,203,001,4,recog,42,IMPORTANT,HF,lure,-,-,-,conservative,no,m,1,0.720115744848,3,585
2019_Oct_11,203,001,4,recog,43,USING,HF,target,right,yellow,pleasantness,liberal,yes,z,1,1.18656469643,3,588
2019_Oct_11,203,001,4,recog,44,GREATER,HF,lure,-,-,-,conservative,no,z,0,2.62580891615,-3,585
2019_Oct_11,203,001,4,recog,45,PICTURE,HF,target,right,yellow,pleasantness,liberal,no,z,1,1.23965217889,3,588
2019_Oct_11,203,001,4,recog,46,SKATES,LF,lure,-,-,-,conservative,no,m,1,0.773489546596,3,591
2019_Oct_11,203,001,4,recog,47,INHABITS,LF,target,left,aqua,imageability,conservative,no,z,1,0.986553991533,1,592
2019_Oct_11,203,001,4,recog,48,JASMINE,LF,target,left,aqua,imageability,liberal,no,z,1,0.68024184265,3,595
2019_Oct_11,203,001,4,recog,49,SEINE,LF,target,left,aqua,imageability,conservative,no,z,1,0.800015324131,1,596
2019_Oct_11,203,001,4,recog,50,QUESTION,HF,target,right,yellow,pleasantness,conservative,no,z,1,0.733466069148,1,597
2019_Oct_11,203,001,4,recog,51,TATTERS,LF,lure,-,-,-,liberal,no,z,0,1.29294862677,-1,596
2019_Oct_11,203,001,4,recog,52,EXCEPT,HF,target,left,aqua,imageability,conservative,yes,m,0,0.853358697581,-1,595
2019_Oct_11,203,001,4,recog,53,SOJOURN,LF,lure,-,-,-,conservative,no,m,1,1.18667651126,3,598
2019_Oct_11,203,001,4,recog,54,STRAIGHT,HF,target,right,yellow,pleasantness,conservative,no,z,1,0.666709315165,1,599
2019_Oct_11,203,001,4,recog,55,AHEAD,HF,target,left,aqua,imageability,conservative,no,z,1,0.600163726242,1,600
2019_Oct_11,203,001,4,recog,56,FINAL,HF,lure,-,-,-,liberal,no,z,0,1.71973044194,-1,599
2019_Oct_11,203,001,4,recog,57,UPDATE,LF,lure,-,-,-,conservative,no,z,0,3.18555433028,-3,596
2019_Oct_11,203,001,4,recog,58,TOWARDS,HF,lure,-,-,-,liberal,no,m,1,1.45328119707,1,597
2019_Oct_11,203,001,4,recog,59,SOVIET,HF,lure,-,-,-,liberal,no,m,1,0.960050576964,1,598
2019_Oct_11,203,001,4,recog,60,WRONG,HF,target,left,aqua,imageability,liberal,no,z,1,0.760049037219,3,601
2019_Oct_11,203,001,4,recog,61,SUSPEND,LF,target,left,aqua,imageability,conservative,no,z,1,0.853601024151,1,602
2019_Oct_11,203,001,4,recog,62,SORRY,HF,target,left,aqua,imageability,conservative,no,z,1,0.719847022646,1,603
2019_Oct_11,203,001,4,recog,63,FLYWHEEL,LF,target,right,yellow,pleasantness,liberal,no,z,1,0.679932427181,3,606
2019_Oct_11,203,001,4,recog,64,SANDAL,LF,target,left,aqua,imageability,liberal,no,z,1,0.773378831582,3,609
2019_Oct_11,203,001,4,recog,65,AFIELD,LF,lure,-,-,-,conservative,no,m,1,1.20001217132,3,612
2019_Oct_11,203,001,4,recog,66,AUDACIOUS,LF,lure,-,-,-,liberal,no,m,1,1.46649954321,1,613
2019_Oct_11,203,001,4,recog,67,POUNDS,HF,target,right,yellow,pleasantness,liberal,no,z,1,0.760055636128,3,616
2019_Oct_11,203,001,4,recog,68,ADMIRALS,LF,target,left,aqua,imageability,liberal,no,z,1,1.37316018776,3,619
2019_Oct_11,203,001,4,recog,69,AMEND,LF,lure,-,-,-,conservative,no,z,0,1.17329869151,-3,616
2019_Oct_11,203,001,4,recog,70,SLOWLY,HF,lure,-,-,-,conservative,no,z,0,3.31905464043,-3,613
2019_Oct_11,203,001,4,recog,71,TWENTY,HF,target,right,yellow,pleasantness,liberal,no,z,1,1.14662627157,3,616
2019_Oct_11,203,001,4,recog,72,COOING,LF,lure,-,-,-,conservative,no,m,1,0.880002155644,3,619
2019_Oct_11,203,001,4,recog,73,HESITATES,LF,lure,-,-,-,conservative,no,m,1,1.15984131826,3,622
2019_Oct_11,203,001,4,recog,74,POWER,HF,target,right,yellow,pleasantness,liberal,no,z,1,0.706752955944,3,625
2019_Oct_11,203,001,4,recog,75,SOMEONE,HF,lure,-,-,-,liberal,no,m,1,0.920001437095,1,626
2019_Oct_11,203,001,4,recog,76,PEEKED,LF,lure,-,-,-,conservative,no,m,1,1.33314404243,3,629
2019_Oct_11,203,001,4,recog,77,LOOKED,HF,lure,-,-,-,liberal,no,m,1,1.49291350591,1,630
2019_Oct_11,203,001,4,recog,78,GUARDSMEN,LF,target,left,aqua,imageability,conservative,no,z,1,1.01328360201,1,631
2019_Oct_11,203,001,4,recog,79,GLASS,HF,lure,-,-,-,liberal,no,z,0,0.547146265531,-1,630
2019_Oct_11,203,001,4,recog,80,RUDIMENTS,LF,lure,-,-,-,liberal,no,m,1,0.906699138183,1,631
2019_Oct_11,203,001,4,recog,81,FOOLHARDY,LF,target,right,yellow,pleasantness,conservative,no,z,1,1.93289643674,1,632
2019_Oct_11,203,001,4,recog,82,DUSTER,LF,lure,-,-,-,liberal,no,m,1,1.42650796048,1,633
2019_Oct_11,203,001,4,recog,83,INCLUDING,HF,lure,-,-,-,conservative,no,m,1,1.49308434431,3,636
2019_Oct_11,203,001,4,recog,84,HYPNOSIS,LF,target,right,yellow,pleasantness,liberal,no,z,1,0.666781903155,3,639
2019_Oct_11,203,001,4,recog,85,TRUTH,HF,target,left,aqua,imageability,liberal,no,z,1,0.666793267941,3,642
2019_Oct_11,203,001,4,recog,86,MEETING,HF,target,right,yellow,pleasantness,conservative,no,z,1,0.693326744201,1,643
2019_Oct_11,203,001,4,recog,87,POINT,HF,lure,-,-,-,conservative,no,m,1,1.03999268254,3,646
2019_Oct_11,203,001,4,recog,88,HAIRDO,LF,target,right,yellow,pleasantness,liberal,no,z,1,1.1199028934,3,649
2019_Oct_11,203,001,4,recog,89,ALCHEMIST,LF,target,right,yellow,pleasantness,conservative,no,z,1,1.36004742415,1,650
2019_Oct_11,203,001,4,recog,90,YOUNG,HF,lure,-,-,-,conservative,no,m,1,0.68012342891,3,653
2019_Oct_11,203,001,4,recog,91,ANSWER,HF,lure,-,-,-,liberal,no,z,0,0.827021355533,-1,652
2019_Oct_11,203,001,4,recog,92,NEITHER,HF,target,left,aqua,imageability,conservative,no,z,1,0.88002818467,1,653
2019_Oct_11,203,001,4,recog,93,CELLO,LF,target,right,yellow,pleasantness,liberal,no,z,1,0.653544493504,3,656
2019_Oct_11,203,001,4,recog,94,REREAD,LF,lure,-,-,-,conservative,no,m,1,1.97292504667,3,659
2019_Oct_11,203,001,4,recog,95,SHORT,HF,lure,-,-,-,liberal,no,m,1,2.35944472388,1,660
