date,subj,session,cycle,task,trial,item,wf,type,source,colour,encoding,bias,null,response,corr,rt,points,total
2019_Oct_11,204,001,0,source,0,TOGETHER,HF,target,left,yellow,imageability,liberal,no,7,0,6.05123996695,-,-
2019_Oct_11,204,001,0,source,1,RIVER,HF,target,right,aqua,pleasantness,conservative,no,7,1,1.47980668203,-,-
2019_Oct_11,204,001,0,source,2,INROADS,LF,target,left,yellow,imageability,liberal,no,1,1,1.16007169321,-,-
2019_Oct_11,204,001,0,source,3,POLICE,HF,target,left,yellow,imageability,conservative,no,1,1,0.933074852607,-,-
2019_Oct_11,204,001,0,source,4,LANGUAGE,HF,target,right,aqua,pleasantness,liberal,no,1,0,0.839850586604,-,-
2019_Oct_11,204,001,0,source,5,DEITIES,LF,target,right,aqua,pleasantness,liberal,no,7,1,0.720118970545,-,-
2019_Oct_11,204,001,0,source,6,CAIRN,LF,target,left,yellow,imageability,conservative,no,7,0,0.840030956098,-,-
2019_Oct_11,204,001,0,source,7,VOICE,HF,target,left,yellow,imageability,liberal,no,7,0,1.21320517323,-,-
2019_Oct_11,204,001,0,source,8,MILES,HF,target,left,yellow,imageability,conservative,no,3,1,1.2929706489,-,-
2019_Oct_11,204,001,0,source,9,UNLESS,HF,target,left,yellow,imageability,liberal,yes,8,0,3.97215857558,-,-
2019_Oct_11,204,001,0,source,10,CRUCIALLY,LF,target,right,aqua,pleasantness,conservative,no,7,1,3.49240358481,-,-
2019_Oct_11,204,001,0,source,11,MAUSOLEUM,LF,target,right,aqua,pleasantness,liberal,no,7,1,0.933304347125,-,-
2019_Oct_11,204,001,0,source,12,HARDLY,HF,target,right,aqua,pleasantness,conservative,no,3,0,1.98599203588,-,-
2019_Oct_11,204,001,0,source,13,NETTLE,LF,target,left,yellow,imageability,liberal,no,3,1,1.15984696455,-,-
2019_Oct_11,204,001,0,source,14,SOUND,HF,target,right,aqua,pleasantness,conservative,no,3,0,1.23988922674,-,-
2019_Oct_11,204,001,0,source,15,COMES,HF,target,right,aqua,pleasantness,liberal,no,7,1,2.27951405819,-,-
2019_Oct_11,204,001,0,source,16,FIVER,LF,target,left,yellow,imageability,liberal,yes,7,0,1.77282718916,-,-
2019_Oct_11,204,001,0,source,17,AFRAID,HF,target,left,yellow,imageability,liberal,no,3,1,1.30628243076,-,-
2019_Oct_11,204,001,0,source,18,HYENA,LF,target,right,aqua,pleasantness,liberal,no,7,1,0.879995263468,-,-
2019_Oct_11,204,001,0,source,19,USING,HF,target,right,aqua,pleasantness,liberal,no,7,1,1.04009885128,-,-
2019_Oct_11,204,001,0,source,20,SIMILAR,HF,target,left,yellow,imageability,conservative,no,7,0,0.853500377969,-,-
2019_Oct_11,204,001,0,source,21,HOWEVER,HF,target,left,yellow,imageability,liberal,no,7,0,1.09329392089,-,-
2019_Oct_11,204,001,0,source,22,INFECT,LF,target,right,aqua,pleasantness,liberal,no,7,1,0.560134162642,-,-
2019_Oct_11,204,001,0,source,23,VICEREGAL,LF,target,right,aqua,pleasantness,conservative,no,3,0,2.51939888567,-,-
2019_Oct_11,204,001,0,source,24,OTTOMAN,LF,target,right,aqua,pleasantness,conservative,no,9,1,0.999982769581,-,-
2019_Oct_11,204,001,0,source,25,DISARMED,LF,target,left,yellow,imageability,conservative,no,1,1,1.14660923682,-,-
2019_Oct_11,204,001,0,source,26,ARRIVED,HF,target,right,aqua,pleasantness,liberal,no,3,0,1.0266521589,-,-
2019_Oct_11,204,001,0,source,27,CHLORIDE,LF,target,right,aqua,pleasantness,conservative,no,9,1,1.06658860431,-,-
2019_Oct_11,204,001,0,source,28,MOUTH,HF,target,right,aqua,pleasantness,conservative,no,9,1,0.986763372088,-,-
2019_Oct_11,204,001,0,source,29,PIZZA,LF,target,right,aqua,pleasantness,conservative,no,9,1,0.98639860045,-,-
2019_Oct_11,204,001,0,source,30,MEETING,HF,target,left,yellow,imageability,conservative,no,8,0,1.28010429169,-,-
2019_Oct_11,204,001,0,source,31,RADIAL,LF,target,left,yellow,imageability,conservative,no,8,0,1.11961576899,-,-
2019_Oct_11,204,001,0,source,32,TACITLY,LF,target,left,yellow,imageability,conservative,no,8,0,0.999971771441,-,-
2019_Oct_11,204,001,0,source,33,COACHED,LF,target,left,yellow,imageability,liberal,no,1,1,1.30651412491,-,-
2019_Oct_11,204,001,0,source,34,CHEEKBONE,LF,target,left,yellow,imageability,conservative,no,1,1,0.853384164292,-,-
2019_Oct_11,204,001,0,source,35,LETTER,HF,target,right,aqua,pleasantness,conservative,no,2,0,1.30649359505,-,-
2019_Oct_11,204,001,0,source,36,LEFTISTS,LF,target,right,aqua,pleasantness,conservative,no,1,0,3.6254051898,-,-
2019_Oct_11,204,001,0,source,37,ALONE,HF,target,left,yellow,imageability,conservative,no,1,1,1.25321530618,-,-
2019_Oct_11,204,001,0,source,38,ICEBOX,LF,target,left,yellow,imageability,conservative,no,9,0,1.18659407406,-,-
2019_Oct_11,204,001,0,source,39,ANIMAL,HF,target,right,aqua,pleasantness,liberal,yes,7,1,1.02636877349,-,-
2019_Oct_11,204,001,0,source,40,POSITION,HF,target,left,yellow,imageability,conservative,no,3,1,0.839795962509,-,-
2019_Oct_11,204,001,0,source,41,LAPELS,LF,target,right,aqua,pleasantness,liberal,no,7,1,1.99954834306,-,-
2019_Oct_11,204,001,0,source,42,REQUIRED,HF,target,right,aqua,pleasantness,liberal,no,7,1,0.946410463777,-,-
2019_Oct_11,204,001,0,source,43,ALTHOUGH,HF,target,left,yellow,imageability,liberal,no,7,0,0.706783725979,-,-
2019_Oct_11,204,001,0,source,44,VEHEMENCE,LF,target,left,yellow,imageability,liberal,yes,7,0,0.81312877282,-,-
2019_Oct_11,204,001,0,source,45,ORDER,HF,target,right,aqua,pleasantness,conservative,no,9,1,1.41310553008,-,-
2019_Oct_11,204,001,0,source,46,AFFABLE,LF,target,left,yellow,imageability,liberal,no,7,0,0.973117979979,-,-
2019_Oct_11,204,001,0,source,47,SHEARING,LF,target,right,aqua,pleasantness,liberal,no,9,1,3.57226291127,-,-
2019_Oct_11,204,001,0,recog,0,FOLLOWED,HF,lure,-,-,-,conservative,no,m,1,3.95879253622,3,3
2019_Oct_11,204,001,0,recog,1,COMES,HF,target,right,aqua,pleasantness,liberal,no,z,1,3.71893520409,3,6
2019_Oct_11,204,001,0,recog,2,CHLORIDE,LF,target,right,aqua,pleasantness,conservative,no,z,1,2.26617294795,1,7
2019_Oct_11,204,001,0,recog,3,BEECHES,LF,lure,-,-,-,conservative,no,m,1,1.58643768051,3,10
2019_Oct_11,204,001,0,recog,4,INFECT,LF,target,right,aqua,pleasantness,liberal,no,z,1,1.23987529576,3,13
2019_Oct_11,204,001,0,recog,5,AFRAID,HF,target,left,yellow,imageability,liberal,no,z,1,0.840233688475,3,16
2019_Oct_11,204,001,0,recog,6,TREES,HF,lure,-,-,-,conservative,no,m,1,0.94694387356,3,19
2019_Oct_11,204,001,0,recog,7,VEHEMENCE,LF,target,left,yellow,imageability,liberal,no,z,1,2.13289052378,3,22
2019_Oct_11,204,001,0,recog,8,ALONE,HF,target,left,yellow,imageability,conservative,no,z,1,0.840016291911,1,23
2019_Oct_11,204,001,0,recog,9,PEWTER,LF,lure,-,-,-,liberal,no,m,1,3.09245146338,1,24
2019_Oct_11,204,001,0,recog,10,NAPPY,LF,lure,-,-,-,conservative,no,m,1,1.30649836091,3,27
2019_Oct_11,204,001,0,recog,11,TURNED,HF,lure,-,-,-,liberal,no,m,1,1.49306677264,1,28
2019_Oct_11,204,001,0,recog,12,TACITLY,LF,target,left,yellow,imageability,conservative,no,z,1,0.89337193436,1,29
2019_Oct_11,204,001,0,recog,13,RIVER,HF,target,right,aqua,pleasantness,conservative,no,z,1,0.986787201391,1,30
2019_Oct_11,204,001,0,recog,14,EVADING,LF,lure,-,-,-,conservative,no,z,0,3.90549555052,-3,27
2019_Oct_11,204,001,0,recog,15,QUICKLY,HF,lure,-,-,-,liberal,no,m,1,1.37317861639,1,28
2019_Oct_11,204,001,0,recog,16,SIMILAR,HF,target,left,yellow,imageability,conservative,no,m,0,1.15991515302,-1,27
2019_Oct_11,204,001,0,recog,17,FAUCET,LF,lure,-,-,-,conservative,no,m,1,1.05328342133,3,30
2019_Oct_11,204,001,0,recog,18,WIPERS,LF,lure,-,-,-,conservative,no,m,1,4.83849598238,3,33
2019_Oct_11,204,001,0,recog,19,ARMAMENT,LF,lure,-,-,-,liberal,no,m,1,0.653202988268,1,34
2019_Oct_11,204,001,0,recog,20,VICEREGAL,LF,target,right,aqua,pleasantness,conservative,no,m,0,1.43979618247,-1,33
2019_Oct_11,204,001,0,recog,21,CHIEF,HF,lure,-,-,-,liberal,no,m,1,1.0399903363,1,34
2019_Oct_11,204,001,0,recog,22,HYENA,LF,target,right,aqua,pleasantness,liberal,no,z,1,0.840040121214,3,37
2019_Oct_11,204,001,0,recog,23,SAYING,HF,lure,-,-,-,liberal,no,z,0,0.840181997218,-1,36
2019_Oct_11,204,001,0,recog,24,POLICE,HF,target,left,yellow,imageability,conservative,no,z,1,0.600164092246,1,37
2019_Oct_11,204,001,0,recog,25,GREATER,HF,lure,-,-,-,liberal,no,m,1,0.693409987924,1,38
2019_Oct_11,204,001,0,recog,26,SONAR,LF,lure,-,-,-,conservative,no,m,1,1.01331324829,3,41
2019_Oct_11,204,001,0,recog,27,OTTOMAN,LF,target,right,aqua,pleasantness,conservative,no,z,1,0.813365966036,1,42
2019_Oct_11,204,001,0,recog,28,ICEBOX,LF,target,left,yellow,imageability,conservative,no,z,1,0.653242581571,1,43
2019_Oct_11,204,001,0,recog,29,RADIAL,LF,target,left,yellow,imageability,conservative,no,z,1,0.653560794418,1,44
2019_Oct_11,204,001,0,recog,30,BASIC,HF,lure,-,-,-,conservative,no,m,1,0.946395066381,3,47
2019_Oct_11,204,001,0,recog,31,ORDER,HF,target,right,aqua,pleasantness,conservative,no,z,1,0.919977901071,1,48
2019_Oct_11,204,001,0,recog,32,SACRAMENT,LF,lure,-,-,-,liberal,no,m,1,0.999971038232,1,49
2019_Oct_11,204,001,0,recog,33,FUELLED,LF,lure,-,-,-,conservative,no,m,1,3.17259710808,3,52
2019_Oct_11,204,001,0,recog,34,LEFTISTS,LF,target,right,aqua,pleasantness,conservative,no,z,1,0.760046984053,1,53
2019_Oct_11,204,001,0,recog,35,BEGAN,HF,lure,-,-,-,conservative,no,z,0,0.786785295047,-3,50
2019_Oct_11,204,001,0,recog,36,COACHED,LF,target,left,yellow,imageability,liberal,no,z,1,0.666791556655,3,53
2019_Oct_11,204,001,0,recog,37,MEETING,HF,target,left,yellow,imageability,conservative,no,z,1,0.880000762538,1,54
2019_Oct_11,204,001,0,recog,38,SITTING,HF,lure,-,-,-,conservative,no,m,1,0.826453385851,3,57
2019_Oct_11,204,001,0,recog,39,POSITION,HF,target,left,yellow,imageability,conservative,no,m,0,0.853344937593,-1,56
2019_Oct_11,204,001,0,recog,40,DENIALS,LF,lure,-,-,-,liberal,no,m,1,0.853395895641,1,57
2019_Oct_11,204,001,0,recog,41,MAUSOLEUM,LF,target,right,aqua,pleasantness,liberal,no,z,1,0.933497181177,3,60
2019_Oct_11,204,001,0,recog,42,CHEEKBONE,LF,target,left,yellow,imageability,conservative,no,z,1,0.706523803274,1,61
2019_Oct_11,204,001,0,recog,43,REQUIRED,HF,target,right,aqua,pleasantness,liberal,no,z,1,1.27987003132,3,64
2019_Oct_11,204,001,0,recog,44,AFFABLE,LF,target,left,yellow,imageability,liberal,no,z,1,0.760089510194,3,67
2019_Oct_11,204,001,0,recog,45,SOUND,HF,target,right,aqua,pleasantness,conservative,no,z,1,0.746881110842,1,68
2019_Oct_11,204,001,0,recog,46,MOUTH,HF,target,right,aqua,pleasantness,conservative,no,z,1,0.586800985727,1,69
2019_Oct_11,204,001,0,recog,47,PUMPKIN,LF,lure,-,-,-,liberal,no,m,1,0.773398359224,1,70
2019_Oct_11,204,001,0,recog,48,SEEMED,HF,lure,-,-,-,liberal,yes,m,1,1.30672088994,1,71
2019_Oct_11,204,001,0,recog,49,TOGETHER,HF,target,left,yellow,imageability,liberal,no,m,0,1.30655628445,-3,68
2019_Oct_11,204,001,0,recog,50,MILES,HF,target,left,yellow,imageability,conservative,no,z,1,0.61343628081,1,69
2019_Oct_11,204,001,0,recog,51,PAGANISM,LF,lure,-,-,-,liberal,no,z,0,1.63968517458,-1,68
2019_Oct_11,204,001,0,recog,52,DEITIES,LF,target,right,aqua,pleasantness,liberal,no,z,1,0.799834587977,3,71
2019_Oct_11,204,001,0,recog,53,MURPHY,LF,lure,-,-,-,liberal,no,m,1,3.86528231858,1,72
2019_Oct_11,204,001,0,recog,54,ARSENALS,LF,lure,-,-,-,conservative,no,z,0,0.919761237716,-3,69
2019_Oct_11,204,001,0,recog,55,CAIRN,LF,target,left,yellow,imageability,conservative,no,m,0,0.480255039531,-1,68
2019_Oct_11,204,001,0,recog,56,ENOUGH,HF,lure,-,-,-,liberal,no,m,1,0.559901368682,1,69
2019_Oct_11,204,001,0,recog,57,THWART,LF,lure,-,-,-,conservative,no,z,0,0.693584125138,-3,66
2019_Oct_11,204,001,0,recog,58,SLEEP,HF,lure,-,-,-,liberal,no,m,1,0.693397156761,1,67
2019_Oct_11,204,001,0,recog,59,UNLESS,HF,target,left,yellow,imageability,liberal,no,m,0,0.493649674052,-3,64
2019_Oct_11,204,001,0,recog,60,LANGUAGE,HF,target,right,aqua,pleasantness,liberal,no,z,1,0.866665151367,3,67
2019_Oct_11,204,001,0,recog,61,GIRLS,HF,lure,-,-,-,conservative,no,m,1,0.746863147213,3,70
2019_Oct_11,204,001,0,recog,62,BIDDER,LF,lure,-,-,-,liberal,no,z,0,0.946667820249,-1,69
2019_Oct_11,204,001,0,recog,63,FIVER,LF,target,left,yellow,imageability,liberal,no,m,0,0.880038156213,-3,66
2019_Oct_11,204,001,0,recog,64,WALKED,HF,lure,-,-,-,liberal,no,m,1,0.826712208742,1,67
2019_Oct_11,204,001,0,recog,65,UPLIFT,LF,lure,-,-,-,liberal,no,m,1,0.933368136336,1,68
2019_Oct_11,204,001,0,recog,66,EVOCATION,LF,lure,-,-,-,conservative,no,m,1,0.773423288341,3,71
2019_Oct_11,204,001,0,recog,67,HAVING,HF,lure,-,-,-,liberal,no,m,1,0.693443715553,1,72
2019_Oct_11,204,001,0,recog,68,LAPELS,LF,target,right,aqua,pleasantness,liberal,no,z,1,0.866788697138,3,75
2019_Oct_11,204,001,0,recog,69,NARRATOR,LF,lure,-,-,-,liberal,no,m,1,0.799983429469,1,76
2019_Oct_11,204,001,0,recog,70,INROADS,LF,target,left,yellow,imageability,liberal,no,z,1,0.840058084843,3,79
2019_Oct_11,204,001,0,recog,71,ARRIVED,HF,target,right,aqua,pleasantness,liberal,no,m,0,0.653454112461,-3,76
2019_Oct_11,204,001,0,recog,72,CEASELESS,LF,lure,-,-,-,conservative,no,m,1,0.90672404274,3,79
2019_Oct_11,204,001,0,recog,73,EIGHT,HF,lure,-,-,-,conservative,no,m,1,0.706750364955,3,82
2019_Oct_11,204,001,0,recog,74,ANIMAL,HF,target,right,aqua,pleasantness,liberal,no,z,1,0.613711600911,3,85
2019_Oct_11,204,001,0,recog,75,NEWMARKET,LF,lure,-,-,-,liberal,no,m,1,1.05327682245,1,86
2019_Oct_11,204,001,0,recog,76,YANKED,LF,lure,-,-,-,conservative,no,m,1,1.45322527783,3,89
2019_Oct_11,204,001,0,recog,77,TAKEN,HF,lure,-,-,-,conservative,no,m,1,0.933497547781,3,92
2019_Oct_11,204,001,0,recog,78,VOICE,HF,target,left,yellow,imageability,liberal,no,m,0,0.906712677996,-3,89
2019_Oct_11,204,001,0,recog,79,ALTHOUGH,HF,target,left,yellow,imageability,liberal,no,m,0,0.61351253458,-3,86
2019_Oct_11,204,001,0,recog,80,SHEARING,LF,target,right,aqua,pleasantness,liberal,no,z,1,0.719853915375,3,89
2019_Oct_11,204,001,0,recog,81,RUNNING,HF,lure,-,-,-,conservative,no,z,0,1.25320614107,-3,86
2019_Oct_11,204,001,0,recog,82,LETTER,HF,target,right,aqua,pleasantness,conservative,no,z,1,0.53347540486,1,87
2019_Oct_11,204,001,0,recog,83,LICENSING,LF,lure,-,-,-,liberal,yes,z,0,1.05334097826,-1,86
2019_Oct_11,204,001,0,recog,84,INSIDE,HF,lure,-,-,-,conservative,yes,m,1,0.666515869949,3,89
2019_Oct_11,204,001,0,recog,85,NETTLE,LF,target,left,yellow,imageability,liberal,no,m,0,0.853358135361,-3,86
2019_Oct_11,204,001,0,recog,86,HARDLY,HF,target,right,aqua,pleasantness,conservative,yes,m,0,0.693561762254,-1,85
2019_Oct_11,204,001,0,recog,87,HOWEVER,HF,target,left,yellow,imageability,liberal,no,z,1,0.680097839452,3,88
2019_Oct_11,204,001,0,recog,88,OFFER,HF,lure,-,-,-,conservative,no,m,1,0.906712311391,3,91
2019_Oct_11,204,001,0,recog,89,CRUCIALLY,LF,target,right,aqua,pleasantness,conservative,no,m,0,0.586826648053,-1,90
2019_Oct_11,204,001,0,recog,90,PIZZA,LF,target,right,aqua,pleasantness,conservative,no,z,1,0.613519500069,1,91
2019_Oct_11,204,001,0,recog,91,DISARMED,LF,target,left,yellow,imageability,conservative,no,z,1,0.5868460781,1,92
2019_Oct_11,204,001,0,recog,92,OUGHT,HF,lure,-,-,-,liberal,no,z,0,3.10578230869,-1,91
2019_Oct_11,204,001,0,recog,93,USING,HF,target,right,aqua,pleasantness,liberal,no,z,1,0.586838012797,3,94
2019_Oct_11,204,001,0,recog,94,WESTERN,HF,lure,-,-,-,liberal,no,z,0,0.506858073404,-1,93
2019_Oct_11,204,001,0,recog,95,SOVIET,HF,lure,-,-,-,conservative,no,m,1,0.440213745182,3,96
2019_Oct_11,204,001,1,source,0,ABOVE,HF,target,right,aqua,pleasantness,conservative,no,7,1,4.49166927567,-,-
2019_Oct_11,204,001,1,source,1,WRANGLING,LF,target,left,yellow,imageability,liberal,no,2,1,1.82630234473,-,-
2019_Oct_11,204,001,1,source,2,USUAL,HF,target,left,yellow,imageability,conservative,no,1,1,2.01290301767,-,-
2019_Oct_11,204,001,1,source,3,GLASS,HF,target,left,yellow,imageability,liberal,no,1,1,0.800153167428,-,-
2019_Oct_11,204,001,1,source,4,EGGSHELL,LF,target,left,yellow,imageability,liberal,no,2,1,1.19999750709,-,-
2019_Oct_11,204,001,1,source,5,THRASH,LF,target,right,aqua,pleasantness,liberal,no,9,1,2.21285249955,-,-
2019_Oct_11,204,001,1,source,6,INVOLVED,HF,target,left,yellow,imageability,liberal,no,8,0,1.13332861635,-,-
2019_Oct_11,204,001,1,source,7,OFTEN,HF,target,right,aqua,pleasantness,liberal,no,7,1,1.25324280153,-,-
2019_Oct_11,204,001,1,source,8,NATIONAL,HF,target,right,aqua,pleasantness,conservative,no,2,0,1.38651826021,-,-
2019_Oct_11,204,001,1,source,9,MEANS,HF,target,left,yellow,imageability,conservative,no,1,1,0.813119607704,-,-
2019_Oct_11,204,001,1,source,10,FEUDALISM,LF,target,left,yellow,imageability,liberal,no,2,1,1.67959962372,-,-
2019_Oct_11,204,001,1,source,11,PARENTS,HF,target,right,aqua,pleasantness,liberal,no,1,0,1.1197345489,-,-
2019_Oct_11,204,001,1,source,12,UNTIL,HF,target,left,yellow,imageability,liberal,no,3,1,1.14633721617,-,-
2019_Oct_11,204,001,1,source,13,PEACEABLY,LF,target,right,aqua,pleasantness,liberal,no,7,1,0.839841788092,-,-
2019_Oct_11,204,001,1,source,14,SCENARIOS,LF,target,right,aqua,pleasantness,conservative,no,7,1,0.853488280015,-,-
2019_Oct_11,204,001,1,source,15,SUNBURN,LF,target,right,aqua,pleasantness,conservative,no,7,1,0.706792891096,-,-
2019_Oct_11,204,001,1,source,16,MYSELF,HF,target,right,aqua,pleasantness,liberal,no,7,1,0.733402890458,-,-
2019_Oct_11,204,001,1,source,17,PLACE,HF,target,left,yellow,imageability,conservative,yes,7,0,0.666517336368,-,-
2019_Oct_11,204,001,1,source,18,SCABS,LF,target,left,yellow,imageability,liberal,no,7,0,0.773434653086,-,-
2019_Oct_11,204,001,1,source,19,REPORT,HF,target,left,yellow,imageability,liberal,no,7,0,0.746885143493,-,-
2019_Oct_11,204,001,1,source,20,PITCHER,LF,target,right,aqua,pleasantness,liberal,no,9,1,0.853756268023,-,-
2019_Oct_11,204,001,1,source,21,COVER,HF,target,left,yellow,imageability,conservative,no,7,0,0.826724306696,-,-
2019_Oct_11,204,001,1,source,22,WHETHER,HF,target,right,aqua,pleasantness,conservative,no,9,1,0.825997696256,-,-
2019_Oct_11,204,001,1,source,23,DIZZINESS,LF,target,left,yellow,imageability,conservative,no,8,0,0.866844054442,-,-
2019_Oct_11,204,001,1,source,24,DEGREE,HF,target,left,yellow,imageability,liberal,yes,7,0,0.760116638939,-,-
2019_Oct_11,204,001,1,source,25,JOYFULLY,LF,target,right,aqua,pleasantness,liberal,no,9,1,0.840018124934,-,-
2019_Oct_11,204,001,1,source,26,BUOYANCY,LF,target,left,yellow,imageability,conservative,no,9,0,0.826701577207,-,-
2019_Oct_11,204,001,1,source,27,PUBLIC,HF,target,left,yellow,imageability,conservative,no,1,1,1.01332461303,-,-
2019_Oct_11,204,001,1,source,28,NAIVELY,LF,target,right,aqua,pleasantness,conservative,no,2,0,1.93299236656,-,-
2019_Oct_11,204,001,1,source,29,PUFFS,LF,target,left,yellow,imageability,conservative,no,3,1,0.786795559978,-,-
2019_Oct_11,204,001,1,source,30,DAYBREAK,LF,target,right,aqua,pleasantness,conservative,no,8,1,0.800041353006,-,-
2019_Oct_11,204,001,1,source,31,DURING,HF,target,right,aqua,pleasantness,conservative,no,7,1,0.666438149761,-,-
2019_Oct_11,204,001,1,source,32,YOUNG,HF,target,right,aqua,pleasantness,conservative,no,3,0,0.720105772777,-,-
2019_Oct_11,204,001,1,source,33,WISPY,LF,target,left,yellow,imageability,liberal,no,2,1,0.653355129203,-,-
2019_Oct_11,204,001,1,source,34,SPUDS,LF,target,right,aqua,pleasantness,conservative,no,1,0,1.05308802105,-,-
2019_Oct_11,204,001,1,source,35,FITFUL,LF,target,right,aqua,pleasantness,liberal,no,1,0,0.893349204871,-,-
2019_Oct_11,204,001,1,source,36,BABBLED,LF,target,left,yellow,imageability,conservative,no,9,0,1.02639370261,-,-
2019_Oct_11,204,001,1,source,37,MAJOR,HF,target,right,aqua,pleasantness,conservative,no,8,1,1.2665311207,-,-
2019_Oct_11,204,001,1,source,38,MINISTER,HF,target,left,yellow,imageability,liberal,no,7,0,1.06658860431,-,-
2019_Oct_11,204,001,1,source,39,GORGED,LF,target,left,yellow,imageability,conservative,no,1,1,2.05291095099,-,-
2019_Oct_11,204,001,1,source,40,ANYONE,HF,target,right,aqua,pleasantness,liberal,yes,7,1,0.826723573486,-,-
2019_Oct_11,204,001,1,source,41,BEHIND,HF,target,right,aqua,pleasantness,liberal,no,8,1,0.653257612362,-,-
2019_Oct_11,204,001,1,source,42,PALATABLE,LF,target,right,aqua,pleasantness,liberal,no,9,1,0.600167391689,-,-
2019_Oct_11,204,001,1,source,43,BLACK,HF,target,left,yellow,imageability,conservative,no,9,0,0.906457887756,-,-
2019_Oct_11,204,001,1,source,44,STEADFAST,LF,target,left,yellow,imageability,conservative,no,8,0,0.733466679669,-,-
2019_Oct_11,204,001,1,source,45,REVERE,LF,target,left,yellow,imageability,liberal,yes,8,0,1.13324099784,-,-
2019_Oct_11,204,001,1,source,46,TONAL,LF,target,right,aqua,pleasantness,conservative,no,7,1,1.38654245612,-,-
2019_Oct_11,204,001,1,source,47,GENERAL,HF,target,right,aqua,pleasantness,liberal,no,7,1,1.46646520518,-,-
2019_Oct_11,204,001,1,recog,0,ATTACK,HF,lure,-,-,-,liberal,no,m,1,2.07957667427,1,97
2019_Oct_11,204,001,1,recog,1,GLASS,HF,target,left,yellow,imageability,liberal,no,z,1,0.653422951065,3,100
2019_Oct_11,204,001,1,recog,2,MAJOR,HF,target,right,aqua,pleasantness,conservative,no,z,1,1.27988689513,1,101
2019_Oct_11,204,001,1,recog,3,TONAL,LF,target,right,aqua,pleasantness,conservative,no,z,1,0.879998929514,1,102
2019_Oct_11,204,001,1,recog,4,DURING,HF,target,right,aqua,pleasantness,conservative,no,z,1,0.546841810822,1,103
2019_Oct_11,204,001,1,recog,5,YOUNG,HF,target,right,aqua,pleasantness,conservative,no,z,1,0.560055709244,1,104
2019_Oct_11,204,001,1,recog,6,THRASH,LF,target,right,aqua,pleasantness,liberal,no,z,1,0.666587724463,3,107
2019_Oct_11,204,001,1,recog,7,OFTEN,HF,target,right,aqua,pleasantness,liberal,no,z,1,0.760225153919,3,110
2019_Oct_11,204,001,1,recog,8,INVOLVED,HF,target,left,yellow,imageability,liberal,no,m,0,0.613573757558,-3,107
2019_Oct_11,204,001,1,recog,9,PITCHER,LF,target,right,aqua,pleasantness,liberal,no,z,1,1.47978211952,3,110
2019_Oct_11,204,001,1,recog,10,THANK,HF,lure,-,-,-,conservative,yes,m,1,0.813109342773,3,113
2019_Oct_11,204,001,1,recog,11,PEACEABLY,LF,target,right,aqua,pleasantness,liberal,no,m,0,0.960027260723,-3,110
2019_Oct_11,204,001,1,recog,12,CONCERNED,HF,lure,-,-,-,conservative,no,m,1,1.07999460358,3,113
2019_Oct_11,204,001,1,recog,13,UNTIL,HF,target,left,yellow,imageability,liberal,no,m,0,0.666808053864,-3,110
2019_Oct_11,204,001,1,recog,14,PERHAPS,HF,lure,-,-,-,liberal,no,z,0,0.559942428404,-1,109
2019_Oct_11,204,001,1,recog,15,BEYOND,HF,lure,-,-,-,liberal,no,z,0,0.533463673511,-1,108
2019_Oct_11,204,001,1,recog,16,STOOD,HF,lure,-,-,-,liberal,no,m,1,0.520283502717,1,109
2019_Oct_11,204,001,1,recog,17,WRANGLING,LF,target,left,yellow,imageability,liberal,no,z,1,0.600157126758,3,112
2019_Oct_11,204,001,1,recog,18,SUNBURN,LF,target,right,aqua,pleasantness,conservative,no,z,1,0.600247311505,1,113
2019_Oct_11,204,001,1,recog,19,BABBLED,LF,target,left,yellow,imageability,conservative,no,z,1,0.520154091271,1,114
2019_Oct_11,204,001,1,recog,20,SNIGGERED,LF,lure,-,-,-,conservative,no,z,0,0.467040041294,-3,111
2019_Oct_11,204,001,1,recog,21,COVER,HF,target,left,yellow,imageability,conservative,no,z,1,0.573546394186,1,112
2019_Oct_11,204,001,1,recog,22,FEUDALISM,LF,target,left,yellow,imageability,liberal,no,z,1,0.666716769304,3,115
2019_Oct_11,204,001,1,recog,23,IMMEDIACY,LF,lure,-,-,-,liberal,no,z,0,0.680110670615,-1,114
2019_Oct_11,204,001,1,recog,24,RANGE,HF,lure,-,-,-,liberal,no,z,0,0.626777757655,-1,113
2019_Oct_11,204,001,1,recog,25,DIZZINESS,LF,target,left,yellow,imageability,conservative,no,z,1,0.720100640312,1,114
2019_Oct_11,204,001,1,recog,26,BOLDNESS,LF,lure,-,-,-,liberal,no,z,0,0.880015426724,-1,113
2019_Oct_11,204,001,1,recog,27,HOURS,HF,lure,-,-,-,conservative,no,m,1,0.560297301716,3,116
2019_Oct_11,204,001,1,recog,28,USUAL,HF,target,left,yellow,imageability,conservative,no,m,0,0.38708906367,-1,115
2019_Oct_11,204,001,1,recog,29,LOYALIST,LF,lure,-,-,-,liberal,no,m,1,0.82686544949,1,116
2019_Oct_11,204,001,1,recog,30,RAKING,LF,lure,-,-,-,conservative,no,m,1,0.667476374163,3,119
2019_Oct_11,204,001,1,recog,31,PUBLIC,HF,target,left,yellow,imageability,conservative,no,m,0,0.653237082501,-1,118
2019_Oct_11,204,001,1,recog,32,ANYONE,HF,target,right,aqua,pleasantness,liberal,no,m,0,0.853390029966,-3,115
2019_Oct_11,204,001,1,recog,33,SENSE,HF,lure,-,-,-,conservative,no,z,0,1.33351419163,-3,112
2019_Oct_11,204,001,1,recog,34,BLACK,HF,target,left,yellow,imageability,conservative,no,z,1,0.70678849184,1,113
2019_Oct_11,204,001,1,recog,35,DOGMAS,LF,lure,-,-,-,conservative,no,m,1,0.760085844148,3,116
2019_Oct_11,204,001,1,recog,36,DYNAMISM,LF,lure,-,-,-,liberal,no,m,1,0.66679668912,1,117
2019_Oct_11,204,001,1,recog,37,MINISTER,HF,target,left,yellow,imageability,liberal,yes,m,0,0.586797686285,-3,114
2019_Oct_11,204,001,1,recog,38,SCABS,LF,target,left,yellow,imageability,liberal,no,z,1,0.613596853652,3,117
2019_Oct_11,204,001,1,recog,39,PALATABLE,LF,target,right,aqua,pleasantness,liberal,no,z,1,0.706525269693,3,120
2019_Oct_11,204,001,1,recog,40,MEANS,HF,target,left,yellow,imageability,conservative,no,z,1,0.573444111486,1,121
2019_Oct_11,204,001,1,recog,41,ENVIRONS,LF,lure,-,-,-,conservative,no,m,1,0.680113970057,3,124
2019_Oct_11,204,001,1,recog,42,GENERAL,HF,target,right,aqua,pleasantness,liberal,no,z,1,0.706553498252,3,127
2019_Oct_11,204,001,1,recog,43,ENMESHED,LF,lure,-,-,-,conservative,no,m,1,0.600266008342,3,130
2019_Oct_11,204,001,1,recog,44,TUMBLER,LF,lure,-,-,-,conservative,no,z,0,0.60027444025,-3,127
2019_Oct_11,204,001,1,recog,45,FIANCE,LF,lure,-,-,-,liberal,no,m,1,0.453539458026,1,128
2019_Oct_11,204,001,1,recog,46,TARIFF,LF,lure,-,-,-,liberal,no,m,1,0.45351929477,1,129
2019_Oct_11,204,001,1,recog,47,FITFUL,LF,target,right,aqua,pleasantness,liberal,no,z,1,0.760122504614,3,132
2019_Oct_11,204,001,1,recog,48,CLUBBED,LF,lure,-,-,-,liberal,no,m,1,1.22658257733,1,133
2019_Oct_11,204,001,1,recog,49,TELEPHONE,HF,lure,-,-,-,conservative,no,m,1,0.840097678146,3,136
2019_Oct_11,204,001,1,recog,50,STEADFAST,LF,target,left,yellow,imageability,conservative,no,z,1,0.666735832746,1,137
2019_Oct_11,204,001,1,recog,51,EXPECT,HF,lure,-,-,-,liberal,no,m,1,0.893204762634,1,138
2019_Oct_11,204,001,1,recog,52,PLIABLE,LF,lure,-,-,-,liberal,no,m,1,0.613498236998,1,139
2019_Oct_11,204,001,1,recog,53,REVERE,LF,target,left,yellow,imageability,liberal,no,m,0,0.973084618955,-3,136
2019_Oct_11,204,001,1,recog,54,INMATE,LF,lure,-,-,-,liberal,no,m,1,0.800249217849,1,137
2019_Oct_11,204,001,1,recog,55,BROUGHT,HF,lure,-,-,-,conservative,yes,z,0,0.746782860792,-3,134
2019_Oct_11,204,001,1,recog,56,MERELY,HF,lure,-,-,-,liberal,no,m,1,0.506822146148,1,135
2019_Oct_11,204,001,1,recog,57,TYPHOID,LF,lure,-,-,-,liberal,no,m,1,0.680107004569,1,136
2019_Oct_11,204,001,1,recog,58,PLACE,HF,target,left,yellow,imageability,conservative,yes,m,0,0.600233013923,-1,135
2019_Oct_11,204,001,1,recog,59,SCENARIOS,LF,target,right,aqua,pleasantness,conservative,no,z,1,0.626803053377,1,136
2019_Oct_11,204,001,1,recog,60,REPORT,HF,target,left,yellow,imageability,liberal,no,z,1,0.72007057873,3,139
2019_Oct_11,204,001,1,recog,61,DEGREE,HF,target,left,yellow,imageability,liberal,no,z,1,0.840072749029,3,142
2019_Oct_11,204,001,1,recog,62,SHALL,HF,lure,-,-,-,conservative,no,m,1,0.746472346644,3,145
2019_Oct_11,204,001,1,recog,63,TOLERABLY,LF,lure,-,-,-,conservative,no,m,1,0.759829954094,3,148
2019_Oct_11,204,001,1,recog,64,NATIONAL,HF,target,right,aqua,pleasantness,conservative,no,z,1,0.840036088563,1,149
2019_Oct_11,204,001,1,recog,65,NOSTRIL,LF,lure,-,-,-,conservative,no,m,1,0.760106007404,3,152
2019_Oct_11,204,001,1,recog,66,BRACES,LF,lure,-,-,-,conservative,no,m,1,0.706728368675,3,155
2019_Oct_11,204,001,1,recog,67,PARENTS,HF,target,right,aqua,pleasantness,liberal,no,z,1,0.653455945484,3,158
2019_Oct_11,204,001,1,recog,68,BEHIND,HF,target,right,aqua,pleasantness,liberal,no,z,1,0.786691810858,3,161
2019_Oct_11,204,001,1,recog,69,SPUDS,LF,target,right,aqua,pleasantness,conservative,no,z,1,0.600137696711,1,162
2019_Oct_11,204,001,1,recog,70,LEPROSY,LF,lure,-,-,-,conservative,no,m,1,0.746727503488,3,165
2019_Oct_11,204,001,1,recog,71,PUFFS,LF,target,left,yellow,imageability,conservative,no,z,1,0.680143665035,1,166
2019_Oct_11,204,001,1,recog,72,SUPPORT,HF,lure,-,-,-,liberal,no,m,1,0.680131567081,1,167
2019_Oct_11,204,001,1,recog,73,LUXURIANT,LF,lure,-,-,-,conservative,no,m,1,0.533342327368,3,170
2019_Oct_11,204,001,1,recog,74,JOYFULLY,LF,target,right,aqua,pleasantness,liberal,no,z,1,0.653429183344,3,173
2019_Oct_11,204,001,1,recog,75,GORGED,LF,target,left,yellow,imageability,conservative,no,z,1,0.613560193186,1,174
2019_Oct_11,204,001,1,recog,76,LIGHT,HF,lure,-,-,-,conservative,no,m,1,0.720117137521,3,177
2019_Oct_11,204,001,1,recog,77,MYSELF,HF,target,right,aqua,pleasantness,liberal,no,m,0,0.706715904117,-3,174
2019_Oct_11,204,001,1,recog,78,FEELING,HF,lure,-,-,-,liberal,no,z,0,0.799848518954,-1,173
2019_Oct_11,204,001,1,recog,79,IDEAS,HF,lure,-,-,-,liberal,no,m,1,0.560138561898,1,174
2019_Oct_11,204,001,1,recog,80,DAYBREAK,LF,target,right,aqua,pleasantness,conservative,no,m,0,0.61335599439,-1,173
2019_Oct_11,204,001,1,recog,81,DOING,HF,lure,-,-,-,conservative,no,z,0,0.546859041241,-3,170
2019_Oct_11,204,001,1,recog,82,WHETHER,HF,target,right,aqua,pleasantness,conservative,no,m,0,0.480190517111,-1,169
2019_Oct_11,204,001,1,recog,83,WHATEVER,HF,lure,-,-,-,conservative,no,m,1,0.600184255503,3,172
2019_Oct_11,204,001,1,recog,84,NAIVELY,LF,target,right,aqua,pleasantness,conservative,no,z,1,0.906805428975,1,173
2019_Oct_11,204,001,1,recog,85,PICTURE,HF,lure,-,-,-,liberal,no,m,1,0.613759992727,1,174
2019_Oct_11,204,001,1,recog,86,EGGSHELL,LF,target,left,yellow,imageability,liberal,no,m,0,0.680070344102,-3,171
2019_Oct_11,204,001,1,recog,87,DWINDLE,LF,lure,-,-,-,liberal,no,z,0,0.73358472637,-1,170
2019_Oct_11,204,001,1,recog,88,MAKES,HF,lure,-,-,-,conservative,no,m,1,0.506896200289,3,173
2019_Oct_11,204,001,1,recog,89,BUOYANCY,LF,target,left,yellow,imageability,conservative,no,z,1,0.760057982193,1,174
2019_Oct_11,204,001,1,recog,90,CORNER,HF,lure,-,-,-,liberal,no,z,0,0.746735568791,-1,173
2019_Oct_11,204,001,1,recog,91,ABOVE,HF,target,right,aqua,pleasantness,conservative,no,m,0,0.800109174868,-1,172
2019_Oct_11,204,001,1,recog,92,WISPY,LF,target,left,yellow,imageability,liberal,no,z,1,0.720138400592,3,175
2019_Oct_11,204,001,1,recog,93,RODENTS,LF,lure,-,-,-,conservative,no,m,1,0.773426954388,3,178
2019_Oct_11,204,001,1,recog,94,OXIDE,LF,lure,-,-,-,liberal,no,z,0,1.01329381824,-1,177
2019_Oct_11,204,001,1,recog,95,VARIOUS,HF,lure,-,-,-,conservative,no,m,1,0.560120964874,3,180
2019_Oct_11,204,001,2,source,0,GARDEN,HF,target,right,aqua,pleasantness,conservative,no,8,1,3.73234156996,-,-
2019_Oct_11,204,001,2,source,1,HUMAN,HF,target,left,yellow,imageability,conservative,yes,7,0,0.959747174761,-,-
2019_Oct_11,204,001,2,source,2,EMBATTLED,LF,target,left,yellow,imageability,conservative,no,8,0,1.46618438601,-,-
2019_Oct_11,204,001,2,source,3,FIFTIETH,LF,target,left,yellow,imageability,liberal,no,3,1,1.42645067298,-,-
2019_Oct_11,204,001,2,source,4,CAUGHT,HF,target,right,aqua,pleasantness,liberal,no,3,0,1.2129668802,-,-
2019_Oct_11,204,001,2,source,5,WRITE,HF,target,right,aqua,pleasantness,conservative,yes,3,0,0.599875940983,-,-
2019_Oct_11,204,001,2,source,6,HUDDLE,LF,target,left,yellow,imageability,liberal,no,2,1,0.986405565939,-,-
2019_Oct_11,204,001,2,source,7,GROUND,HF,target,right,aqua,pleasantness,conservative,no,8,1,1.093287322,-,-
2019_Oct_11,204,001,2,source,8,NEARLY,HF,target,right,aqua,pleasantness,liberal,no,7,1,0.98641509766,-,-
2019_Oct_11,204,001,2,source,9,UTTERANCE,LF,target,right,aqua,pleasantness,liberal,no,7,1,0.999755108086,-,-
2019_Oct_11,204,001,2,source,10,MAYBE,HF,target,left,yellow,imageability,conservative,no,3,1,0.86669447974,-,-
2019_Oct_11,204,001,2,source,11,SPEAK,HF,target,left,yellow,imageability,liberal,no,3,1,0.893125942632,-,-
2019_Oct_11,204,001,2,source,12,SOAPY,LF,target,right,aqua,pleasantness,liberal,no,2,0,0.959954673,-,-
2019_Oct_11,204,001,2,source,13,HADJI,LF,target,right,aqua,pleasantness,conservative,no,9,1,0.826723206882,-,-
2019_Oct_11,204,001,2,source,14,SUBJECT,HF,target,left,yellow,imageability,liberal,no,8,0,0.746826853351,-,-
2019_Oct_11,204,001,2,source,15,POINT,HF,target,right,aqua,pleasantness,conservative,no,7,1,0.666663978232,-,-
2019_Oct_11,204,001,2,source,16,STAFF,HF,target,left,yellow,imageability,conservative,no,9,0,1.30629599514,-,-
2019_Oct_11,204,001,2,source,17,MUSIC,HF,target,right,aqua,pleasantness,liberal,no,9,1,0.720099540498,-,-
2019_Oct_11,204,001,2,source,18,FREEDOM,HF,target,right,aqua,pleasantness,liberal,no,7,1,1.05338167138,-,-
2019_Oct_11,204,001,2,source,19,BINDINGS,LF,target,right,aqua,pleasantness,conservative,no,3,0,0.973179569562,-,-
2019_Oct_11,204,001,2,source,20,CLOSE,HF,target,left,yellow,imageability,conservative,no,3,1,0.640130965849,-,-
2019_Oct_11,204,001,2,source,21,TIPSY,LF,target,right,aqua,pleasantness,liberal,no,1,0,0.973321812171,-,-
2019_Oct_11,204,001,2,source,22,POTASH,LF,target,left,yellow,imageability,liberal,no,1,1,0.786738736255,-,-
2019_Oct_11,204,001,2,source,23,GEARING,LF,target,left,yellow,imageability,liberal,no,9,0,1.39977541798,-,-
2019_Oct_11,204,001,2,source,24,MAGGOT,LF,target,left,yellow,imageability,conservative,no,1,1,1.09328915503,-,-
2019_Oct_11,204,001,2,source,25,JABBED,LF,target,right,aqua,pleasantness,liberal,no,9,1,0.773193793823,-,-
2019_Oct_11,204,001,2,source,26,IRATE,LF,target,left,yellow,imageability,conservative,no,7,0,1.22630139156,-,-
2019_Oct_11,204,001,2,source,27,MYTHIC,LF,target,left,yellow,imageability,conservative,no,3,1,0.733504806554,-,-
2019_Oct_11,204,001,2,source,28,MASKING,LF,target,right,aqua,pleasantness,conservative,no,7,1,0.680187657594,-,-
2019_Oct_11,204,001,2,source,29,UTILIZE,LF,target,right,aqua,pleasantness,conservative,no,7,1,0.400216809997,-,-
2019_Oct_11,204,001,2,source,30,ERUDITE,LF,target,right,aqua,pleasantness,liberal,no,7,1,0.333330889302,-,-
2019_Oct_11,204,001,2,source,31,SUCCESS,HF,target,left,yellow,imageability,liberal,no,3,1,0.46683840873,-,-
2019_Oct_11,204,001,2,source,32,WHOLE,HF,target,left,yellow,imageability,liberal,no,2,1,0.693403755645,-,-
2019_Oct_11,204,001,2,source,33,HERSELF,HF,target,left,yellow,imageability,liberal,no,2,1,0.719827886443,-,-
2019_Oct_11,204,001,2,source,34,EFFECT,HF,target,right,aqua,pleasantness,liberal,no,7,1,0.546828246449,-,-
2019_Oct_11,204,001,2,source,35,SMIRK,LF,target,left,yellow,imageability,conservative,no,7,0,0.360374948584,-,-
2019_Oct_11,204,001,2,source,36,PRIVATE,HF,target,right,aqua,pleasantness,liberal,no,7,1,0.746760864512,-,-
2019_Oct_11,204,001,2,source,37,REACHED,HF,target,left,yellow,imageability,liberal,yes,3,1,0.773445651226,-,-
2019_Oct_11,204,001,2,source,38,SUDDENLY,HF,target,left,yellow,imageability,conservative,no,7,0,0.893307045335,-,-
2019_Oct_11,204,001,2,source,39,HELICAL,LF,target,right,aqua,pleasantness,conservative,no,9,1,0.999962972929,-,-
2019_Oct_11,204,001,2,source,40,LIVED,HF,target,right,aqua,pleasantness,conservative,no,8,1,0.88000956105,-,-
2019_Oct_11,204,001,2,source,41,VANDALS,LF,target,left,yellow,imageability,liberal,no,2,1,1.0130786213,-,-
2019_Oct_11,204,001,2,source,42,AGNOSTIC,LF,target,left,yellow,imageability,conservative,yes,7,0,0.706790324863,-,-
2019_Oct_11,204,001,2,source,43,MOMENT,HF,target,right,aqua,pleasantness,conservative,no,7,1,0.626836781006,-,-
2019_Oct_11,204,001,2,source,44,URBANE,LF,target,right,aqua,pleasantness,liberal,no,9,1,1.14662133478,-,-
2019_Oct_11,204,001,2,source,45,RUINOUS,LF,target,right,aqua,pleasantness,conservative,no,7,1,1.15989975562,-,-
2019_Oct_11,204,001,2,source,46,HOTEL,HF,target,left,yellow,imageability,conservative,no,9,0,1.00010668196,-,-
2019_Oct_11,204,001,2,source,47,ADENOIDS,LF,target,left,yellow,imageability,liberal,no,7,0,0.666826384098,-,-
2019_Oct_11,204,001,2,recog,0,ERUDITE,LF,target,right,aqua,pleasantness,liberal,no,m,0,1.31981930789,-3,177
2019_Oct_11,204,001,2,recog,1,STUDENT,HF,lure,-,-,-,liberal,no,m,1,0.653455212275,1,178
2019_Oct_11,204,001,2,recog,2,HELICAL,LF,target,right,aqua,pleasantness,conservative,no,m,0,0.840232955266,-1,177
2019_Oct_11,204,001,2,recog,3,RATHER,HF,lure,-,-,-,liberal,no,m,1,0.559908700775,1,178
2019_Oct_11,204,001,2,recog,4,MAYBE,HF,target,left,yellow,imageability,conservative,no,m,0,0.573580121815,-1,177
2019_Oct_11,204,001,2,recog,5,HUMAN,HF,target,left,yellow,imageability,conservative,no,z,1,0.56018988655,1,178
2019_Oct_11,204,001,2,recog,6,ADDED,HF,lure,-,-,-,liberal,no,m,1,0.600177656619,1,179
2019_Oct_11,204,001,2,recog,7,CAUGHT,HF,target,right,aqua,pleasantness,liberal,no,z,1,0.613434814392,3,182
2019_Oct_11,204,001,2,recog,8,RUINOUS,LF,target,right,aqua,pleasantness,conservative,no,m,0,0.639879108447,-1,181
2019_Oct_11,204,001,2,recog,9,GEARING,LF,target,left,yellow,imageability,liberal,no,z,1,0.519898567822,3,184
2019_Oct_11,204,001,2,recog,10,EASILY,HF,lure,-,-,-,liberal,no,m,1,0.733455314924,1,185
2019_Oct_11,204,001,2,recog,11,AVIDLY,LF,lure,-,-,-,liberal,no,m,1,0.546565390907,1,186
2019_Oct_11,204,001,2,recog,12,WHITE,HF,lure,-,-,-,liberal,no,m,1,0.720153797988,1,187
2019_Oct_11,204,001,2,recog,13,URBANE,LF,target,right,aqua,pleasantness,liberal,no,z,1,0.58680758461,3,190
2019_Oct_11,204,001,2,recog,14,AMICABLY,LF,lure,-,-,-,conservative,no,z,0,1.07990331902,-3,187
2019_Oct_11,204,001,2,recog,15,REACHED,HF,target,left,yellow,imageability,liberal,no,m,0,0.84009877796,-3,184
2019_Oct_11,204,001,2,recog,16,NEITHER,HF,lure,-,-,-,conservative,no,m,1,0.586820049169,3,187
2019_Oct_11,204,001,2,recog,17,THEORY,HF,lure,-,-,-,conservative,no,z,0,0.653181358593,-3,184
2019_Oct_11,204,001,2,recog,18,JOVIAL,LF,lure,-,-,-,liberal,no,m,1,0.533479070906,1,185
2019_Oct_11,204,001,2,recog,19,SOAPY,LF,target,right,aqua,pleasantness,liberal,no,z,1,0.6801487975,3,188
2019_Oct_11,204,001,2,recog,20,RECENT,HF,lure,-,-,-,conservative,no,m,1,0.613456810671,3,191
2019_Oct_11,204,001,2,recog,21,SMIRK,LF,target,left,yellow,imageability,conservative,no,z,1,0.586776789819,1,192
2019_Oct_11,204,001,2,recog,22,TRUTH,HF,lure,-,-,-,liberal,no,m,1,0.786753767046,1,193
2019_Oct_11,204,001,2,recog,23,AXLES,LF,lure,-,-,-,conservative,no,z,0,0.506836077125,-3,190
2019_Oct_11,204,001,2,recog,24,HERSELF,HF,target,left,yellow,imageability,liberal,no,m,0,0.400187481624,-3,187
2019_Oct_11,204,001,2,recog,25,ECONOMIC,HF,lure,-,-,-,conservative,no,z,0,0.866733706439,-3,184
2019_Oct_11,204,001,2,recog,26,TIPSY,LF,target,right,aqua,pleasantness,liberal,no,z,1,0.613493104533,3,187
2019_Oct_11,204,001,2,recog,27,HOTEL,HF,target,left,yellow,imageability,conservative,no,z,1,0.573447777532,1,188
2019_Oct_11,204,001,2,recog,28,FLOOR,HF,lure,-,-,-,liberal,no,m,1,0.599450679575,1,189
2019_Oct_11,204,001,2,recog,29,HIMSELF,HF,lure,-,-,-,conservative,no,z,0,0.520207982157,-3,186
2019_Oct_11,204,001,2,recog,30,BINDINGS,LF,target,right,aqua,pleasantness,conservative,no,z,1,0.61344177988,1,187
2019_Oct_11,204,001,2,recog,31,HISTORY,HF,lure,-,-,-,conservative,no,z,0,0.613642679235,-3,184
2019_Oct_11,204,001,2,recog,32,TRADE,HF,lure,-,-,-,conservative,no,m,1,0.666739498793,3,187
2019_Oct_11,204,001,2,recog,33,SPEAK,HF,target,left,yellow,imageability,liberal,no,z,1,0.586833613542,3,190
2019_Oct_11,204,001,2,recog,34,MYTHIC,LF,target,left,yellow,imageability,conservative,no,z,1,0.666794489492,1,191
2019_Oct_11,204,001,2,recog,35,ASKED,HF,lure,-,-,-,liberal,no,z,0,0.693406688482,-1,190
2019_Oct_11,204,001,2,recog,36,UTILIZE,LF,target,right,aqua,pleasantness,conservative,no,m,0,0.746854715306,-1,189
2019_Oct_11,204,001,2,recog,37,JABBED,LF,target,right,aqua,pleasantness,liberal,no,z,1,0.69339312411,3,192
2019_Oct_11,204,001,2,recog,38,VEILING,LF,lure,-,-,-,liberal,yes,m,1,0.720104306358,1,193
2019_Oct_11,204,001,2,recog,39,MASKING,LF,target,right,aqua,pleasantness,conservative,no,m,0,0.68017629285,-1,192
2019_Oct_11,204,001,2,recog,40,ABHORRENT,LF,lure,-,-,-,liberal,no,m,1,0.666533100368,1,193
2019_Oct_11,204,001,2,recog,41,HUDDLE,LF,target,left,yellow,imageability,liberal,no,z,1,0.613516933836,3,196
2019_Oct_11,204,001,2,recog,42,SUCCESS,HF,target,left,yellow,imageability,liberal,no,z,1,0.586501469718,3,199
2019_Oct_11,204,001,2,recog,43,PRUDENTLY,LF,lure,-,-,-,liberal,no,m,1,1.07995354386,1,200
2019_Oct_11,204,001,2,recog,44,IRISES,LF,lure,-,-,-,conservative,no,m,1,0.960256755241,3,203
2019_Oct_11,204,001,2,recog,45,SUAVE,LF,lure,-,-,-,liberal,no,m,1,0.720090741986,1,204
2019_Oct_11,204,001,2,recog,46,LACING,LF,lure,-,-,-,conservative,no,m,1,1.58645601074,3,207
2019_Oct_11,204,001,2,recog,47,CHOICE,HF,lure,-,-,-,conservative,no,z,0,0.533555691281,-3,204
2019_Oct_11,204,001,2,recog,48,BEFALL,LF,lure,-,-,-,liberal,no,m,1,0.333570282146,1,205
2019_Oct_11,204,001,2,recog,49,NEBULOUS,LF,lure,-,-,-,liberal,no,m,1,0.320037071063,1,206
2019_Oct_11,204,001,2,recog,50,HADJI,LF,target,right,aqua,pleasantness,conservative,no,z,1,0.0804359955919,1,207
2019_Oct_11,204,001,2,recog,51,UNJUSTLY,LF,lure,-,-,-,liberal,no,z,0,0.973300915705,-1,206
2019_Oct_11,204,001,2,recog,52,SORRY,HF,lure,-,-,-,liberal,no,z,0,0.680142931825,-1,205
2019_Oct_11,204,001,2,recog,53,SUDDENLY,HF,target,left,yellow,imageability,conservative,no,m,0,0.4668439078,-1,204
2019_Oct_11,204,001,2,recog,54,NEARLY,HF,target,right,aqua,pleasantness,liberal,no,m,0,0.840022524191,-3,201
2019_Oct_11,204,001,2,recog,55,HOSPITAL,HF,lure,-,-,-,conservative,no,m,1,0.746756831861,3,204
2019_Oct_11,204,001,2,recog,56,SANDAL,LF,lure,-,-,-,conservative,no,z,0,1.15987922576,-3,201
2019_Oct_11,204,001,2,recog,57,CYNIC,LF,lure,-,-,-,conservative,no,m,1,0.666886140657,3,204
2019_Oct_11,204,001,2,recog,58,LIVED,HF,target,right,aqua,pleasantness,conservative,no,z,1,0.719856115002,1,205
2019_Oct_11,204,001,2,recog,59,PRIVATE,HF,target,right,aqua,pleasantness,liberal,no,z,1,0.653512035998,3,208
2019_Oct_11,204,001,2,recog,60,EMBATTLED,LF,target,left,yellow,imageability,conservative,no,m,0,0.746712472697,-1,207
2019_Oct_11,204,001,2,recog,61,POTASH,LF,target,left,yellow,imageability,liberal,yes,z,1,0.653458511717,3,210
2019_Oct_11,204,001,2,recog,62,NIGHT,HF,lure,-,-,-,liberal,no,m,1,0.706781892956,1,211
2019_Oct_11,204,001,2,recog,63,PONCE,LF,lure,-,-,-,conservative,no,m,1,0.533554958071,3,214
2019_Oct_11,204,001,2,recog,64,DEJECTED,LF,lure,-,-,-,conservative,no,m,1,0.560128296967,3,217
2019_Oct_11,204,001,2,recog,65,PELTED,LF,lure,-,-,-,liberal,no,m,1,0.52022081332,1,218
2019_Oct_11,204,001,2,recog,66,ADULATION,LF,lure,-,-,-,conservative,no,m,1,0.506834977311,3,221
2019_Oct_11,204,001,2,recog,67,GLUTINOUS,LF,lure,-,-,-,liberal,yes,z,0,2.94585212488,-1,220
2019_Oct_11,204,001,2,recog,68,ACCORDING,HF,lure,-,-,-,conservative,no,m,1,2.02624962698,3,223
2019_Oct_11,204,001,2,recog,69,WRITE,HF,target,right,aqua,pleasantness,conservative,no,m,0,0.719830819281,-1,222
2019_Oct_11,204,001,2,recog,70,ADENOIDS,LF,target,left,yellow,imageability,liberal,no,z,1,0.533475771465,3,225
2019_Oct_11,204,001,2,recog,71,GARDEN,HF,target,right,aqua,pleasantness,conservative,no,z,1,0.56020711697,1,226
2019_Oct_11,204,001,2,recog,72,MAGGOT,LF,target,left,yellow,imageability,conservative,no,z,1,0.546888736219,1,227
2019_Oct_11,204,001,2,recog,73,BOMBARDED,LF,lure,-,-,-,conservative,no,z,0,0.600251710761,-3,224
2019_Oct_11,204,001,2,recog,74,FIFTIETH,LF,target,left,yellow,imageability,liberal,no,m,0,0.760064947682,-3,221
2019_Oct_11,204,001,2,recog,75,GROUND,HF,target,right,aqua,pleasantness,conservative,no,z,1,0.506620880188,1,222
2019_Oct_11,204,001,2,recog,76,EFFECT,HF,target,right,aqua,pleasantness,liberal,no,z,1,0.53366493947,3,225
2019_Oct_11,204,001,2,recog,77,IRATE,LF,target,left,yellow,imageability,conservative,no,z,1,0.586549861533,1,226
2019_Oct_11,204,001,2,recog,78,UNVEILED,LF,lure,-,-,-,conservative,no,z,0,0.546864540311,-3,223
2019_Oct_11,204,001,2,recog,79,NECESSARY,HF,lure,-,-,-,liberal,no,m,1,0.467015112177,1,224
2019_Oct_11,204,001,2,recog,80,WHOLE,HF,target,left,yellow,imageability,liberal,no,z,1,0.560150659852,3,227
2019_Oct_11,204,001,2,recog,81,SIBLINGS,LF,lure,-,-,-,conservative,yes,m,1,0.507076569783,3,230
2019_Oct_11,204,001,2,recog,82,MUSIC,HF,target,right,aqua,pleasantness,liberal,no,z,1,0.693463512205,3,233
2019_Oct_11,204,001,2,recog,83,SUBJECT,HF,target,left,yellow,imageability,liberal,no,z,1,0.746713939116,3,236
2019_Oct_11,204,001,2,recog,84,CERTAIN,HF,lure,-,-,-,conservative,no,z,0,0.986500516546,-3,233
2019_Oct_11,204,001,2,recog,85,BREAK,HF,lure,-,-,-,conservative,no,z,0,0.666610820557,-3,230
2019_Oct_11,204,001,2,recog,86,LOCAL,HF,lure,-,-,-,liberal,no,m,1,0.493536026607,1,231
2019_Oct_11,204,001,2,recog,87,VANDALS,LF,target,left,yellow,imageability,liberal,no,m,0,0.906704246089,-3,228
2019_Oct_11,204,001,2,recog,88,UTTERANCE,LF,target,right,aqua,pleasantness,liberal,no,m,0,0.639938498402,-3,225
2019_Oct_11,204,001,2,recog,89,STAFF,HF,target,left,yellow,imageability,conservative,no,z,1,0.519958690987,1,226
2019_Oct_11,204,001,2,recog,90,MOMENT,HF,target,right,aqua,pleasantness,conservative,no,z,1,0.599915534286,1,227
2019_Oct_11,204,001,2,recog,91,CLOSE,HF,target,left,yellow,imageability,conservative,no,z,1,0.53371296468,1,228
2019_Oct_11,204,001,2,recog,92,POINT,HF,target,right,aqua,pleasantness,conservative,no,z,1,0.786760732535,1,229
2019_Oct_11,204,001,2,recog,93,FREEDOM,HF,target,right,aqua,pleasantness,liberal,no,z,1,0.666707604187,3,232
2019_Oct_11,204,001,2,recog,94,AGNOSTIC,LF,target,left,yellow,imageability,conservative,no,z,1,0.533478704302,1,233
2019_Oct_11,204,001,2,recog,95,SIPHON,LF,lure,-,-,-,liberal,no,z,0,0.546590686629,-1,232
2019_Oct_11,204,001,3,source,0,ENAMELLED,LF,target,right,aqua,pleasantness,conservative,no,3,0,3.06583193229,-,-
2019_Oct_11,204,001,3,source,1,IDLING,LF,target,right,aqua,pleasantness,conservative,no,7,1,3.56003334636,-,-
2019_Oct_11,204,001,3,source,2,CUFFED,LF,target,right,aqua,pleasantness,conservative,no,7,1,0.773422921736,-,-
2019_Oct_11,204,001,3,source,3,IRRIGATED,LF,target,left,yellow,imageability,liberal,no,7,0,0.826697544555,-,-
2019_Oct_11,204,001,3,source,4,SHRED,LF,target,right,aqua,pleasantness,liberal,no,3,0,0.74670953986,-,-
2019_Oct_11,204,001,3,source,5,GNOMES,LF,target,right,aqua,pleasantness,liberal,no,3,0,0.919993665071,-,-
2019_Oct_11,204,001,3,source,6,INNATELY,LF,target,left,yellow,imageability,conservative,no,3,1,0.666563161951,-,-
2019_Oct_11,204,001,3,source,7,FORCE,HF,target,left,yellow,imageability,liberal,no,7,0,0.680158695826,-,-
2019_Oct_11,204,001,3,source,8,QUESTION,HF,target,left,yellow,imageability,conservative,no,7,0,0.586610351303,-,-
2019_Oct_11,204,001,3,source,9,FATHER,HF,target,left,yellow,imageability,liberal,no,3,1,0.813570531437,-,-
2019_Oct_11,204,001,3,source,10,PORCHES,LF,target,left,yellow,imageability,conservative,no,2,1,1.18641957024,-,-
2019_Oct_11,204,001,3,source,11,HEMMED,LF,target,right,aqua,pleasantness,conservative,no,7,1,0.853377565408,-,-
2019_Oct_11,204,001,3,source,12,MAILBOX,LF,target,left,yellow,imageability,conservative,no,1,1,1.70638229387,-,-
2019_Oct_11,204,001,3,source,13,ALMOST,HF,target,right,aqua,pleasantness,conservative,no,8,1,1.06641263408,-,-
2019_Oct_11,204,001,3,source,14,PLEASE,HF,target,right,aqua,pleasantness,conservative,no,7,1,0.746544934367,-,-
2019_Oct_11,204,001,3,source,15,ARPEGGIO,LF,target,left,yellow,imageability,liberal,no,8,0,1.33320844335,-,-
2019_Oct_11,204,001,3,source,16,MIDDLE,HF,target,left,yellow,imageability,conservative,no,7,0,0.586597153535,-,-
2019_Oct_11,204,001,3,source,17,UNION,HF,target,right,aqua,pleasantness,liberal,no,7,1,0.533549459001,-,-
2019_Oct_11,204,001,3,source,18,FUDGE,LF,target,right,aqua,pleasantness,liberal,no,3,0,0.640111169198,-,-
2019_Oct_11,204,001,3,source,19,TALKING,HF,target,right,aqua,pleasantness,liberal,no,3,0,0.587059808618,-,-
2019_Oct_11,204,001,3,source,20,TUBERS,LF,target,left,yellow,imageability,conservative,no,3,1,0.626554128812,-,-
2019_Oct_11,204,001,3,source,21,SCHOOL,HF,target,left,yellow,imageability,conservative,yes,7,0,0.613120634197,-,-
2019_Oct_11,204,001,3,source,22,TROUBLE,HF,target,left,yellow,imageability,conservative,no,7,0,0.61369657012,-,-
2019_Oct_11,204,001,3,source,23,RINSING,LF,target,right,aqua,pleasantness,liberal,no,7,1,0.613435180996,-,-
2019_Oct_11,204,001,3,source,24,WANTED,HF,target,right,aqua,pleasantness,liberal,no,7,1,0.933455388245,-,-
2019_Oct_11,204,001,3,source,25,BELIEVE,HF,target,right,aqua,pleasantness,liberal,no,9,1,0.959881718672,-,-
2019_Oct_11,204,001,3,source,26,LEVEL,HF,target,left,yellow,imageability,conservative,no,7,0,0.933339541172,-,-
2019_Oct_11,204,001,3,source,27,ANSWER,HF,target,left,yellow,imageability,liberal,no,2,1,1.31984863627,-,-
2019_Oct_11,204,001,3,source,28,ITSELF,HF,target,right,aqua,pleasantness,conservative,no,7,1,0.719853915375,-,-
2019_Oct_11,204,001,3,source,29,OBESE,LF,target,left,yellow,imageability,conservative,no,7,0,0.893445255293,-,-
2019_Oct_11,204,001,3,source,30,ICONS,LF,target,left,yellow,imageability,liberal,no,7,0,0.573374823205,-,-
2019_Oct_11,204,001,3,source,31,EXACTLY,HF,target,right,aqua,pleasantness,conservative,no,3,0,0.533502533605,-,-
2019_Oct_11,204,001,3,source,32,GLEANED,LF,target,left,yellow,imageability,liberal,no,2,1,1.07995794311,-,-
2019_Oct_11,204,001,3,source,33,HIKING,LF,target,right,aqua,pleasantness,liberal,yes,7,1,0.666810253493,-,-
2019_Oct_11,204,001,3,source,34,PRACTICE,HF,target,right,aqua,pleasantness,conservative,no,8,1,0.733410589156,-,-
2019_Oct_11,204,001,3,source,35,PHOBIC,LF,target,left,yellow,imageability,liberal,no,7,0,0.866679815554,-,-
2019_Oct_11,204,001,3,source,36,MOVED,HF,target,left,yellow,imageability,liberal,yes,7,0,0.600118266664,-,-
2019_Oct_11,204,001,3,source,37,BAOBAB,LF,target,right,aqua,pleasantness,conservative,no,1,0,0.906869584791,-,-
2019_Oct_11,204,001,3,source,38,BOOKS,HF,target,left,yellow,imageability,liberal,no,1,1,1.03972014867,-,-
2019_Oct_11,204,001,3,source,39,MATERIAL,HF,target,right,aqua,pleasantness,liberal,no,2,0,1.01208548927,-,-
2019_Oct_11,204,001,3,source,40,BECAME,HF,target,left,yellow,imageability,conservative,no,7,0,0.506603649769,-,-
2019_Oct_11,204,001,3,source,41,WEEKS,HF,target,left,yellow,imageability,liberal,no,9,0,0.959993166489,-,-
2019_Oct_11,204,001,3,source,42,DANDELION,LF,target,right,aqua,pleasantness,liberal,no,9,1,1.03999986802,-,-
2019_Oct_11,204,001,3,source,43,HOVELS,LF,target,left,yellow,imageability,liberal,yes,7,0,0.64161901417,-,-
2019_Oct_11,204,001,3,source,44,SINCE,HF,target,right,aqua,pleasantness,liberal,no,3,0,0.920045722934,-,-
2019_Oct_11,204,001,3,source,45,RAFTERS,LF,target,right,aqua,pleasantness,conservative,no,7,1,0.626537264997,-,-
2019_Oct_11,204,001,3,source,46,JEALOUSLY,LF,target,left,yellow,imageability,conservative,no,7,0,0.426622977167,-,-
2019_Oct_11,204,001,3,source,47,CLEAR,HF,target,right,aqua,pleasantness,conservative,no,7,1,0.62683714761,-,-
2019_Oct_11,204,001,3,recog,0,SLOWLY,HF,lure,-,-,-,conservative,no,m,1,1.27992245578,3,235
2019_Oct_11,204,001,3,recog,1,APPEARED,HF,lure,-,-,-,conservative,no,m,1,0.546886903195,3,238
2019_Oct_11,204,001,3,recog,2,LEVEL,HF,target,left,yellow,imageability,conservative,no,m,0,0.4669854172,-1,237
2019_Oct_11,204,001,3,recog,3,NEEDED,HF,lure,-,-,-,liberal,no,m,1,0.666548864369,1,238
2019_Oct_11,204,001,3,recog,4,BELIEVE,HF,target,right,aqua,pleasantness,liberal,no,z,1,0.640110435988,3,241
2019_Oct_11,204,001,3,recog,5,NEGATION,LF,lure,-,-,-,liberal,no,z,0,0.66680218819,-1,240
2019_Oct_11,204,001,3,recog,6,IDLING,LF,target,right,aqua,pleasantness,conservative,no,z,1,0.626755028166,1,241
2019_Oct_11,204,001,3,recog,7,FATHER,HF,target,left,yellow,imageability,liberal,no,z,1,0.560124997526,3,244
2019_Oct_11,204,001,3,recog,8,RAFTERS,LF,target,right,aqua,pleasantness,conservative,no,z,1,0.546842177426,1,245
2019_Oct_11,204,001,3,recog,9,GLEANED,LF,target,left,yellow,imageability,liberal,no,z,1,0.573457309254,3,248
2019_Oct_11,204,001,3,recog,10,WANTED,HF,target,right,aqua,pleasantness,liberal,no,z,1,0.613459010299,3,251
2019_Oct_11,204,001,3,recog,11,MATERIAL,HF,target,right,aqua,pleasantness,liberal,no,z,1,0.586817849541,3,254
2019_Oct_11,204,001,3,recog,12,VINEYARDS,LF,lure,-,-,-,liberal,no,m,1,0.653182458407,1,255
2019_Oct_11,204,001,3,recog,13,PORCHES,LF,target,left,yellow,imageability,conservative,no,z,1,0.613642679235,1,256
2019_Oct_11,204,001,3,recog,14,HALLMARK,LF,lure,-,-,-,conservative,no,z,0,0.86668971388,-3,253
2019_Oct_11,204,001,3,recog,15,DEPARTS,LF,lure,-,-,-,liberal,no,m,1,0.586820049169,1,254
2019_Oct_11,204,001,3,recog,16,ALREADY,HF,lure,-,-,-,liberal,no,m,1,0.399941123292,1,255
2019_Oct_11,204,001,3,recog,17,SCHOOL,HF,target,left,yellow,imageability,conservative,no,z,1,0.466972952641,1,256
2019_Oct_11,204,001,3,recog,18,DANDELION,LF,target,right,aqua,pleasantness,liberal,no,m,0,0.493233211156,-3,253
2019_Oct_11,204,001,3,recog,19,PESTERED,LF,lure,-,-,-,liberal,no,z,0,0.466939958222,-1,252
2019_Oct_11,204,001,3,recog,20,MAILBOX,LF,target,left,yellow,imageability,conservative,no,z,1,0.773380395596,1,253
2019_Oct_11,204,001,3,recog,21,OBVIOUSLY,HF,lure,-,-,-,conservative,no,m,1,0.653502870881,3,256
2019_Oct_11,204,001,3,recog,22,TERMS,HF,lure,-,-,-,conservative,no,z,0,0.573279872598,-3,253
2019_Oct_11,204,001,3,recog,23,FURTHER,HF,lure,-,-,-,conservative,no,z,0,0.599893171402,-3,250
2019_Oct_11,204,001,3,recog,24,TUBERS,LF,target,left,yellow,imageability,conservative,no,z,1,0.706862179377,1,251
2019_Oct_11,204,001,3,recog,25,HEMMED,LF,target,right,aqua,pleasantness,conservative,no,m,0,0.533466239744,-1,250
2019_Oct_11,204,001,3,recog,26,JEALOUSLY,LF,target,left,yellow,imageability,conservative,no,m,0,0.720167728964,-1,249
2019_Oct_11,204,001,3,recog,27,CUFFED,LF,target,right,aqua,pleasantness,conservative,no,z,1,0.626889938681,1,250
2019_Oct_11,204,001,3,recog,28,SYSTEM,HF,lure,-,-,-,conservative,no,m,1,0.493522828839,3,253
2019_Oct_11,204,001,3,recog,29,RINSING,LF,target,right,aqua,pleasantness,liberal,no,m,0,0.386874599943,-3,250
2019_Oct_11,204,001,3,recog,30,ALMOST,HF,target,right,aqua,pleasantness,conservative,no,m,0,0.493562055537,-1,249
2019_Oct_11,204,001,3,recog,31,FLYWHEEL,LF,lure,-,-,-,conservative,no,m,1,2.02628152159,3,252
2019_Oct_11,204,001,3,recog,32,DOLPHIN,LF,lure,-,-,-,liberal,no,z,0,0.866856519001,-1,251
2019_Oct_11,204,001,3,recog,33,SHRED,LF,target,right,aqua,pleasantness,liberal,no,z,1,0.680197922525,3,254
2019_Oct_11,204,001,3,recog,34,VALUE,HF,lure,-,-,-,liberal,no,m,1,0.58722514732,1,255
2019_Oct_11,204,001,3,recog,35,JINGLE,LF,lure,-,-,-,liberal,no,m,1,0.813181563892,1,256
2019_Oct_11,204,001,3,recog,36,HIKING,LF,target,right,aqua,pleasantness,liberal,no,m,0,0.520230345041,-3,253
2019_Oct_11,204,001,3,recog,37,ENROLMENT,LF,lure,-,-,-,conservative,no,z,0,0.653508369951,-3,250
2019_Oct_11,204,001,3,recog,38,WREATH,LF,lure,-,-,-,conservative,no,m,1,0.426845139592,3,253
2019_Oct_11,204,001,3,recog,39,FULCRUM,LF,lure,-,-,-,liberal,no,m,1,0.426839640522,1,254
2019_Oct_11,204,001,3,recog,40,DEVELOPED,HF,lure,-,-,-,liberal,no,m,1,0.639901471331,1,255
2019_Oct_11,204,001,3,recog,41,TALKING,HF,target,right,aqua,pleasantness,liberal,no,m,0,0.640120334314,-3,252
2019_Oct_11,204,001,3,recog,42,SOMEONE,HF,lure,-,-,-,conservative,no,z,0,0.720057014357,-3,249
2019_Oct_11,204,001,3,recog,43,WEEKS,HF,target,left,yellow,imageability,liberal,yes,z,1,0.573585620885,3,252
2019_Oct_11,204,001,3,recog,44,TAVERNS,LF,lure,-,-,-,conservative,no,m,1,0.693273244385,3,255
2019_Oct_11,204,001,3,recog,45,SPACE,HF,lure,-,-,-,liberal,no,m,1,0.653605886791,1,256
2019_Oct_11,204,001,3,recog,46,WINDOW,HF,lure,-,-,-,conservative,no,m,1,0.506946791733,3,259
2019_Oct_11,204,001,3,recog,47,FUDGE,LF,target,right,aqua,pleasantness,liberal,no,m,0,0.573462075115,-3,256
2019_Oct_11,204,001,3,recog,48,RABBIS,LF,lure,-,-,-,conservative,no,z,0,0.826407193663,-3,253
2019_Oct_11,204,001,3,recog,49,MIDDLE,HF,target,left,yellow,imageability,conservative,no,z,1,0.853374265966,1,254
2019_Oct_11,204,001,3,recog,50,ZEBRA,LF,lure,-,-,-,liberal,no,z,0,0.613435180996,-1,253
2019_Oct_11,204,001,3,recog,51,AREAS,HF,lure,-,-,-,conservative,no,z,0,0.639880574866,-3,250
2019_Oct_11,204,001,3,recog,52,TROUBLE,HF,target,left,yellow,imageability,conservative,no,m,0,0.439943924151,-1,249
2019_Oct_11,204,001,3,recog,53,OBESE,LF,target,left,yellow,imageability,conservative,no,m,0,0.413521259771,-1,248
2019_Oct_11,204,001,3,recog,54,PLEASE,HF,target,right,aqua,pleasantness,conservative,no,z,1,0.507568919843,1,249
2019_Oct_11,204,001,3,recog,55,ALLOWED,HF,lure,-,-,-,liberal,yes,m,1,0.493487268187,1,250
2019_Oct_11,204,001,3,recog,56,ITSELF,HF,target,right,aqua,pleasantness,conservative,no,z,1,0.866640955459,1,251
2019_Oct_11,204,001,3,recog,57,IRRIGATED,LF,target,left,yellow,imageability,liberal,no,z,1,0.70652343667,3,254
2019_Oct_11,204,001,3,recog,58,HOVELS,LF,target,left,yellow,imageability,liberal,no,z,1,0.759850483955,3,257
2019_Oct_11,204,001,3,recog,59,QUESTION,HF,target,left,yellow,imageability,conservative,no,z,1,0.693415486994,1,258
2019_Oct_11,204,001,3,recog,60,ENAMELLED,LF,target,right,aqua,pleasantness,conservative,no,z,1,0.480145424737,1,259
2019_Oct_11,204,001,3,recog,61,BAOBAB,LF,target,right,aqua,pleasantness,conservative,no,z,1,0.706930367844,1,260
2019_Oct_11,204,001,3,recog,62,GNOMES,LF,target,right,aqua,pleasantness,liberal,no,z,1,0.533511332117,3,263
2019_Oct_11,204,001,3,recog,63,INNATELY,LF,target,left,yellow,imageability,conservative,no,z,1,0.546836678356,1,264
2019_Oct_11,204,001,3,recog,64,RESEARCH,HF,lure,-,-,-,conservative,no,z,0,0.493477003256,-3,261
2019_Oct_11,204,001,3,recog,65,DRINK,HF,lure,-,-,-,conservative,no,m,1,0.520293401043,3,264
2019_Oct_11,204,001,3,recog,66,EVIDENCE,HF,lure,-,-,-,liberal,no,m,1,0.600173623968,1,265
2019_Oct_11,204,001,3,recog,67,DOCTOR,HF,lure,-,-,-,conservative,no,m,1,0.293587277938,3,268
2019_Oct_11,204,001,3,recog,68,CLEAR,HF,target,right,aqua,pleasantness,conservative,yes,m,0,0.280258998861,-1,267
2019_Oct_11,204,001,3,recog,69,AMPLIFY,LF,lure,-,-,-,liberal,no,m,1,0.320242369674,1,268
2019_Oct_11,204,001,3,recog,70,UNDER,HF,lure,-,-,-,liberal,no,m,1,0.240310455492,1,269
2019_Oct_11,204,001,3,recog,71,EVENING,HF,lure,-,-,-,liberal,no,m,1,0.40031615986,1,270
2019_Oct_11,204,001,3,recog,72,SOCIAL,HF,lure,-,-,-,liberal,no,m,1,0.386859935756,1,271
2019_Oct_11,204,001,3,recog,73,UNION,HF,target,right,aqua,pleasantness,liberal,no,z,1,0.586940662103,3,274
2019_Oct_11,204,001,3,recog,74,FORCE,HF,target,left,yellow,imageability,liberal,no,z,1,0.613567525279,3,277
2019_Oct_11,204,001,3,recog,75,BOOKS,HF,target,left,yellow,imageability,liberal,no,z,1,0.479960655988,3,280
2019_Oct_11,204,001,3,recog,76,MOVED,HF,target,left,yellow,imageability,liberal,no,z,1,0.493901531454,3,283
2019_Oct_11,204,001,3,recog,77,HAPPEN,HF,lure,-,-,-,liberal,no,z,0,0.426853938104,-1,282
2019_Oct_11,204,001,3,recog,78,SINCE,HF,target,right,aqua,pleasantness,liberal,no,m,0,0.506854407358,-3,279
2019_Oct_11,204,001,3,recog,79,CULINARY,LF,lure,-,-,-,liberal,no,z,0,0.33356038382,-1,278
2019_Oct_11,204,001,3,recog,80,TICKLE,LF,lure,-,-,-,conservative,no,m,1,0.266677395963,3,281
2019_Oct_11,204,001,3,recog,81,LOVELIEST,LF,lure,-,-,-,conservative,no,m,1,0.306929121388,3,284
2019_Oct_11,204,001,3,recog,82,ARPEGGIO,LF,target,left,yellow,imageability,liberal,no,m,0,0.346893428758,-3,281
2019_Oct_11,204,001,3,recog,83,BECAME,HF,target,left,yellow,imageability,conservative,no,m,0,0.280319122026,-1,280
2019_Oct_11,204,001,3,recog,84,EATERS,LF,lure,-,-,-,conservative,no,m,1,0.266912022947,3,283
2019_Oct_11,204,001,3,recog,85,ICONS,LF,target,left,yellow,imageability,liberal,no,m,0,0.240329152329,-3,280
2019_Oct_11,204,001,3,recog,86,PHOBIC,LF,target,left,yellow,imageability,liberal,yes,m,0,0.266912756156,-3,277
2019_Oct_11,204,001,3,recog,87,EMIGRATED,LF,lure,-,-,-,conservative,no,m,1,0.346965649876,3,280
2019_Oct_11,204,001,3,recog,88,EXACTLY,HF,target,right,aqua,pleasantness,conservative,no,z,1,0.493306165484,1,281
2019_Oct_11,204,001,3,recog,89,PAWNS,LF,lure,-,-,-,liberal,no,m,1,0.226939283669,1,282
2019_Oct_11,204,001,3,recog,90,GASEOUS,LF,lure,-,-,-,liberal,no,m,1,0.266905424063,1,283
2019_Oct_11,204,001,3,recog,91,LENGTHEN,LF,lure,-,-,-,conservative,no,m,1,0.546857208218,3,286
2019_Oct_11,204,001,3,recog,92,PRACTICE,HF,target,right,aqua,pleasantness,conservative,no,m,0,0.320236870604,-1,285
2019_Oct_11,204,001,3,recog,93,ANSWER,HF,target,left,yellow,imageability,liberal,no,m,0,0.560127197154,-3,282
2019_Oct_11,204,001,3,recog,94,THING,HF,lure,-,-,-,liberal,no,z,0,0.480206281111,-1,281
2019_Oct_11,204,001,3,recog,95,UNMADE,LF,lure,-,-,-,conservative,no,m,1,0.293589110962,3,284
2019_Oct_11,204,001,4,source,0,EARLIER,HF,target,right,aqua,pleasantness,conservative,no,7,1,1.33345516828,-,-
2019_Oct_11,204,001,4,source,1,SEQUEL,LF,target,right,aqua,pleasantness,conservative,no,7,1,0.599802253445,-,-
2019_Oct_11,204,001,4,source,2,INDEED,HF,target,right,aqua,pleasantness,conservative,no,7,1,0.480166687808,-,-
2019_Oct_11,204,001,4,source,3,ENFORCING,LF,target,right,aqua,pleasantness,liberal,yes,3,0,0.840020691167,-,-
2019_Oct_11,204,001,4,source,4,ACTION,HF,target,left,yellow,imageability,conservative,no,7,0,0.906710478368,-,-
2019_Oct_11,204,001,4,source,5,TESTIFIES,LF,target,right,aqua,pleasantness,liberal,no,7,1,0.840316541129,-,-
2019_Oct_11,204,001,4,source,6,KANGAROO,LF,target,right,aqua,pleasantness,liberal,no,7,1,0.9334124955,-,-
2019_Oct_11,204,001,4,source,7,UPROOTED,LF,target,left,yellow,imageability,liberal,no,2,1,0.893370834546,-,-
2019_Oct_11,204,001,4,source,8,ZOOLOGY,LF,target,right,aqua,pleasantness,conservative,no,7,1,0.893070585329,-,-
2019_Oct_11,204,001,4,source,9,RAIDER,LF,target,right,aqua,pleasantness,liberal,no,1,0,0.733377594736,-,-
2019_Oct_11,204,001,4,source,10,TOTAL,HF,target,right,aqua,pleasantness,liberal,no,7,1,0.720027319379,-,-
2019_Oct_11,204,001,4,source,11,BANALITY,LF,target,left,yellow,imageability,conservative,no,7,0,0.586546562091,-,-
2019_Oct_11,204,001,4,source,12,LUGGED,LF,target,left,yellow,imageability,conservative,no,8,0,1.07969252134,-,-
2019_Oct_11,204,001,4,source,13,FINAL,HF,target,left,yellow,imageability,liberal,no,3,1,2.87920816326,-,-
2019_Oct_11,204,001,4,source,14,NICETIES,LF,target,right,aqua,pleasantness,conservative,no,7,1,0.800042819425,-,-
2019_Oct_11,204,001,4,source,15,AEGIS,LF,target,left,yellow,imageability,liberal,no,8,0,1.25323107018,-,-
2019_Oct_11,204,001,4,source,16,DEEPEN,LF,target,left,yellow,imageability,conservative,no,1,1,1.31893579066,-,-
2019_Oct_11,204,001,4,source,17,MORNING,HF,target,left,yellow,imageability,liberal,no,8,0,1.27906313446,-,-
2019_Oct_11,204,001,4,source,18,ENERGY,HF,target,right,aqua,pleasantness,liberal,no,7,1,0.65350983637,-,-
2019_Oct_11,204,001,4,source,19,MOTHER,HF,target,right,aqua,pleasantness,liberal,no,1,0,1.02637647219,-,-
2019_Oct_11,204,001,4,source,20,DORMS,LF,target,left,yellow,imageability,liberal,no,7,0,0.999756574505,-,-
2019_Oct_11,204,001,4,source,21,GUARDSMEN,LF,target,right,aqua,pleasantness,conservative,no,8,1,0.87999856291,-,-
2019_Oct_11,204,001,4,source,22,TRYING,HF,target,left,yellow,imageability,liberal,no,7,0,0.573381422088,-,-
2019_Oct_11,204,001,4,source,23,FOUND,HF,target,left,yellow,imageability,conservative,no,7,0,0.493251907994,-,-
2019_Oct_11,204,001,4,source,24,COGENT,LF,target,right,aqua,pleasantness,conservative,no,7,1,0.30688916148,-,-
2019_Oct_11,204,001,4,source,25,ENTIRELY,HF,target,left,yellow,imageability,liberal,no,7,0,0.253344351025,-,-
2019_Oct_11,204,001,4,source,26,YELLOWED,LF,target,left,yellow,imageability,liberal,no,3,1,0.346651469681,-,-
2019_Oct_11,204,001,4,source,27,FLUFF,LF,target,left,yellow,imageability,conservative,no,3,1,1.42646790339,-,-
2019_Oct_11,204,001,4,source,28,AROUND,HF,target,right,aqua,pleasantness,conservative,no,3,0,0.733163131009,-,-
2019_Oct_11,204,001,4,source,29,NORTH,HF,target,right,aqua,pleasantness,liberal,no,7,1,0.46684940687,-,-
2019_Oct_11,204,001,4,source,30,CHAIR,HF,target,left,yellow,imageability,conservative,no,9,0,1.0666663245,-,-
2019_Oct_11,204,001,4,source,31,BLOOD,HF,target,right,aqua,pleasantness,conservative,no,2,0,1.38628693267,-,-
2019_Oct_11,204,001,4,source,32,TIMES,HF,target,left,yellow,imageability,conservative,no,7,0,0.453626343331,-,-
2019_Oct_11,204,001,4,source,33,MIMICKED,LF,target,right,aqua,pleasantness,liberal,no,7,1,0.493284902414,-,-
2019_Oct_11,204,001,4,source,34,SOLEMNITY,LF,target,left,yellow,imageability,conservative,no,7,0,0.560226180412,-,-
2019_Oct_11,204,001,4,source,35,OUTSIDE,HF,target,right,aqua,pleasantness,liberal,no,7,1,0.733391892318,-,-
2019_Oct_11,204,001,4,source,36,POACHED,LF,target,right,aqua,pleasantness,conservative,no,2,0,1.02659826801,-,-
2019_Oct_11,204,001,4,source,37,BOVINE,LF,target,right,aqua,pleasantness,liberal,no,7,1,0.626603987046,-,-
2019_Oct_11,204,001,4,source,38,CLASS,HF,target,right,aqua,pleasantness,liberal,no,8,1,0.813387595711,-,-
2019_Oct_11,204,001,4,source,39,PROBABLY,HF,target,right,aqua,pleasantness,conservative,yes,7,1,0.906693981158,-,-
2019_Oct_11,204,001,4,source,40,SEVEN,HF,target,left,yellow,imageability,liberal,yes,7,0,0.426837440894,-,-
2019_Oct_11,204,001,4,source,41,SMEARING,LF,target,left,yellow,imageability,conservative,yes,7,0,0.346920557503,-,-
2019_Oct_11,204,001,4,source,42,PSALMS,LF,target,left,yellow,imageability,liberal,no,2,1,1.06635581035,-,-
2019_Oct_11,204,001,4,source,43,AHEAD,HF,target,left,yellow,imageability,conservative,no,1,1,0.800038420169,-,-
2019_Oct_11,204,001,4,source,44,POPES,LF,target,left,yellow,imageability,liberal,no,2,1,0.786574863972,-,-
2019_Oct_11,204,001,4,source,45,SECOND,HF,target,right,aqua,pleasantness,conservative,no,2,0,0.706838716678,-,-
2019_Oct_11,204,001,4,source,46,LEARN,HF,target,left,yellow,imageability,conservative,no,7,0,0.893107245794,-,-
2019_Oct_11,204,001,4,source,47,COUNCIL,HF,target,left,yellow,imageability,liberal,no,7,0,0.533575854538,-,-
2019_Oct_11,204,001,4,recog,0,EARLIER,HF,target,right,aqua,pleasantness,conservative,no,m,0,1.19988239322,-1,283
2019_Oct_11,204,001,4,recog,1,ENERGY,HF,target,right,aqua,pleasantness,liberal,no,z,1,0.800119073194,3,286
2019_Oct_11,204,001,4,recog,2,AEGIS,LF,target,left,yellow,imageability,liberal,no,z,1,0.733495274832,3,289
2019_Oct_11,204,001,4,recog,3,BUILDING,HF,lure,-,-,-,liberal,no,z,0,0.653500671253,-1,288
2019_Oct_11,204,001,4,recog,4,HUSBAND,HF,lure,-,-,-,conservative,no,m,1,0.60011643364,3,291
2019_Oct_11,204,001,4,recog,5,NURTURING,LF,lure,-,-,-,conservative,no,m,1,0.480209947157,3,294
2019_Oct_11,204,001,4,recog,6,KNOWLEDGE,HF,lure,-,-,-,conservative,no,m,1,0.426853571499,3,297
2019_Oct_11,204,001,4,recog,7,OBSCURELY,LF,lure,-,-,-,conservative,no,m,1,0.44027496816,3,300
2019_Oct_11,204,001,4,recog,8,DAMASK,LF,lure,-,-,-,liberal,no,m,1,0.559888537518,1,301
2019_Oct_11,204,001,4,recog,9,ULCER,LF,lure,-,-,-,conservative,no,z,0,0.626822483424,-3,298
2019_Oct_11,204,001,4,recog,10,FLUFF,LF,target,left,yellow,imageability,conservative,yes,m,0,0.773410823783,-1,297
2019_Oct_11,204,001,4,recog,11,HOPPER,LF,lure,-,-,-,liberal,no,z,0,0.626580524347,-1,296
2019_Oct_11,204,001,4,recog,12,AHEAD,HF,target,left,yellow,imageability,conservative,no,m,0,0.519983620104,-1,295
2019_Oct_11,204,001,4,recog,13,LUNACY,LF,lure,-,-,-,conservative,no,m,1,0.599943029636,3,298
2019_Oct_11,204,001,4,recog,14,UNWARY,LF,lure,-,-,-,liberal,no,m,1,0.626933931241,1,299
2019_Oct_11,204,001,4,recog,15,ACROSS,HF,lure,-,-,-,conservative,no,m,1,0.520196984017,3,302
2019_Oct_11,204,001,4,recog,16,MORNING,HF,target,left,yellow,imageability,liberal,no,m,0,0.53351866421,-3,299
2019_Oct_11,204,001,4,recog,17,MOTHER,HF,target,right,aqua,pleasantness,liberal,no,z,1,0.680090873964,3,302
2019_Oct_11,204,001,4,recog,18,SEQUEL,LF,target,right,aqua,pleasantness,conservative,no,z,1,0.666871109866,1,303
2019_Oct_11,204,001,4,recog,19,SMALL,HF,lure,-,-,-,conservative,no,m,1,0.680118735917,3,306
2019_Oct_11,204,001,4,recog,20,POACHED,LF,target,right,aqua,pleasantness,conservative,no,z,1,0.680229817131,1,307
2019_Oct_11,204,001,4,recog,21,CUCKOO,LF,lure,-,-,-,conservative,no,m,1,0.600326864716,3,310
2019_Oct_11,204,001,4,recog,22,PSALMS,LF,target,left,yellow,imageability,liberal,no,z,1,0.58680281875,3,313
2019_Oct_11,204,001,4,recog,23,TIMES,HF,target,left,yellow,imageability,conservative,no,z,1,0.586805384983,1,314
2019_Oct_11,204,001,4,recog,24,FINAL,HF,target,left,yellow,imageability,liberal,no,z,1,0.6268048864,3,317
2019_Oct_11,204,001,4,recog,25,DIFFERENT,HF,lure,-,-,-,liberal,no,m,1,1.46650186565,1,318
2019_Oct_11,204,001,4,recog,26,INDEED,HF,target,right,aqua,pleasantness,conservative,no,m,0,0.479978619616,-1,317
2019_Oct_11,204,001,4,recog,27,TRYING,HF,target,left,yellow,imageability,liberal,no,m,0,0.520184152854,-3,314
2019_Oct_11,204,001,4,recog,28,CHAIR,HF,target,left,yellow,imageability,conservative,no,z,1,0.506460307347,1,315
2019_Oct_11,204,001,4,recog,29,ROLLERS,LF,lure,-,-,-,liberal,yes,m,1,0.626808185842,1,316
2019_Oct_11,204,001,4,recog,30,CLASS,HF,target,right,aqua,pleasantness,liberal,no,z,1,0.986628461573,3,319
2019_Oct_11,204,001,4,recog,31,CARRIED,HF,lure,-,-,-,liberal,no,m,1,0.693447748204,1,320
2019_Oct_11,204,001,4,recog,32,TOTAL,HF,target,right,aqua,pleasantness,liberal,no,m,0,0.426839273917,-3,317
2019_Oct_11,204,001,4,recog,33,DEEPEN,LF,target,left,yellow,imageability,conservative,no,z,1,0.680092340382,1,318
2019_Oct_11,204,001,4,recog,34,YELLOWED,LF,target,left,yellow,imageability,liberal,no,z,1,0.546828246449,3,321
2019_Oct_11,204,001,4,recog,35,NORTH,HF,target,right,aqua,pleasantness,liberal,no,m,0,0.506884102336,-3,318
2019_Oct_11,204,001,4,recog,36,SKETCHY,LF,lure,-,-,-,liberal,no,z,0,0.693536466532,-1,317
2019_Oct_11,204,001,4,recog,37,AROUND,HF,target,right,aqua,pleasantness,conservative,no,m,0,4.09209292402,-1,316
2019_Oct_11,204,001,4,recog,38,ENFORCING,LF,target,right,aqua,pleasantness,liberal,no,m,0,0.520179386993,-3,313
2019_Oct_11,204,001,4,recog,39,TODAY,HF,lure,-,-,-,conservative,no,m,1,0.440301363696,3,316
2019_Oct_11,204,001,4,recog,40,FRIEND,HF,lure,-,-,-,conservative,no,m,1,0.373582981332,3,319
2019_Oct_11,204,001,4,recog,41,COUNCIL,HF,target,left,yellow,imageability,liberal,no,m,0,0.386581316213,-3,316
2019_Oct_11,204,001,4,recog,42,KANGAROO,LF,target,right,aqua,pleasantness,liberal,no,z,1,0.373556585796,3,319
2019_Oct_11,204,001,4,recog,43,JUDICIOUS,LF,lure,-,-,-,liberal,no,m,1,0.786703542207,1,320
2019_Oct_11,204,001,4,recog,44,SMEARING,LF,target,left,yellow,imageability,conservative,no,m,0,0.613676406864,-1,319
2019_Oct_11,204,001,4,recog,45,GODMOTHER,LF,lure,-,-,-,liberal,no,m,1,0.613357827413,1,320
2019_Oct_11,204,001,4,recog,46,DESERTER,LF,lure,-,-,-,liberal,no,m,1,0.413594580703,1,321
2019_Oct_11,204,001,4,recog,47,BARBARIAN,LF,lure,-,-,-,conservative,no,m,1,0.440321526952,3,324
2019_Oct_11,204,001,4,recog,48,HIGHER,HF,lure,-,-,-,liberal,no,m,1,0.706499973971,1,325
2019_Oct_11,204,001,4,recog,49,INACTION,LF,lure,-,-,-,liberal,no,m,1,0.600138796525,1,326
2019_Oct_11,204,001,4,recog,50,DORMS,LF,target,left,yellow,imageability,liberal,no,z,1,0.600075007314,3,329
2019_Oct_11,204,001,4,recog,51,MIMICKED,LF,target,right,aqua,pleasantness,liberal,no,m,0,0.520555889981,-3,326
2019_Oct_11,204,001,4,recog,52,QUALITY,HF,lure,-,-,-,liberal,no,m,1,0.560177055387,1,327
2019_Oct_11,204,001,4,recog,53,FOUND,HF,target,left,yellow,imageability,conservative,no,z,1,0.466599015886,1,328
2019_Oct_11,204,001,4,recog,54,POPES,LF,target,left,yellow,imageability,liberal,no,z,1,0.679846715259,3,331
2019_Oct_11,204,001,4,recog,55,SECOND,HF,target,right,aqua,pleasantness,conservative,no,z,1,0.493551790607,1,332
2019_Oct_11,204,001,4,recog,56,AMONG,HF,lure,-,-,-,liberal,no,z,0,0.493552157212,-1,331
2019_Oct_11,204,001,4,recog,57,CHURCH,HF,lure,-,-,-,liberal,no,m,1,0.307015640088,1,332
2019_Oct_11,204,001,4,recog,58,ACTION,HF,target,left,yellow,imageability,conservative,no,m,0,0.613218517642,-1,331
2019_Oct_11,204,001,4,recog,59,CAPITAL,HF,lure,-,-,-,conservative,no,m,1,0.62718395562,3,334
2019_Oct_11,204,001,4,recog,60,AMBIENCE,LF,lure,-,-,-,liberal,no,m,1,0.520288635182,1,335
2019_Oct_11,204,001,4,recog,61,ROCKER,LF,lure,-,-,-,conservative,no,m,1,0.493313864181,3,338
2019_Oct_11,204,001,4,recog,62,UPROOTED,LF,target,left,yellow,imageability,liberal,no,z,1,0.333988578065,3,341
2019_Oct_11,204,001,4,recog,63,BRING,HF,lure,-,-,-,conservative,no,z,0,0.306951117668,-3,338
2019_Oct_11,204,001,4,recog,64,GUARDSMEN,LF,target,right,aqua,pleasantness,conservative,no,m,0,0.226838100783,-1,337
2019_Oct_11,204,001,4,recog,65,VILLAGE,HF,lure,-,-,-,liberal,no,m,1,0.240061164322,1,338
2019_Oct_11,204,001,4,recog,66,SOLEMNITY,LF,target,left,yellow,imageability,conservative,no,z,1,0.0803480104732,1,339
2019_Oct_11,204,001,4,recog,67,RAIDER,LF,target,right,aqua,pleasantness,liberal,no,m,0,0.613446912345,-3,336
2019_Oct_11,204,001,4,recog,68,TESTIFIES,LF,target,right,aqua,pleasantness,liberal,no,m,0,1.15990928734,-3,333
2019_Oct_11,204,001,4,recog,69,NICETIES,LF,target,right,aqua,pleasantness,conservative,no,m,0,0.480199682227,-1,332
2019_Oct_11,204,001,4,recog,70,COGENT,LF,target,right,aqua,pleasantness,conservative,no,m,0,0.747091541917,-1,331
2019_Oct_11,204,001,4,recog,71,CRONE,LF,lure,-,-,-,conservative,no,z,0,0.773433919876,-3,328
2019_Oct_11,204,001,4,recog,72,ALERTING,LF,lure,-,-,-,conservative,no,z,0,0.600145028804,-3,325
2019_Oct_11,204,001,4,recog,73,BANALITY,LF,target,left,yellow,imageability,conservative,no,m,0,0.600162625828,-1,324
2019_Oct_11,204,001,4,recog,74,PROBABLY,HF,target,right,aqua,pleasantness,conservative,no,m,0,0.773377096154,-1,323
2019_Oct_11,204,001,4,recog,75,DIPLOMAS,LF,lure,-,-,-,conservative,no,m,1,0.866439322896,3,326
2019_Oct_11,204,001,4,recog,76,AMULETS,LF,lure,-,-,-,conservative,no,m,1,0.693508604578,3,329
2019_Oct_11,204,001,4,recog,77,FIGURE,HF,lure,-,-,-,liberal,no,m,1,0.746447417527,1,330
2019_Oct_11,204,001,4,recog,78,KRAALS,LF,lure,-,-,-,conservative,no,z,0,0.813647151812,-3,327
2019_Oct_11,204,001,4,recog,79,OUTSIDE,HF,target,right,aqua,pleasantness,liberal,no,z,1,0.813578963345,3,330
2019_Oct_11,204,001,4,recog,80,DOUBT,HF,lure,-,-,-,liberal,yes,m,1,2.17299560734,1,331
2019_Oct_11,204,001,4,recog,81,LUGGED,LF,target,left,yellow,imageability,conservative,no,m,0,0.613508135324,-1,330
2019_Oct_11,204,001,4,recog,82,PASSED,HF,lure,-,-,-,conservative,no,m,1,0.733171562917,3,333
2019_Oct_11,204,001,4,recog,83,EXCEPT,HF,lure,-,-,-,conservative,no,m,1,0.786735070209,3,336
2019_Oct_11,204,001,4,recog,84,SEVEN,HF,target,left,yellow,imageability,liberal,no,m,0,1.05332374784,-3,333
2019_Oct_11,204,001,4,recog,85,ZOOLOGY,LF,target,right,aqua,pleasantness,conservative,no,z,1,0.840141670706,1,334
2019_Oct_11,204,001,4,recog,86,CENTRAL,HF,lure,-,-,-,conservative,no,z,0,0.920139207122,-3,331
2019_Oct_11,204,001,4,recog,87,MONEY,HF,lure,-,-,-,conservative,no,m,1,0.533498867559,3,334
2019_Oct_11,204,001,4,recog,88,OPENED,HF,lure,-,-,-,liberal,no,m,1,0.426993247876,1,335
2019_Oct_11,204,001,4,recog,89,ENTIRELY,HF,target,left,yellow,imageability,liberal,no,z,1,0.600101769454,3,338
2019_Oct_11,204,001,4,recog,90,BIBLES,LF,lure,-,-,-,liberal,no,m,1,0.853402494525,1,339
2019_Oct_11,204,001,4,recog,91,LARGE,HF,lure,-,-,-,liberal,yes,m,1,0.520148958806,1,340
2019_Oct_11,204,001,4,recog,92,BOVINE,LF,target,right,aqua,pleasantness,liberal,no,z,1,1.17335487991,3,343
2019_Oct_11,204,001,4,recog,93,LEARN,HF,target,left,yellow,imageability,conservative,no,m,0,0.600105068896,-1,342
2019_Oct_11,204,001,4,recog,94,PIPELINES,LF,lure,-,-,-,liberal,no,m,1,1.2398862939,1,343
2019_Oct_11,204,001,4,recog,95,BLOOD,HF,target,right,aqua,pleasantness,conservative,no,z,1,0.760335868527,1,344
