date,subj,session,cycle,task,trial,item,wf,type,source,colour,encoding,bias,null,response,corr,rt,points,total
2019_Oct_16,205,001,0,source,0,MONEY,HF,target,right,yellow,imageability,conservative,no,8,1,2.49250654577,-,-
2019_Oct_16,205,001,0,source,1,MERELY,HF,target,left,aqua,pleasantness,conservative,no,8,0,1.33320172129,-,-
2019_Oct_16,205,001,0,source,2,LOLLED,LF,target,right,yellow,imageability,liberal,no,9,1,1.31989790719,-,-
2019_Oct_16,205,001,0,source,3,TULIPS,LF,target,right,yellow,imageability,conservative,no,9,1,1.06657406165,-,-
2019_Oct_16,205,001,0,source,4,ANAEMIC,LF,target,right,yellow,imageability,liberal,no,9,1,1.38627840015,-,-
2019_Oct_16,205,001,0,source,5,EDUCATION,HF,target,right,yellow,imageability,conservative,no,9,1,0.919838736759,-,-
2019_Oct_16,205,001,0,source,6,GYMKHANA,LF,target,right,yellow,imageability,conservative,no,8,1,1.57313303374,-,-
2019_Oct_16,205,001,0,source,7,SAYING,HF,target,right,yellow,imageability,liberal,no,8,1,1.33322738381,-,-
2019_Oct_16,205,001,0,source,8,SHIELDING,LF,target,left,aqua,pleasantness,conservative,no,2,1,1.74610461361,-,-
2019_Oct_16,205,001,0,source,9,SOUND,HF,target,right,yellow,imageability,liberal,no,2,0,1.47955137525,-,-
2019_Oct_16,205,001,0,source,10,OFTEN,HF,target,right,yellow,imageability,liberal,no,2,0,1.45312521767,-,-
2019_Oct_16,205,001,0,source,11,KINDEST,LF,target,right,yellow,imageability,conservative,yes,1,0,1.7597266429,-,-
2019_Oct_16,205,001,0,source,12,GAPED,LF,target,left,aqua,pleasantness,liberal,no,1,1,1.45291551827,-,-
2019_Oct_16,205,001,0,source,13,CABLED,LF,target,left,aqua,pleasantness,liberal,no,7,0,1.50650911349,-,-
2019_Oct_16,205,001,0,source,14,PAVILIONS,LF,target,left,aqua,pleasantness,liberal,no,7,0,1.54645831638,-,-
2019_Oct_16,205,001,0,source,15,FLOOR,HF,target,left,aqua,pleasantness,conservative,no,3,1,1.26659796445,-,-
2019_Oct_16,205,001,0,source,16,LIQUEUR,LF,target,left,aqua,pleasantness,liberal,no,8,0,2.86568313247,-,-
2019_Oct_16,205,001,0,source,17,BECAME,HF,target,left,aqua,pleasantness,conservative,no,1,1,1.66654825249,-,-
2019_Oct_16,205,001,0,source,18,ECONOMIC,HF,target,right,yellow,imageability,conservative,yes,3,0,1.35953292757,-,-
2019_Oct_16,205,001,0,source,19,POINT,HF,target,left,aqua,pleasantness,liberal,no,2,1,2.30611273763,-,-
2019_Oct_16,205,001,0,source,20,REIGNING,LF,target,left,aqua,pleasantness,liberal,no,8,0,1.55974709959,-,-
2019_Oct_16,205,001,0,source,21,INVOLVED,HF,target,left,aqua,pleasantness,conservative,no,7,0,1.75945462024,-,-
2019_Oct_16,205,001,0,source,22,THEORY,HF,target,right,yellow,imageability,liberal,no,7,1,1.18655841485,-,-
2019_Oct_16,205,001,0,source,23,OLDER,HF,target,right,yellow,imageability,liberal,no,9,1,0.999955273903,-,-
2019_Oct_16,205,001,0,source,24,PEDALLING,LF,target,left,aqua,pleasantness,conservative,no,2,1,1.466499787,-,-
2019_Oct_16,205,001,0,source,25,CATALYST,LF,target,right,yellow,imageability,conservative,no,9,1,1.09327664117,-,-
2019_Oct_16,205,001,0,source,26,SHALL,HF,target,left,aqua,pleasantness,liberal,no,9,0,1.63983504136,-,-
2019_Oct_16,205,001,0,source,27,GETTING,HF,target,left,aqua,pleasantness,liberal,yes,7,0,1.13327460284,-,-
2019_Oct_16,205,001,0,source,28,ADDED,HF,target,right,yellow,imageability,conservative,no,8,1,1.94626672738,-,-
2019_Oct_16,205,001,0,source,29,UNABATED,LF,target,right,yellow,imageability,conservative,no,2,0,2.22612377984,-,-
2019_Oct_16,205,001,0,source,30,STUDENT,HF,target,right,yellow,imageability,liberal,no,9,1,1.55999272651,-,-
2019_Oct_16,205,001,0,source,31,OUGHT,HF,target,left,aqua,pleasantness,conservative,no,3,1,1.51967984913,-,-
2019_Oct_16,205,001,0,source,32,REQUIRED,HF,target,right,yellow,imageability,conservative,no,7,1,1.31985538073,-,-
2019_Oct_16,205,001,0,source,33,SEDAN,LF,target,right,yellow,imageability,conservative,no,7,1,0.946675861179,-,-
2019_Oct_16,205,001,0,source,34,ROUND,HF,target,left,aqua,pleasantness,liberal,no,1,1,1.04006101813,-,-
2019_Oct_16,205,001,0,source,35,NEOLITHIC,LF,target,left,aqua,pleasantness,conservative,no,1,1,1.25338396914,-,-
2019_Oct_16,205,001,0,source,36,SAPLINGS,LF,target,left,aqua,pleasantness,conservative,no,7,0,1.91937754471,-,-
2019_Oct_16,205,001,0,source,37,JEERED,LF,target,left,aqua,pleasantness,liberal,no,3,1,1.63950326171,-,-
2019_Oct_16,205,001,0,source,38,HAPPEN,HF,target,left,aqua,pleasantness,conservative,no,3,1,1.15966593272,-,-
2019_Oct_16,205,001,0,source,39,RAVAGES,LF,target,right,yellow,imageability,liberal,yes,9,1,1.27988491462,-,-
2019_Oct_16,205,001,0,source,40,SOCIAL,HF,target,right,yellow,imageability,conservative,no,7,1,2.18611298692,-,-
2019_Oct_16,205,001,0,source,41,ANIMAL,HF,target,left,aqua,pleasantness,liberal,no,3,1,1.42625289895,-,-
2019_Oct_16,205,001,0,source,42,TICKLE,LF,target,right,yellow,imageability,liberal,no,8,1,1.25300783,-,-
2019_Oct_16,205,001,0,source,43,JUBILANT,LF,target,left,aqua,pleasantness,conservative,no,1,1,1.16002080863,-,-
2019_Oct_16,205,001,0,source,44,KNEAD,LF,target,left,aqua,pleasantness,conservative,no,3,1,1.05367058277,-,-
2019_Oct_16,205,001,0,source,45,WAXEN,LF,target,right,yellow,imageability,liberal,no,9,1,1.17272595294,-,-
2019_Oct_16,205,001,0,source,46,SINCE,HF,target,left,aqua,pleasantness,liberal,no,7,0,2.61270939695,-,-
2019_Oct_16,205,001,0,source,47,CULINARY,LF,target,right,yellow,imageability,liberal,no,3,0,1.74614604024,-,-
2019_Oct_16,205,001,0,recog,0,ZENITH,LF,lure,-,-,-,liberal,no,m,1,4.17214378047,1,1
2019_Oct_16,205,001,0,recog,1,STUDENT,HF,target,right,yellow,imageability,liberal,no,z,1,2.51951597565,3,4
2019_Oct_16,205,001,0,recog,2,REIGNING,LF,target,left,aqua,pleasantness,liberal,no,z,1,1.46645909359,3,7
2019_Oct_16,205,001,0,recog,3,SINCE,HF,target,left,aqua,pleasantness,liberal,no,z,1,0.786912777512,3,10
2019_Oct_16,205,001,0,recog,4,MYOPIC,LF,lure,-,-,-,conservative,no,m,1,3.51902728805,3,13
2019_Oct_16,205,001,0,recog,5,PAVILIONS,LF,target,left,aqua,pleasantness,liberal,no,z,1,2.86592692636,3,16
2019_Oct_16,205,001,0,recog,6,ARSENALS,LF,lure,-,-,-,conservative,no,m,1,2.26614960366,3,19
2019_Oct_16,205,001,0,recog,7,SHIELDING,LF,target,left,aqua,pleasantness,conservative,no,z,1,2.09286934041,1,20
2019_Oct_16,205,001,0,recog,8,BLOOD,HF,lure,-,-,-,liberal,no,m,1,2.01271101003,1,21
2019_Oct_16,205,001,0,recog,9,OLDER,HF,target,right,yellow,imageability,liberal,no,z,1,1.94608598995,3,24
2019_Oct_16,205,001,0,recog,10,BEYOND,HF,lure,-,-,-,liberal,no,m,1,1.89301554342,1,25
2019_Oct_16,205,001,0,recog,11,CHIEF,HF,lure,-,-,-,conservative,no,m,1,1.89325530462,3,28
2019_Oct_16,205,001,0,recog,12,PRIVATE,HF,lure,-,-,-,conservative,no,m,1,2.50618063331,3,31
2019_Oct_16,205,001,0,recog,13,WRITE,HF,lure,-,-,-,conservative,no,m,1,3.21283206377,3,34
2019_Oct_16,205,001,0,recog,14,ATONEMENT,LF,lure,-,-,-,conservative,no,m,1,1.21334018156,3,37
2019_Oct_16,205,001,0,recog,15,MONEY,HF,target,right,yellow,imageability,conservative,no,z,1,0.933135218722,1,38
2019_Oct_16,205,001,0,recog,16,BLEACH,LF,lure,-,-,-,liberal,no,m,1,1.77302165843,1,39
2019_Oct_16,205,001,0,recog,17,GRACES,LF,lure,-,-,-,conservative,no,m,1,1.34629290314,3,42
2019_Oct_16,205,001,0,recog,18,INTEREST,HF,lure,-,-,-,conservative,no,m,1,3.46546925374,3,45
2019_Oct_16,205,001,0,recog,19,SAYING,HF,target,right,yellow,imageability,liberal,no,z,1,1.25327801962,3,48
2019_Oct_16,205,001,0,recog,20,DEGREE,HF,lure,-,-,-,conservative,no,m,1,2.03979559441,3,51
2019_Oct_16,205,001,0,recog,21,KINDEST,LF,target,right,yellow,imageability,conservative,no,m,0,1.25332677839,-1,50
2019_Oct_16,205,001,0,recog,22,SOCIAL,HF,target,right,yellow,imageability,conservative,no,z,1,3.15608161266,1,51
2019_Oct_16,205,001,0,recog,23,TICKLE,LF,target,right,yellow,imageability,liberal,no,z,1,1.34623937847,3,54
2019_Oct_16,205,001,0,recog,24,DOUBT,HF,lure,-,-,-,conservative,no,m,1,1.65314985369,3,57
2019_Oct_16,205,001,0,recog,25,MERELY,HF,target,left,aqua,pleasantness,conservative,no,z,1,1.78606334828,1,58
2019_Oct_16,205,001,0,recog,26,FLOOR,HF,target,left,aqua,pleasantness,conservative,no,z,1,1.25318196849,1,59
2019_Oct_16,205,001,0,recog,27,UNNAMED,LF,lure,-,-,-,conservative,no,m,1,1.53289641069,3,62
2019_Oct_16,205,001,0,recog,28,WAITING,HF,lure,-,-,-,liberal,no,m,1,1.57313303374,1,63
2019_Oct_16,205,001,0,recog,29,PIGLETS,LF,lure,-,-,-,liberal,no,m,1,1.1866907601,1,64
2019_Oct_16,205,001,0,recog,30,THEORY,HF,target,right,yellow,imageability,liberal,no,z,1,0.853519100609,3,67
2019_Oct_16,205,001,0,recog,31,CATALYST,LF,target,right,yellow,imageability,conservative,yes,m,0,1.18654705002,-1,66
2019_Oct_16,205,001,0,recog,32,HUMAN,HF,lure,-,-,-,liberal,no,m,1,2.61272442785,1,67
2019_Oct_16,205,001,0,recog,33,REVERE,LF,lure,-,-,-,liberal,no,m,1,1.17327329771,1,68
2019_Oct_16,205,001,0,recog,34,JUBILANT,LF,target,left,aqua,pleasantness,conservative,no,z,1,1.19993445061,1,69
2019_Oct_16,205,001,0,recog,35,LOLLED,LF,target,right,yellow,imageability,liberal,no,z,1,1.10661564959,3,72
2019_Oct_16,205,001,0,recog,36,OFTEN,HF,target,right,yellow,imageability,liberal,no,z,1,1.06664848294,3,75
2019_Oct_16,205,001,0,recog,37,CRUCIALLY,LF,lure,-,-,-,conservative,yes,m,1,1.21324376383,3,78
2019_Oct_16,205,001,0,recog,38,BASIC,HF,lure,-,-,-,liberal,no,m,1,1.51988221639,1,79
2019_Oct_16,205,001,0,recog,39,PYJAMA,LF,lure,-,-,-,liberal,no,m,1,1.11995392479,1,80
2019_Oct_16,205,001,0,recog,40,SPEAK,HF,lure,-,-,-,liberal,no,m,1,1.42645966549,1,81
2019_Oct_16,205,001,0,recog,41,LATER,HF,lure,-,-,-,conservative,no,m,1,1.59977512305,3,84
2019_Oct_16,205,001,0,recog,42,EDUCATION,HF,target,right,yellow,imageability,conservative,no,z,1,1.09347167628,1,85
2019_Oct_16,205,001,0,recog,43,ORDER,HF,lure,-,-,-,conservative,yes,m,1,0.906713093822,3,88
2019_Oct_16,205,001,0,recog,44,WELCOMES,LF,lure,-,-,-,liberal,no,m,1,1.03998952969,1,89
2019_Oct_16,205,001,0,recog,45,ARBITER,LF,lure,-,-,-,liberal,no,z,0,1.94628909043,-1,88
2019_Oct_16,205,001,0,recog,46,HAPPEN,HF,target,left,aqua,pleasantness,conservative,no,z,1,2.57274259691,1,89
2019_Oct_16,205,001,0,recog,47,ANYONE,HF,lure,-,-,-,liberal,no,m,1,1.21304066335,1,90
2019_Oct_16,205,001,0,recog,48,ELLIPSE,LF,lure,-,-,-,conservative,no,m,1,0.946740017465,3,93
2019_Oct_16,205,001,0,recog,49,ADDED,HF,target,right,yellow,imageability,conservative,no,z,1,1.78642262349,1,94
2019_Oct_16,205,001,0,recog,50,REQUIRED,HF,target,right,yellow,imageability,conservative,yes,m,0,0.773460854034,-1,93
2019_Oct_16,205,001,0,recog,51,CABLED,LF,target,left,aqua,pleasantness,liberal,no,z,1,1.23986935581,3,96
2019_Oct_16,205,001,0,recog,52,CLOSE,HF,lure,-,-,-,liberal,no,z,0,0.960069494089,-1,95
2019_Oct_16,205,001,0,recog,53,GYMKHANA,LF,target,right,yellow,imageability,conservative,no,z,1,1.19993005132,1,96
2019_Oct_16,205,001,0,recog,54,BEGAN,HF,lure,-,-,-,liberal,no,m,1,2.25283112526,1,97
2019_Oct_16,205,001,0,recog,55,SHALL,HF,target,left,aqua,pleasantness,liberal,no,z,1,0.920050635807,3,100
2019_Oct_16,205,001,0,recog,56,ANIMAL,HF,target,left,aqua,pleasantness,liberal,no,z,1,0.813416289245,3,103
2019_Oct_16,205,001,0,recog,57,HUSBAND,HF,lure,-,-,-,liberal,no,m,1,0.720082457325,1,104
2019_Oct_16,205,001,0,recog,58,RAVAGES,LF,target,right,yellow,imageability,liberal,no,z,1,0.840058378554,3,107
2019_Oct_16,205,001,0,recog,59,LIQUEUR,LF,target,left,aqua,pleasantness,liberal,no,z,1,0.720170443089,3,110
2019_Oct_16,205,001,0,recog,60,CULINARY,LF,target,right,yellow,imageability,liberal,no,z,1,0.786808661025,3,113
2019_Oct_16,205,001,0,recog,61,BUILDING,HF,lure,-,-,-,conservative,no,m,1,0.733418166274,3,116
2019_Oct_16,205,001,0,recog,62,FIELD,HF,lure,-,-,-,conservative,no,m,1,0.82669993995,3,119
2019_Oct_16,205,001,0,recog,63,JEERED,LF,target,left,aqua,pleasantness,liberal,no,z,1,0.840036015506,3,122
2019_Oct_16,205,001,0,recog,64,WAXEN,LF,target,right,yellow,imageability,liberal,no,z,1,0.680118223538,3,125
2019_Oct_16,205,001,0,recog,65,JASMINE,LF,lure,-,-,-,conservative,no,m,1,0.826499405729,3,128
2019_Oct_16,205,001,0,recog,66,EVADING,LF,lure,-,-,-,conservative,no,m,1,0.946648365628,3,131
2019_Oct_16,205,001,0,recog,67,UNABATED,LF,target,right,yellow,imageability,conservative,no,z,1,1.35960991512,1,132
2019_Oct_16,205,001,0,recog,68,SMIRK,LF,lure,-,-,-,liberal,no,m,1,0.800098544056,1,133
2019_Oct_16,205,001,0,recog,69,SAPLINGS,LF,target,left,aqua,pleasantness,conservative,no,z,1,1.47983146327,1,134
2019_Oct_16,205,001,0,recog,70,NIMBLE,LF,lure,-,-,-,liberal,no,m,1,0.760122578833,1,135
2019_Oct_16,205,001,0,recog,71,AVIDLY,LF,lure,-,-,-,conservative,no,m,1,0.773553239086,3,138
2019_Oct_16,205,001,0,recog,72,TULIPS,LF,target,right,yellow,imageability,conservative,no,z,1,0.720174109163,1,139
2019_Oct_16,205,001,0,recog,73,ANAEMIC,LF,target,right,yellow,imageability,liberal,no,z,1,1.26654333995,3,142
2019_Oct_16,205,001,0,recog,74,KNEAD,LF,target,left,aqua,pleasantness,conservative,no,z,1,0.680176147499,1,143
2019_Oct_16,205,001,0,recog,75,CARRIED,HF,lure,-,-,-,conservative,no,m,1,0.920073365463,3,146
2019_Oct_16,205,001,0,recog,76,SEDAN,LF,target,right,yellow,imageability,conservative,no,z,1,1.05334870151,1,147
2019_Oct_16,205,001,0,recog,77,OUGHT,HF,target,left,aqua,pleasantness,conservative,no,z,1,0.813386594049,1,148
2019_Oct_16,205,001,0,recog,78,PEDALLING,LF,target,left,aqua,pleasantness,conservative,no,z,1,0.586562227565,1,149
2019_Oct_16,205,001,0,recog,79,ECONOMIC,HF,target,right,yellow,imageability,conservative,no,z,1,0.57352053771,1,150
2019_Oct_16,205,001,0,recog,80,BINDINGS,LF,lure,-,-,-,liberal,no,m,1,0.90669952935,1,151
2019_Oct_16,205,001,0,recog,81,POTASH,LF,lure,-,-,-,conservative,no,m,1,0.640030076467,3,154
2019_Oct_16,205,001,0,recog,82,HONKING,LF,lure,-,-,-,liberal,no,m,1,0.586562594172,1,155
2019_Oct_16,205,001,0,recog,83,POINT,HF,target,left,aqua,pleasantness,liberal,no,z,1,0.640163154935,3,158
2019_Oct_16,205,001,0,recog,84,NEOLITHIC,LF,target,left,aqua,pleasantness,conservative,no,z,1,0.719949745464,1,159
2019_Oct_16,205,001,0,recog,85,GAPED,LF,target,left,aqua,pleasantness,liberal,no,m,0,1.41314558638,-3,156
2019_Oct_16,205,001,0,recog,86,KNUCKLE,LF,lure,-,-,-,liberal,no,m,1,0.933410174234,1,157
2019_Oct_16,205,001,0,recog,87,GETTING,HF,target,left,aqua,pleasantness,liberal,no,z,1,1.33321381934,3,160
2019_Oct_16,205,001,0,recog,88,INVOLVED,HF,target,left,aqua,pleasantness,conservative,no,m,0,0.906679732553,-1,159
2019_Oct_16,205,001,0,recog,89,SOUND,HF,target,right,yellow,imageability,liberal,no,z,1,0.720513587568,3,162
2019_Oct_16,205,001,0,recog,90,DIVAN,LF,lure,-,-,-,conservative,no,m,1,1.53320839355,3,165
2019_Oct_16,205,001,0,recog,91,MOUTH,HF,lure,-,-,-,conservative,no,m,1,0.733443828788,3,168
2019_Oct_16,205,001,0,recog,92,MOVED,HF,lure,-,-,-,liberal,no,z,0,1.39982454172,-1,167
2019_Oct_16,205,001,0,recog,93,ROUND,HF,target,left,aqua,pleasantness,liberal,no,z,1,0.573494141981,3,170
2019_Oct_16,205,001,0,recog,94,SOVIET,HF,lure,-,-,-,liberal,no,m,1,1.01332544394,1,171
2019_Oct_16,205,001,0,recog,95,BECAME,HF,target,left,aqua,pleasantness,conservative,no,z,1,0.653276333222,1,172
2019_Oct_16,205,001,1,source,0,WINDOW,HF,target,right,yellow,imageability,conservative,no,8,1,2.05265911309,-,-
2019_Oct_16,205,001,1,source,1,BORAX,LF,target,right,yellow,imageability,liberal,no,7,1,1.13327130337,-,-
2019_Oct_16,205,001,1,source,2,RUPTURE,LF,target,left,aqua,pleasantness,liberal,no,7,0,1.27991644285,-,-
2019_Oct_16,205,001,1,source,3,GIVEN,HF,target,left,aqua,pleasantness,conservative,no,7,0,1.02662852484,-,-
2019_Oct_16,205,001,1,source,4,HISTORY,HF,target,left,aqua,pleasantness,liberal,no,8,0,2.02628904643,-,-
2019_Oct_16,205,001,1,source,5,CORNER,HF,target,left,aqua,pleasantness,liberal,no,1,1,1.43954681466,-,-
2019_Oct_16,205,001,1,source,6,ERODE,LF,target,left,aqua,pleasantness,conservative,no,7,0,2.35918135112,-,-
2019_Oct_16,205,001,1,source,7,CALLED,HF,target,right,yellow,imageability,liberal,no,7,1,1.63972872523,-,-
2019_Oct_16,205,001,1,source,8,CHEEKBONE,LF,target,left,aqua,pleasantness,liberal,no,2,1,1.91980134281,-,-
2019_Oct_16,205,001,1,source,9,GUSHED,LF,target,left,aqua,pleasantness,conservative,no,7,0,1.21317484164,-,-
2019_Oct_16,205,001,1,source,10,GLASS,HF,target,left,aqua,pleasantness,liberal,no,1,1,0.919846435513,-,-
2019_Oct_16,205,001,1,source,11,TOTAL,HF,target,left,aqua,pleasantness,liberal,no,7,0,0.920176382128,-,-
2019_Oct_16,205,001,1,source,12,MAYBE,HF,target,left,aqua,pleasantness,conservative,no,3,1,1.61306537269,-,-
2019_Oct_16,205,001,1,source,13,ATROCITY,LF,target,left,aqua,pleasantness,conservative,no,2,1,1.54619802516,-,-
2019_Oct_16,205,001,1,source,14,BOWER,LF,target,right,yellow,imageability,liberal,no,3,0,1.11991836388,-,-
2019_Oct_16,205,001,1,source,15,ASKED,HF,target,right,yellow,imageability,conservative,no,7,1,1.07995119723,-,-
2019_Oct_16,205,001,1,source,16,LIVED,HF,target,right,yellow,imageability,conservative,no,9,1,1.06658469326,-,-
2019_Oct_16,205,001,1,source,17,PICTURE,HF,target,right,yellow,imageability,liberal,no,9,1,1.26633217412,-,-
2019_Oct_16,205,001,1,source,18,WALKED,HF,target,left,aqua,pleasantness,liberal,no,3,1,1.26658146712,-,-
2019_Oct_16,205,001,1,source,19,EATERS,LF,target,right,yellow,imageability,conservative,no,9,1,0.866700467864,-,-
2019_Oct_16,205,001,1,source,20,UPHEAVALS,LF,target,left,aqua,pleasantness,liberal,no,1,1,1.69305982959,-,-
2019_Oct_16,205,001,1,source,21,AFOOT,LF,target,right,yellow,imageability,conservative,no,9,1,1.03977506439,-,-
2019_Oct_16,205,001,1,source,22,ARMAMENT,LF,target,left,aqua,pleasantness,liberal,no,7,0,2.73261309653,-,-
2019_Oct_16,205,001,1,source,23,BEHIND,HF,target,left,aqua,pleasantness,conservative,no,1,1,1.85299118603,-,-
2019_Oct_16,205,001,1,source,24,BLACK,HF,target,right,yellow,imageability,conservative,no,9,1,0.906671667191,-,-
2019_Oct_16,205,001,1,source,25,SEEMED,HF,target,left,aqua,pleasantness,conservative,yes,8,0,0.853340929438,-,-
2019_Oct_16,205,001,1,source,26,GUMMED,LF,target,right,yellow,imageability,liberal,no,9,1,0.986732113411,-,-
2019_Oct_16,205,001,1,source,27,MAVIS,LF,target,right,yellow,imageability,conservative,yes,7,1,0.746686786078,-,-
2019_Oct_16,205,001,1,source,28,RICKETS,LF,target,right,yellow,imageability,conservative,no,3,0,1.26655800425,-,-
2019_Oct_16,205,001,1,source,29,BOASTS,LF,target,left,aqua,pleasantness,conservative,no,8,0,1.03974390277,-,-
2019_Oct_16,205,001,1,source,30,ZEALOTS,LF,target,left,aqua,pleasantness,liberal,no,2,1,1.12029413641,-,-
2019_Oct_16,205,001,1,source,31,AHEAD,HF,target,left,aqua,pleasantness,conservative,yes,1,1,0.84002721693,-,-
2019_Oct_16,205,001,1,source,32,ALTHOUGH,HF,target,left,aqua,pleasantness,conservative,no,1,1,0.893401580958,-,-
2019_Oct_16,205,001,1,source,33,ENCLOSE,LF,target,right,yellow,imageability,liberal,no,3,0,1.22690062081,-,-
2019_Oct_16,205,001,1,source,34,PASSED,HF,target,right,yellow,imageability,conservative,no,7,1,1.05311004013,-,-
2019_Oct_16,205,001,1,source,35,AREAS,HF,target,right,yellow,imageability,liberal,no,7,1,0.933318522397,-,-
2019_Oct_16,205,001,1,source,36,NIGHT,HF,target,right,yellow,imageability,conservative,no,7,1,0.986389702146,-,-
2019_Oct_16,205,001,1,source,37,AGELESS,LF,target,right,yellow,imageability,conservative,no,8,1,1.62615728775,-,-
2019_Oct_16,205,001,1,source,38,USING,HF,target,right,yellow,imageability,liberal,yes,2,0,1.17298587755,-,-
2019_Oct_16,205,001,1,source,39,FEUDALISM,LF,target,right,yellow,imageability,liberal,no,9,1,1.17325203449,-,-
2019_Oct_16,205,001,1,source,40,KEENER,LF,target,right,yellow,imageability,conservative,no,9,1,0.786203392291,-,-
2019_Oct_16,205,001,1,source,41,QUESTION,HF,target,left,aqua,pleasantness,liberal,no,3,1,1.18633295133,-,-
2019_Oct_16,205,001,1,source,42,VINEYARDS,LF,target,right,yellow,imageability,liberal,no,9,1,0.853692872493,-,-
2019_Oct_16,205,001,1,source,43,ABATED,LF,target,left,aqua,pleasantness,liberal,no,8,0,1.97307745607,-,-
2019_Oct_16,205,001,1,source,44,RIVER,HF,target,right,yellow,imageability,liberal,no,9,1,0.773373234877,-,-
2019_Oct_16,205,001,1,source,45,DIGESTING,LF,target,left,aqua,pleasantness,conservative,no,1,1,0.906661768792,-,-
2019_Oct_16,205,001,1,source,46,SEABED,LF,target,left,aqua,pleasantness,conservative,no,3,1,1.9060488013,-,-
2019_Oct_16,205,001,1,source,47,STAFF,HF,target,right,yellow,imageability,liberal,no,9,1,0.72021186972,-,-
2019_Oct_16,205,001,1,recog,0,DECIDED,HF,lure,-,-,-,conservative,no,m,1,1.74647635346,3,175
2019_Oct_16,205,001,1,recog,1,GLASS,HF,target,left,aqua,pleasantness,liberal,no,z,1,0.906757453311,3,178
2019_Oct_16,205,001,1,recog,2,NIGHT,HF,target,right,yellow,imageability,conservative,no,z,1,0.933384511719,1,179
2019_Oct_16,205,001,1,recog,3,CIVILITY,LF,lure,-,-,-,conservative,no,m,1,0.786479081018,3,182
2019_Oct_16,205,001,1,recog,4,KEENER,LF,target,right,yellow,imageability,conservative,no,z,1,0.999747407536,1,183
2019_Oct_16,205,001,1,recog,5,HIGHER,HF,lure,-,-,-,conservative,no,m,1,0.733962211581,3,186
2019_Oct_16,205,001,1,recog,6,FURTHER,HF,lure,-,-,-,liberal,no,m,1,1.78634270308,1,187
2019_Oct_16,205,001,1,recog,7,BORAX,LF,target,right,yellow,imageability,liberal,no,z,1,1.11992349638,3,190
2019_Oct_16,205,001,1,recog,8,STAFF,HF,target,right,yellow,imageability,liberal,no,z,1,0.746554440825,3,193
2019_Oct_16,205,001,1,recog,9,PUBLIC,HF,lure,-,-,-,conservative,yes,m,1,0.853399220006,3,196
2019_Oct_16,205,001,1,recog,10,SUING,LF,lure,-,-,-,conservative,no,m,1,0.986469255941,3,199
2019_Oct_16,205,001,1,recog,11,TIMES,HF,lure,-,-,-,conservative,no,m,1,0.68013178801,3,202
2019_Oct_16,205,001,1,recog,12,WISPY,LF,lure,-,-,-,liberal,no,m,1,0.626782719889,1,203
2019_Oct_16,205,001,1,recog,13,DOCTOR,HF,lure,-,-,-,liberal,no,m,1,0.719900986687,1,204
2019_Oct_16,205,001,1,recog,14,USING,HF,target,right,yellow,imageability,liberal,no,z,1,1.18657161271,3,207
2019_Oct_16,205,001,1,recog,15,GIVEN,HF,target,left,aqua,pleasantness,conservative,no,z,1,0.693524321098,1,208
2019_Oct_16,205,001,1,recog,16,ATROCITY,LF,target,left,aqua,pleasantness,conservative,no,z,1,1.09347314271,1,209
2019_Oct_16,205,001,1,recog,17,LESSENED,LF,lure,-,-,-,liberal,no,m,1,0.719825465573,1,210
2019_Oct_16,205,001,1,recog,18,ASKED,HF,target,right,yellow,imageability,conservative,no,z,1,0.666782147982,1,211
2019_Oct_16,205,001,1,recog,19,HISTORY,HF,target,left,aqua,pleasantness,liberal,no,z,1,0.746604299424,3,214
2019_Oct_16,205,001,1,recog,20,RANGE,HF,lure,-,-,-,conservative,no,m,1,1.18657014628,3,217
2019_Oct_16,205,001,1,recog,21,FEUDALISM,LF,target,right,yellow,imageability,liberal,no,z,1,0.733241828139,3,220
2019_Oct_16,205,001,1,recog,22,MAVIS,LF,target,right,yellow,imageability,conservative,no,z,1,1.01335073985,1,221
2019_Oct_16,205,001,1,recog,23,QUESTION,HF,target,left,aqua,pleasantness,liberal,no,z,1,0.613496502933,3,224
2019_Oct_16,205,001,1,recog,24,WALKED,HF,target,left,aqua,pleasantness,liberal,no,z,1,0.680128121937,3,227
2019_Oct_16,205,001,1,recog,25,BOWER,LF,target,right,yellow,imageability,liberal,no,z,1,0.653479800302,3,230
2019_Oct_16,205,001,1,recog,26,ARPEGGIO,LF,lure,-,-,-,conservative,no,m,1,0.853422682877,3,233
2019_Oct_16,205,001,1,recog,27,SEEMED,HF,target,left,aqua,pleasantness,conservative,no,z,1,0.66682944033,1,234
2019_Oct_16,205,001,1,recog,28,GANGWAY,LF,lure,-,-,-,conservative,no,m,1,0.666774449227,3,237
2019_Oct_16,205,001,1,recog,29,PASSED,HF,target,right,yellow,imageability,conservative,no,z,1,0.600166293094,1,238
2019_Oct_16,205,001,1,recog,30,LIVED,HF,target,right,yellow,imageability,conservative,yes,m,0,0.706785242148,-1,237
2019_Oct_16,205,001,1,recog,31,BOASTS,LF,target,left,aqua,pleasantness,conservative,no,z,1,0.853389688215,1,238
2019_Oct_16,205,001,1,recog,32,ZEALOTS,LF,target,left,aqua,pleasantness,liberal,no,z,1,0.733389570901,3,241
2019_Oct_16,205,001,1,recog,33,HOSPITAL,HF,lure,-,-,-,liberal,no,m,1,0.666807810496,1,242
2019_Oct_16,205,001,1,recog,34,CHURCH,HF,lure,-,-,-,liberal,no,m,1,0.760671390036,1,243
2019_Oct_16,205,001,1,recog,35,MAKES,HF,lure,-,-,-,liberal,no,m,1,0.600061443392,1,244
2019_Oct_16,205,001,1,recog,36,WINDOW,HF,target,right,yellow,imageability,conservative,no,z,1,0.586797589483,1,245
2019_Oct_16,205,001,1,recog,37,EAVES,LF,lure,-,-,-,liberal,yes,m,1,0.58660438741,1,246
2019_Oct_16,205,001,1,recog,38,ENCLOSE,LF,target,right,yellow,imageability,liberal,no,z,1,1.42655718305,3,249
2019_Oct_16,205,001,1,recog,39,TOTAL,HF,target,left,aqua,pleasantness,liberal,no,z,1,1.11970646483,3,252
2019_Oct_16,205,001,1,recog,40,RECENT,HF,lure,-,-,-,conservative,no,z,0,0.786789597443,-3,249
2019_Oct_16,205,001,1,recog,41,WHETHER,HF,lure,-,-,-,liberal,no,m,1,0.773592099465,1,250
2019_Oct_16,205,001,1,recog,42,CHEEKBONE,LF,target,left,aqua,pleasantness,liberal,no,z,1,0.666805610852,3,253
2019_Oct_16,205,001,1,recog,43,GUSHED,LF,target,left,aqua,pleasantness,conservative,no,z,1,0.693541918251,1,254
2019_Oct_16,205,001,1,recog,44,BEHIND,HF,target,left,aqua,pleasantness,conservative,no,z,1,0.653366518631,1,255
2019_Oct_16,205,001,1,recog,45,LETTER,HF,lure,-,-,-,liberal,no,m,1,0.880077970051,1,256
2019_Oct_16,205,001,1,recog,46,AFOOT,LF,target,right,yellow,imageability,conservative,no,z,1,1.99970231483,1,257
2019_Oct_16,205,001,1,recog,47,CORNER,HF,target,left,aqua,pleasantness,liberal,no,z,1,0.959755678198,3,260
2019_Oct_16,205,001,1,recog,48,SPICED,LF,lure,-,-,-,liberal,no,m,1,0.706705688353,1,261
2019_Oct_16,205,001,1,recog,49,PICTURE,HF,target,right,yellow,imageability,liberal,no,z,1,0.893390582737,3,264
2019_Oct_16,205,001,1,recog,50,BIJOU,LF,lure,-,-,-,conservative,no,m,1,0.626812781692,3,267
2019_Oct_16,205,001,1,recog,51,ERODE,LF,target,left,aqua,pleasantness,conservative,no,z,1,0.853302069059,1,268
2019_Oct_16,205,001,1,recog,52,AHEAD,HF,target,left,aqua,pleasantness,conservative,no,z,1,0.680110158176,1,269
2019_Oct_16,205,001,1,recog,53,SPOKE,HF,lure,-,-,-,liberal,no,m,1,0.746786503277,1,270
2019_Oct_16,205,001,1,recog,54,CUPID,LF,lure,-,-,-,conservative,no,z,0,0.546615957538,-3,267
2019_Oct_16,205,001,1,recog,55,BEECHES,LF,lure,-,-,-,conservative,no,m,1,2.51922158995,3,270
2019_Oct_16,205,001,1,recog,56,PUMPKIN,LF,lure,-,-,-,liberal,no,m,1,0.613468640774,1,271
2019_Oct_16,205,001,1,recog,57,DOODLE,LF,lure,-,-,-,liberal,no,m,1,0.786808661025,1,272
2019_Oct_16,205,001,1,recog,58,CHAIR,HF,lure,-,-,-,conservative,no,m,1,0.800082779939,3,275
2019_Oct_16,205,001,1,recog,59,LOPSIDED,LF,lure,-,-,-,liberal,no,m,1,0.866714032336,1,276
2019_Oct_16,205,001,1,recog,60,AREAS,HF,target,right,yellow,imageability,liberal,no,z,1,1.54644621834,3,279
2019_Oct_16,205,001,1,recog,61,RICKETS,LF,target,right,yellow,imageability,conservative,no,m,0,1.63980534616,-1,278
2019_Oct_16,205,001,1,recog,62,DIGESTING,LF,target,left,aqua,pleasantness,conservative,no,z,1,0.893337058064,1,279
2019_Oct_16,205,001,1,recog,63,LAVISHED,LF,lure,-,-,-,liberal,no,m,1,1.14641784293,1,280
2019_Oct_16,205,001,1,recog,64,HAUNCHES,LF,lure,-,-,-,conservative,no,m,1,1.21305239479,3,283
2019_Oct_16,205,001,1,recog,65,MAYBE,HF,target,left,aqua,pleasantness,conservative,no,z,1,1.15994822038,1,284
2019_Oct_16,205,001,1,recog,66,EATERS,LF,target,right,yellow,imageability,conservative,no,z,1,1.06660595649,1,285
2019_Oct_16,205,001,1,recog,67,SOMEONE,HF,lure,-,-,-,liberal,no,m,1,0.86636905482,1,286
2019_Oct_16,205,001,1,recog,68,MESSED,LF,lure,-,-,-,conservative,no,m,1,1.31963211686,3,289
2019_Oct_16,205,001,1,recog,69,ABATED,LF,target,left,aqua,pleasantness,liberal,no,z,1,0.813402358165,3,292
2019_Oct_16,205,001,1,recog,70,SENSE,HF,lure,-,-,-,conservative,no,m,1,2.90604623505,3,295
2019_Oct_16,205,001,1,recog,71,RIVER,HF,target,right,yellow,imageability,liberal,no,z,1,0.813394659411,3,298
2019_Oct_16,205,001,1,recog,72,BLACK,HF,target,right,yellow,imageability,conservative,no,z,1,0.97306609124,1,299
2019_Oct_16,205,001,1,recog,73,MOLARS,LF,lure,-,-,-,liberal,no,m,1,0.93338157886,1,300
2019_Oct_16,205,001,1,recog,74,PAPER,HF,lure,-,-,-,conservative,no,m,1,1.79969234311,3,303
2019_Oct_16,205,001,1,recog,75,COVER,HF,lure,-,-,-,liberal,no,m,1,1.41315438495,1,304
2019_Oct_16,205,001,1,recog,76,TOGETHER,HF,lure,-,-,-,conservative,no,m,1,1.81298809186,3,307
2019_Oct_16,205,001,1,recog,77,UPHEAVALS,LF,target,left,aqua,pleasantness,liberal,no,z,1,1.57286724341,3,310
2019_Oct_16,205,001,1,recog,78,SEABED,LF,target,left,aqua,pleasantness,conservative,no,z,1,0.786784098333,1,311
2019_Oct_16,205,001,1,recog,79,INORGANIC,LF,lure,-,-,-,liberal,no,m,1,0.680139120157,1,312
2019_Oct_16,205,001,1,recog,80,ENMESHED,LF,lure,-,-,-,conservative,no,m,1,1.0796205174,3,315
2019_Oct_16,205,001,1,recog,81,AUBURN,LF,lure,-,-,-,conservative,no,m,1,1.69374721837,3,318
2019_Oct_16,205,001,1,recog,82,AGELESS,LF,target,right,yellow,imageability,conservative,no,z,1,1.71966855763,1,319
2019_Oct_16,205,001,1,recog,83,ORCHARDS,LF,lure,-,-,-,liberal,no,m,1,0.986709017148,1,320
2019_Oct_16,205,001,1,recog,84,ARMAMENT,LF,target,left,aqua,pleasantness,liberal,no,z,1,1.78621255747,3,323
2019_Oct_16,205,001,1,recog,85,ANEMONES,LF,lure,-,-,-,liberal,no,z,0,1.12000011731,-1,322
2019_Oct_16,205,001,1,recog,86,APPEARED,HF,lure,-,-,-,conservative,no,m,1,1.53308814634,3,325
2019_Oct_16,205,001,1,recog,87,OBESE,LF,lure,-,-,-,conservative,no,m,1,0.853690306242,3,328
2019_Oct_16,205,001,1,recog,88,VINEYARDS,LF,target,right,yellow,imageability,liberal,no,z,1,0.653456704039,3,331
2019_Oct_16,205,001,1,recog,89,DOING,HF,lure,-,-,-,conservative,no,m,1,0.800330606508,3,334
2019_Oct_16,205,001,1,recog,90,CALLED,HF,target,right,yellow,imageability,liberal,no,z,1,0.826738067114,3,337
2019_Oct_16,205,001,1,recog,91,AFTERNOON,HF,lure,-,-,-,liberal,no,m,1,1.10632749621,1,338
2019_Oct_16,205,001,1,recog,92,RUPTURE,LF,target,left,aqua,pleasantness,liberal,no,z,1,1.02533843357,3,341
2019_Oct_16,205,001,1,recog,93,ALTHOUGH,HF,target,left,aqua,pleasantness,conservative,no,z,1,0.746778437915,1,342
2019_Oct_16,205,001,1,recog,94,SHORT,HF,lure,-,-,-,liberal,yes,z,0,0.74654270939,-1,341
2019_Oct_16,205,001,1,recog,95,GUMMED,LF,target,right,yellow,imageability,liberal,no,z,1,0.840030149788,3,344
2019_Oct_16,205,001,2,source,0,ALCHEMIST,LF,target,left,aqua,pleasantness,conservative,no,1,1,2.53273913614,-,-
2019_Oct_16,205,001,2,source,1,LOCAL,HF,target,left,aqua,pleasantness,conservative,no,2,1,1.05329151077,-,-
2019_Oct_16,205,001,2,source,2,IRISES,LF,target,left,aqua,pleasantness,liberal,no,2,1,1.14659234802,-,-
2019_Oct_16,205,001,2,source,3,SEINE,LF,target,left,aqua,pleasantness,liberal,no,7,0,1.09339872142,-,-
2019_Oct_16,205,001,2,source,4,INFECT,LF,target,right,yellow,imageability,liberal,no,9,1,1.21301830031,-,-
2019_Oct_16,205,001,2,source,5,REJOICED,LF,target,right,yellow,imageability,liberal,no,9,1,0.893126258838,-,-
2019_Oct_16,205,001,2,source,6,HAVING,HF,target,right,yellow,imageability,liberal,no,8,1,2.53287038157,-,-
2019_Oct_16,205,001,2,source,7,WRONG,HF,target,right,yellow,imageability,liberal,no,3,0,1.14656081979,-,-
2019_Oct_16,205,001,2,source,8,POSITION,HF,target,right,yellow,imageability,liberal,no,8,1,1.23987595474,-,-
2019_Oct_16,205,001,2,source,9,DUPLICITY,LF,target,right,yellow,imageability,liberal,no,7,1,1.18662147131,-,-
2019_Oct_16,205,001,2,source,10,BOILERS,LF,target,left,aqua,pleasantness,liberal,no,7,0,1.19988825808,-,-
2019_Oct_16,205,001,2,source,11,HURDLES,LF,target,right,yellow,imageability,liberal,no,9,1,0.920021673826,-,-
2019_Oct_16,205,001,2,source,12,GARDEN,HF,target,left,aqua,pleasantness,liberal,no,1,1,0.774243560725,-,-
2019_Oct_16,205,001,2,source,13,WITHIN,HF,target,right,yellow,imageability,conservative,no,2,0,1.37291116297,-,-
2019_Oct_16,205,001,2,source,14,FRIEND,HF,target,left,aqua,pleasantness,conservative,no,8,0,0.866694602147,-,-
2019_Oct_16,205,001,2,source,15,PLACE,HF,target,right,yellow,imageability,conservative,no,7,1,1.17325533395,-,-
2019_Oct_16,205,001,2,source,16,SOFTENING,LF,target,right,yellow,imageability,conservative,no,9,1,0.986648160328,-,-
2019_Oct_16,205,001,2,source,17,SPRATS,LF,target,left,aqua,pleasantness,conservative,no,2,1,1.21334494745,-,-
2019_Oct_16,205,001,2,source,18,ENTIRELY,HF,target,right,yellow,imageability,liberal,no,3,0,1.33319988826,-,-
2019_Oct_16,205,001,2,source,19,NEEDED,HF,target,right,yellow,imageability,conservative,no,7,1,0.82670543906,-,-
2019_Oct_16,205,001,2,source,20,CAPITAL,HF,target,left,aqua,pleasantness,liberal,no,2,1,0.90672849133,-,-
2019_Oct_16,205,001,2,source,21,LAXATIVE,LF,target,left,aqua,pleasantness,conservative,no,8,0,0.786744504739,-,-
2019_Oct_16,205,001,2,source,22,PROBABLY,HF,target,left,aqua,pleasantness,liberal,yes,7,0,0.666892496794,-,-
2019_Oct_16,205,001,2,source,23,GROUND,HF,target,right,yellow,imageability,liberal,no,2,0,0.826698106913,-,-
2019_Oct_16,205,001,2,source,24,WEEKS,HF,target,right,yellow,imageability,conservative,no,9,1,0.799811857108,-,-
2019_Oct_16,205,001,2,source,25,IRATE,LF,target,left,aqua,pleasantness,conservative,yes,8,0,0.573523837177,-,-
2019_Oct_16,205,001,2,source,26,TOXICITY,LF,target,right,yellow,imageability,conservative,no,9,1,0.653450471713,-,-
2019_Oct_16,205,001,2,source,27,RESEARCH,HF,target,right,yellow,imageability,conservative,no,9,1,0.799841185696,-,-
2019_Oct_16,205,001,2,source,28,NUMBER,HF,target,left,aqua,pleasantness,liberal,no,3,1,1.31960902059,-,-
2019_Oct_16,205,001,2,source,29,TRADE,HF,target,left,aqua,pleasantness,conservative,no,8,0,1.85301831497,-,-
2019_Oct_16,205,001,2,source,30,OUTSIDE,HF,target,left,aqua,pleasantness,conservative,no,2,1,0.986672356413,-,-
2019_Oct_16,205,001,2,source,31,EMULATION,LF,target,right,yellow,imageability,conservative,no,8,1,1.26629441356,-,-
2019_Oct_16,205,001,2,source,32,ABHORRENT,LF,target,left,aqua,pleasantness,liberal,no,7,0,1.13326727069,-,-
2019_Oct_16,205,001,2,source,33,RATHER,HF,target,left,aqua,pleasantness,conservative,no,8,0,1.35987020633,-,-
2019_Oct_16,205,001,2,source,34,ALREADY,HF,target,left,aqua,pleasantness,conservative,yes,8,0,0.440223938434,-,-
2019_Oct_16,205,001,2,source,35,CHOICE,HF,target,right,yellow,imageability,liberal,no,7,1,0.906431905984,-,-
2019_Oct_16,205,001,2,source,36,ACROSS,HF,target,left,aqua,pleasantness,liberal,no,2,1,1.06645014837,-,-
2019_Oct_16,205,001,2,source,37,NETTLE,LF,target,right,yellow,imageability,conservative,yes,2,0,0.480263326727,-,-
2019_Oct_16,205,001,2,source,38,SAFARI,LF,target,right,yellow,imageability,liberal,no,9,1,0.853379056602,-,-
2019_Oct_16,205,001,2,source,39,AMICABLY,LF,target,left,aqua,pleasantness,conservative,no,2,1,1.30651087321,-,-
2019_Oct_16,205,001,2,source,40,ZEBRA,LF,target,right,yellow,imageability,conservative,no,9,1,0.71991711741,-,-
2019_Oct_16,205,001,2,source,41,BUDDIES,LF,target,right,yellow,imageability,liberal,no,9,1,0.613507134546,-,-
2019_Oct_16,205,001,2,source,42,CELLO,LF,target,right,yellow,imageability,conservative,no,9,1,0.600196354896,-,-
2019_Oct_16,205,001,2,source,43,ATHEIST,LF,target,left,aqua,pleasantness,liberal,no,2,1,1.34651103451,-,-
2019_Oct_16,205,001,2,source,44,CACOPHONY,LF,target,left,aqua,pleasantness,liberal,no,2,1,1.74607491841,-,-
2019_Oct_16,205,001,2,source,45,TAMING,LF,target,left,aqua,pleasantness,conservative,no,1,1,2.15957391427,-,-
2019_Oct_16,205,001,2,source,46,UNTIL,HF,target,left,aqua,pleasantness,liberal,no,2,1,1.19989595683,-,-
2019_Oct_16,205,001,2,source,47,MEANS,HF,target,right,yellow,imageability,conservative,no,9,1,0.773398164177,-,-
2019_Oct_16,205,001,2,recog,0,ALCHEMIST,LF,target,left,aqua,pleasantness,conservative,no,z,1,1.17475732427,1,345
2019_Oct_16,205,001,2,recog,1,WIRING,LF,lure,-,-,-,conservative,yes,z,0,0.706813837521,-3,342
2019_Oct_16,205,001,2,recog,2,MEANS,HF,target,right,yellow,imageability,conservative,no,z,1,2.09238065281,1,343
2019_Oct_16,205,001,2,recog,3,RATHER,HF,target,left,aqua,pleasantness,conservative,no,z,1,0.786741571881,1,344
2019_Oct_16,205,001,2,recog,4,OTHERS,HF,lure,-,-,-,liberal,no,m,1,1.02637593237,1,345
2019_Oct_16,205,001,2,recog,5,BUGGED,LF,lure,-,-,-,conservative,no,m,1,1.09333933103,3,348
2019_Oct_16,205,001,2,recog,6,OPULENCE,LF,lure,-,-,-,liberal,no,m,1,1.2532171628,1,349
2019_Oct_16,205,001,2,recog,7,HYACINTHS,LF,lure,-,-,-,conservative,no,m,1,0.920329624,3,352
2019_Oct_16,205,001,2,recog,8,ATHEIST,LF,target,left,aqua,pleasantness,liberal,no,z,1,0.933339419015,3,355
2019_Oct_16,205,001,2,recog,9,IRISES,LF,target,left,aqua,pleasantness,liberal,no,z,1,0.680228938957,3,358
2019_Oct_16,205,001,2,recog,10,BREAK,HF,lure,-,-,-,conservative,no,m,1,0.786490812453,3,361
2019_Oct_16,205,001,2,recog,11,ENTIRELY,HF,target,right,yellow,imageability,liberal,no,z,1,1.35979835129,3,364
2019_Oct_16,205,001,2,recog,12,SECOND,HF,lure,-,-,-,liberal,no,m,1,0.840026850322,1,365
2019_Oct_16,205,001,2,recog,13,TOILED,LF,lure,-,-,-,liberal,no,m,1,0.760088117743,1,366
2019_Oct_16,205,001,2,recog,14,SPRATS,LF,target,left,aqua,pleasantness,conservative,no,z,1,1.00011401489,1,367
2019_Oct_16,205,001,2,recog,15,MOPED,LF,lure,-,-,-,conservative,no,m,1,1.05332560525,3,370
2019_Oct_16,205,001,2,recog,16,IRATE,LF,target,left,aqua,pleasantness,conservative,no,z,1,1.13324674068,1,371
2019_Oct_16,205,001,2,recog,17,SEINE,LF,target,left,aqua,pleasantness,liberal,no,z,1,0.800090112087,3,374
2019_Oct_16,205,001,2,recog,18,SYRINGE,LF,lure,-,-,-,conservative,no,m,1,0.946458096414,3,377
2019_Oct_16,205,001,2,recog,19,LOCAL,HF,target,left,aqua,pleasantness,conservative,no,z,1,0.599894637048,1,378
2019_Oct_16,205,001,2,recog,20,EFFECT,HF,lure,-,-,-,conservative,no,m,1,0.706794773939,3,381
2019_Oct_16,205,001,2,recog,21,MEETING,HF,lure,-,-,-,liberal,no,m,1,0.933351517058,1,382
2019_Oct_16,205,001,2,recog,22,HAVING,HF,target,right,yellow,imageability,liberal,no,z,1,0.640191017093,3,385
2019_Oct_16,205,001,2,recog,23,ACROSS,HF,target,left,aqua,pleasantness,liberal,no,z,1,0.640144824567,3,388
2019_Oct_16,205,001,2,recog,24,NEEDED,HF,target,right,yellow,imageability,conservative,no,z,1,1.70652678397,1,389
2019_Oct_16,205,001,2,recog,25,CELLO,LF,target,right,yellow,imageability,conservative,no,z,1,0.520201531392,1,390
2019_Oct_16,205,001,2,recog,26,GARDEN,HF,target,left,aqua,pleasantness,liberal,no,z,1,0.493510683305,3,393
2019_Oct_16,205,001,2,recog,27,AQUARIUM,LF,lure,-,-,-,conservative,no,m,1,0.706860763262,3,396
2019_Oct_16,205,001,2,recog,28,SMOCK,LF,lure,-,-,-,conservative,no,m,1,0.600194155252,3,399
2019_Oct_16,205,001,2,recog,29,DUPLICITY,LF,target,right,yellow,imageability,liberal,no,z,1,0.813485578034,3,402
2019_Oct_16,205,001,2,recog,30,POSITION,HF,target,right,yellow,imageability,liberal,no,z,1,0.760066121301,3,405
2019_Oct_16,205,001,2,recog,31,PUFFS,LF,lure,-,-,-,liberal,no,m,1,0.653205578004,1,406
2019_Oct_16,205,001,2,recog,32,CERTAIN,HF,lure,-,-,-,conservative,no,m,1,0.733531081338,3,409
2019_Oct_16,205,001,2,recog,33,NETTLE,LF,target,right,yellow,imageability,conservative,no,m,0,0.66677408262,-1,408
2019_Oct_16,205,001,2,recog,34,OUTSIDE,HF,target,left,aqua,pleasantness,conservative,no,z,1,1.50621912708,1,409
2019_Oct_16,205,001,2,recog,35,NUMBER,HF,target,left,aqua,pleasantness,liberal,no,z,1,1.23967615373,3,412
2019_Oct_16,205,001,2,recog,36,THOUSAND,HF,lure,-,-,-,liberal,no,m,1,0.786726540979,1,413
2019_Oct_16,205,001,2,recog,37,AMPLIFY,LF,lure,-,-,-,liberal,no,z,0,1.70635631155,-1,412
2019_Oct_16,205,001,2,recog,38,TELEPHONE,HF,lure,-,-,-,conservative,no,m,1,3.45211778068,3,415
2019_Oct_16,205,001,2,recog,39,NECESSARY,HF,lure,-,-,-,conservative,no,m,1,0.906451702781,3,418
2019_Oct_16,205,001,2,recog,40,BOOKS,HF,lure,-,-,-,liberal,yes,z,0,0.720144780575,-1,417
2019_Oct_16,205,001,2,recog,41,EMULATION,LF,target,right,yellow,imageability,conservative,no,z,1,0.853367691774,1,418
2019_Oct_16,205,001,2,recog,42,WITHIN,HF,target,right,yellow,imageability,conservative,no,z,1,0.680155617488,1,419
2019_Oct_16,205,001,2,recog,43,ALREADY,HF,target,left,aqua,pleasantness,conservative,no,z,1,0.760057322725,1,420
2019_Oct_16,205,001,2,recog,44,TERMS,HF,lure,-,-,-,conservative,no,m,1,0.733447128255,3,423
2019_Oct_16,205,001,2,recog,45,BROUGHT,HF,lure,-,-,-,conservative,yes,m,1,0.613446644333,3,426
2019_Oct_16,205,001,2,recog,46,WRONG,HF,target,right,yellow,imageability,liberal,no,z,1,2.23950824757,3,429
2019_Oct_16,205,001,2,recog,47,BOILERS,LF,target,left,aqua,pleasantness,liberal,no,z,1,0.773405862931,3,432
2019_Oct_16,205,001,2,recog,48,DUGOUTS,LF,lure,-,-,-,liberal,no,m,1,1.29336396704,1,433
2019_Oct_16,205,001,2,recog,49,GEOLOGIST,LF,lure,-,-,-,liberal,no,m,1,0.666571715363,1,434
2019_Oct_16,205,001,2,recog,50,BUCKED,LF,lure,-,-,-,conservative,no,m,1,2.06629653989,3,437
2019_Oct_16,205,001,2,recog,51,DIMMED,LF,lure,-,-,-,liberal,no,m,1,0.706745648554,1,438
2019_Oct_16,205,001,2,recog,52,TAMING,LF,target,left,aqua,pleasantness,conservative,no,z,1,0.813472746776,1,439
2019_Oct_16,205,001,2,recog,53,YARDSTICK,LF,lure,-,-,-,liberal,no,m,1,0.879875969401,1,440
2019_Oct_16,205,001,2,recog,54,LAXATIVE,LF,target,left,aqua,pleasantness,conservative,no,z,1,1.91961510628,1,441
2019_Oct_16,205,001,2,recog,55,WEEKS,HF,target,right,yellow,imageability,conservative,no,z,1,1.53310281063,1,442
2019_Oct_16,205,001,2,recog,56,LIMELIGHT,LF,lure,-,-,-,conservative,no,m,1,0.84002721693,3,445
2019_Oct_16,205,001,2,recog,57,CRONE,LF,lure,-,-,-,liberal,no,m,1,0.8400506798,1,446
2019_Oct_16,205,001,2,recog,58,CAPITAL,HF,target,left,aqua,pleasantness,liberal,no,z,1,0.73320296776,3,449
2019_Oct_16,205,001,2,recog,59,SLIGHTLY,HF,lure,-,-,-,conservative,no,m,1,1.73327408959,3,452
2019_Oct_16,205,001,2,recog,60,TOXICITY,LF,target,right,yellow,imageability,conservative,no,z,1,0.946687226007,1,453
2019_Oct_16,205,001,2,recog,61,BATCHES,LF,lure,-,-,-,conservative,no,m,1,0.82673586747,3,456
2019_Oct_16,205,001,2,recog,62,MOMENT,HF,lure,-,-,-,conservative,no,m,1,1.47986189168,3,459
2019_Oct_16,205,001,2,recog,63,PAMPERED,LF,lure,-,-,-,liberal,no,m,1,0.719866158989,1,460
2019_Oct_16,205,001,2,recog,64,GROUND,HF,target,right,yellow,imageability,liberal,no,z,1,0.653489332093,3,463
2019_Oct_16,205,001,2,recog,65,CHOICE,HF,target,right,yellow,imageability,liberal,no,z,1,0.813429120501,3,466
2019_Oct_16,205,001,2,recog,66,PLACE,HF,target,right,yellow,imageability,conservative,no,z,1,0.693486193934,1,467
2019_Oct_16,205,001,2,recog,67,FRIEND,HF,target,left,aqua,pleasantness,conservative,no,z,1,0.653574018391,1,468
2019_Oct_16,205,001,2,recog,68,DAUGHTER,HF,lure,-,-,-,liberal,no,m,1,0.68014571909,1,469
2019_Oct_16,205,001,2,recog,69,SOFTENING,LF,target,right,yellow,imageability,conservative,no,z,1,0.693465663922,1,470
2019_Oct_16,205,001,2,recog,70,KNOWLEDGE,HF,lure,-,-,-,conservative,no,m,1,1.11968483499,3,473
2019_Oct_16,205,001,2,recog,71,PROBABLY,HF,target,left,aqua,pleasantness,liberal,no,z,1,1.19994728186,3,476
2019_Oct_16,205,001,2,recog,72,INFECT,LF,target,right,yellow,imageability,liberal,no,z,1,1.02644412134,3,479
2019_Oct_16,205,001,2,recog,73,RESEARCH,HF,target,right,yellow,imageability,conservative,no,z,1,0.759847989929,1,480
2019_Oct_16,205,001,2,recog,74,QUICKLY,HF,lure,-,-,-,liberal,no,m,1,0.640172320118,1,481
2019_Oct_16,205,001,2,recog,75,SIFTED,LF,lure,-,-,-,liberal,no,m,1,0.973422066976,1,482
2019_Oct_16,205,001,2,recog,76,REJOICED,LF,target,right,yellow,imageability,liberal,no,z,1,1.10658742082,3,485
2019_Oct_16,205,001,2,recog,77,MOTHER,HF,lure,-,-,-,liberal,no,m,1,0.653462203149,1,486
2019_Oct_16,205,001,2,recog,78,ALLOWED,HF,lure,-,-,-,liberal,no,m,1,0.706955347958,1,487
2019_Oct_16,205,001,2,recog,79,APART,HF,lure,-,-,-,liberal,no,m,1,0.63988856603,1,488
2019_Oct_16,205,001,2,recog,80,HURDLES,LF,target,right,yellow,imageability,liberal,no,z,1,0.946665229565,3,491
2019_Oct_16,205,001,2,recog,81,UNLESS,HF,lure,-,-,-,liberal,no,m,1,1.38652329386,1,492
2019_Oct_16,205,001,2,recog,82,SAFARI,LF,target,right,yellow,imageability,liberal,no,z,1,0.946498789829,3,495
2019_Oct_16,205,001,2,recog,83,TRADE,HF,target,left,aqua,pleasantness,conservative,no,z,1,0.813402724772,1,496
2019_Oct_16,205,001,2,recog,84,DEXTERITY,LF,lure,-,-,-,conservative,no,m,1,0.746776604879,3,499
2019_Oct_16,205,001,2,recog,85,BUDDIES,LF,target,right,yellow,imageability,liberal,no,z,1,0.79896096145,3,502
2019_Oct_16,205,001,2,recog,86,ZEBRA,LF,target,right,yellow,imageability,conservative,no,z,1,0.693224802894,1,503
2019_Oct_16,205,001,2,recog,87,CACOPHONY,LF,target,left,aqua,pleasantness,liberal,no,z,1,0.973293021189,3,506
2019_Oct_16,205,001,2,recog,88,ENAMELLED,LF,lure,-,-,-,conservative,no,m,1,0.906682665411,3,509
2019_Oct_16,205,001,2,recog,89,VARIOUS,HF,lure,-,-,-,liberal,no,m,1,0.799805624783,1,510
2019_Oct_16,205,001,2,recog,90,ZOOLOGY,LF,lure,-,-,-,liberal,no,m,1,0.653609945911,1,511
2019_Oct_16,205,001,2,recog,91,POWER,HF,lure,-,-,-,conservative,no,m,1,0.66679204638,3,514
2019_Oct_16,205,001,2,recog,92,ABHORRENT,LF,target,left,aqua,pleasantness,liberal,no,z,1,1.34626687402,3,517
2019_Oct_16,205,001,2,recog,93,POUNDS,HF,lure,-,-,-,conservative,no,m,1,0.720284457975,3,520
2019_Oct_16,205,001,2,recog,94,UNTIL,HF,target,left,aqua,pleasantness,liberal,no,z,1,0.826756030874,3,523
2019_Oct_16,205,001,2,recog,95,AMICABLY,LF,target,left,aqua,pleasantness,conservative,yes,z,1,0.813280644525,1,524
2019_Oct_16,205,001,3,source,0,EXPECT,HF,target,right,yellow,imageability,liberal,no,7,1,2.31924131342,-,-
2019_Oct_16,205,001,3,source,1,REACHED,HF,target,left,aqua,pleasantness,conservative,no,7,0,1.13383001297,-,-
2019_Oct_16,205,001,3,source,2,DOTTY,LF,target,left,aqua,pleasantness,liberal,no,2,1,0.906637939315,-,-
2019_Oct_16,205,001,3,source,3,FATHER,HF,target,left,aqua,pleasantness,conservative,no,1,1,1.81316186374,-,-
2019_Oct_16,205,001,3,source,4,USUAL,HF,target,right,yellow,imageability,conservative,no,3,0,1.03998219755,-,-
2019_Oct_16,205,001,3,source,5,LANGUAGE,HF,target,right,yellow,imageability,conservative,no,2,0,0.920119924596,-,-
2019_Oct_16,205,001,3,source,6,SEVEN,HF,target,left,aqua,pleasantness,conservative,no,1,1,0.813127036045,-,-
2019_Oct_16,205,001,3,source,7,AIRBED,LF,target,right,yellow,imageability,conservative,no,9,1,1.29318689569,-,-
2019_Oct_16,205,001,3,source,8,HAWKED,LF,target,right,yellow,imageability,liberal,no,7,1,1.01318503333,-,-
2019_Oct_16,205,001,3,source,9,INMATE,LF,target,right,yellow,imageability,conservative,no,7,1,0.999780768805,-,-
2019_Oct_16,205,001,3,source,10,STOOD,HF,target,left,aqua,pleasantness,liberal,no,2,1,0.813431686753,-,-
2019_Oct_16,205,001,3,source,11,ALONE,HF,target,right,yellow,imageability,liberal,no,7,1,1.03981722424,-,-
2019_Oct_16,205,001,3,source,12,THANK,HF,target,left,aqua,pleasantness,liberal,no,1,1,2.43948632445,-,-
2019_Oct_16,205,001,3,source,13,SICKENED,LF,target,right,yellow,imageability,liberal,no,3,0,1.09327920742,-,-
2019_Oct_16,205,001,3,source,14,HYSTERICS,LF,target,left,aqua,pleasantness,conservative,no,2,1,0.813423987999,-,-
2019_Oct_16,205,001,3,source,15,ENOUGH,HF,target,right,yellow,imageability,conservative,no,7,1,1.06639735691,-,-
2019_Oct_16,205,001,3,source,16,ALABASTER,LF,target,right,yellow,imageability,liberal,no,8,1,1.1596651995,-,-
2019_Oct_16,205,001,3,source,17,PIECE,HF,target,left,aqua,pleasantness,liberal,yes,7,0,0.679864164645,-,-
2019_Oct_16,205,001,3,source,18,WEIRDLY,LF,target,right,yellow,imageability,conservative,no,8,1,0.786806827989,-,-
2019_Oct_16,205,001,3,source,19,CONCERNED,HF,target,right,yellow,imageability,liberal,no,8,1,0.73345336058,-,-
2019_Oct_16,205,001,3,source,20,BEAUTIFUL,HF,target,right,yellow,imageability,liberal,no,9,1,1.10667174051,-,-
2019_Oct_16,205,001,3,source,21,BOTANIST,LF,target,left,aqua,pleasantness,liberal,no,1,1,1.05331644007,-,-
2019_Oct_16,205,001,3,source,22,RUGGER,LF,target,right,yellow,imageability,conservative,no,3,0,1.06641348763,-,-
2019_Oct_16,205,001,3,source,23,LIKELY,HF,target,left,aqua,pleasantness,liberal,no,3,1,1.02660506197,-,-
2019_Oct_16,205,001,3,source,24,VEILING,LF,target,left,aqua,pleasantness,conservative,no,3,1,1.39981427672,-,-
2019_Oct_16,205,001,3,source,25,SANDAL,LF,target,left,aqua,pleasantness,conservative,no,1,1,1.4395589127,-,-
2019_Oct_16,205,001,3,source,26,UPSTART,LF,target,left,aqua,pleasantness,conservative,no,1,1,0.786788497621,-,-
2019_Oct_16,205,001,3,source,27,QUALITY,HF,target,left,aqua,pleasantness,conservative,yes,2,1,0.840029783181,-,-
2019_Oct_16,205,001,3,source,28,OPPOSES,LF,target,left,aqua,pleasantness,liberal,no,1,1,1.51958746408,-,-
2019_Oct_16,205,001,3,source,29,GUILDHALL,LF,target,left,aqua,pleasantness,liberal,no,8,0,1.79951857123,-,-
2019_Oct_16,205,001,3,source,30,ANVIL,LF,target,right,yellow,imageability,liberal,no,9,1,0.933346751162,-,-
2019_Oct_16,205,001,3,source,31,NAIVELY,LF,target,left,aqua,pleasantness,liberal,no,7,0,1.17321464054,-,-
2019_Oct_16,205,001,3,source,32,FOLLOWED,HF,target,left,aqua,pleasantness,conservative,no,7,0,0.747039462348,-,-
2019_Oct_16,205,001,3,source,33,GASEOUS,LF,target,left,aqua,pleasantness,conservative,no,1,1,0.879775518988,-,-
2019_Oct_16,205,001,3,source,34,THING,HF,target,right,yellow,imageability,liberal,no,9,1,2.52033460986,-,-
2019_Oct_16,205,001,3,source,35,SUDDENLY,HF,target,left,aqua,pleasantness,conservative,yes,7,0,1.06640065637,-,-
2019_Oct_16,205,001,3,source,36,PREPARED,HF,target,left,aqua,pleasantness,liberal,no,3,1,1.05330470863,-,-
2019_Oct_16,205,001,3,source,37,EASILY,HF,target,right,yellow,imageability,conservative,no,2,0,3.5853868844,-,-
2019_Oct_16,205,001,3,source,38,ROSEBUD,LF,target,right,yellow,imageability,liberal,no,9,1,1.02668314933,-,-
2019_Oct_16,205,001,3,source,39,KIPPERS,LF,target,left,aqua,pleasantness,conservative,no,9,0,0.760357207537,-,-
2019_Oct_16,205,001,3,source,40,ATTACK,HF,target,right,yellow,imageability,conservative,no,1,0,3.1457381529,-,-
2019_Oct_16,205,001,3,source,41,GIRLS,HF,target,right,yellow,imageability,liberal,no,9,1,1.69303233404,-,-
2019_Oct_16,205,001,3,source,42,NERVY,LF,target,right,yellow,imageability,conservative,no,2,0,1.54620645713,-,-
2019_Oct_16,205,001,3,source,43,ANCHORAGE,LF,target,left,aqua,pleasantness,liberal,yes,2,1,0.533536507126,-,-
2019_Oct_16,205,001,3,source,44,BEREAVED,LF,target,right,yellow,imageability,conservative,no,9,1,1.54641102403,-,-
2019_Oct_16,205,001,3,source,45,LARGE,HF,target,right,yellow,imageability,conservative,no,9,1,0.826582258991,-,-
2019_Oct_16,205,001,3,source,46,GOUGED,LF,target,right,yellow,imageability,liberal,no,7,1,1.13326837051,-,-
2019_Oct_16,205,001,3,source,47,CASES,HF,target,left,aqua,pleasantness,liberal,no,2,1,1.67974318422,-,-
2019_Oct_16,205,001,3,recog,0,STOOD,HF,target,left,aqua,pleasantness,liberal,no,z,1,1.06656269682,3,527
2019_Oct_16,205,001,3,recog,1,BAUXITE,LF,lure,-,-,-,conservative,no,m,1,0.800179930887,3,530
2019_Oct_16,205,001,3,recog,2,RUGGER,LF,target,right,yellow,imageability,conservative,no,z,1,0.880213248163,1,531
2019_Oct_16,205,001,3,recog,3,TAGGED,LF,lure,-,-,-,liberal,no,z,0,1.54640735796,-1,530
2019_Oct_16,205,001,3,recog,4,NAIVELY,LF,target,left,aqua,pleasantness,liberal,no,z,1,1.18632195311,3,533
2019_Oct_16,205,001,3,recog,5,ITSELF,HF,lure,-,-,-,liberal,no,m,1,0.786758802426,1,534
2019_Oct_16,205,001,3,recog,6,AIRBED,LF,target,right,yellow,imageability,conservative,no,z,1,0.813412256563,1,535
2019_Oct_16,205,001,3,recog,7,OPPOSES,LF,target,left,aqua,pleasantness,liberal,no,z,1,0.799999193464,3,538
2019_Oct_16,205,001,3,recog,8,USUAL,HF,target,right,yellow,imageability,conservative,no,z,1,0.560208291632,1,539
2019_Oct_16,205,001,3,recog,9,HYSTERICS,LF,target,left,aqua,pleasantness,conservative,no,z,1,0.613484038282,1,540
2019_Oct_16,205,001,3,recog,10,CANNOT,HF,lure,-,-,-,conservative,no,m,1,0.666837872299,3,543
2019_Oct_16,205,001,3,recog,11,VOICE,HF,lure,-,-,-,conservative,no,m,1,1.49310924826,3,546
2019_Oct_16,205,001,3,recog,12,HELICAL,LF,lure,-,-,-,liberal,no,m,1,1.05342128977,1,547
2019_Oct_16,205,001,3,recog,13,LAWFUL,LF,lure,-,-,-,liberal,no,m,1,0.746512280979,1,548
2019_Oct_16,205,001,3,recog,14,INMATE,LF,target,right,yellow,imageability,conservative,no,z,1,0.973414001614,1,549
2019_Oct_16,205,001,3,recog,15,SPACE,HF,lure,-,-,-,conservative,no,m,1,0.81338366119,3,552
2019_Oct_16,205,001,3,recog,16,ATTACK,HF,target,right,yellow,imageability,conservative,no,z,1,0.906714193643,1,553
2019_Oct_16,205,001,3,recog,17,MODERN,HF,lure,-,-,-,liberal,no,m,1,0.680149385163,1,554
2019_Oct_16,205,001,3,recog,18,LONGER,HF,lure,-,-,-,conservative,no,m,1,0.946655331168,3,557
2019_Oct_16,205,001,3,recog,19,DOTTY,LF,target,left,aqua,pleasantness,liberal,no,z,1,0.733394703404,3,560
2019_Oct_16,205,001,3,recog,20,PRACTICE,HF,lure,-,-,-,liberal,no,m,1,0.746836728484,1,561
2019_Oct_16,205,001,3,recog,21,PIECE,HF,target,left,aqua,pleasantness,liberal,no,z,1,0.666523323193,3,564
2019_Oct_16,205,001,3,recog,22,YACHTING,LF,lure,-,-,-,conservative,no,m,1,1.23992251387,3,567
2019_Oct_16,205,001,3,recog,23,PREPARED,HF,target,left,aqua,pleasantness,liberal,no,z,1,0.586579091503,3,570
2019_Oct_16,205,001,3,recog,24,JACKALS,LF,lure,-,-,-,conservative,no,m,1,0.9475498531,3,573
2019_Oct_16,205,001,3,recog,25,LARGE,HF,target,right,yellow,imageability,conservative,no,z,1,0.893125159016,1,574
2019_Oct_16,205,001,3,recog,26,MINISTER,HF,lure,-,-,-,conservative,no,m,1,0.893399381313,3,577
2019_Oct_16,205,001,3,recog,27,RUSSET,LF,lure,-,-,-,liberal,no,m,1,0.840226651328,1,578
2019_Oct_16,205,001,3,recog,28,HUNDRED,HF,lure,-,-,-,liberal,no,m,1,0.866678838031,1,579
2019_Oct_16,205,001,3,recog,29,VEILING,LF,target,left,aqua,pleasantness,conservative,no,z,1,0.693433035869,1,580
2019_Oct_16,205,001,3,recog,30,REACHED,HF,target,left,aqua,pleasantness,conservative,no,z,1,0.653237839451,1,581
2019_Oct_16,205,001,3,recog,31,SODDING,LF,lure,-,-,-,liberal,no,m,1,0.706830701459,1,582
2019_Oct_16,205,001,3,recog,32,THING,HF,target,right,yellow,imageability,liberal,no,z,1,0.533529908194,3,585
2019_Oct_16,205,001,3,recog,33,SANDAL,LF,target,left,aqua,pleasantness,conservative,no,z,1,0.586829484323,1,586
2019_Oct_16,205,001,3,recog,34,THANK,HF,target,left,aqua,pleasantness,liberal,no,z,1,0.613462775056,3,589
2019_Oct_16,205,001,3,recog,35,KIPPERS,LF,target,left,aqua,pleasantness,conservative,no,z,1,0.600272242618,1,590
2019_Oct_16,205,001,3,recog,36,HAWKED,LF,target,right,yellow,imageability,liberal,no,z,1,0.666939789142,3,593
2019_Oct_16,205,001,3,recog,37,COUNCIL,HF,lure,-,-,-,liberal,no,m,1,0.733450794328,1,594
2019_Oct_16,205,001,3,recog,38,BEAUTIFUL,HF,target,right,yellow,imageability,liberal,no,z,1,0.640074435956,3,597
2019_Oct_16,205,001,3,recog,39,EXPECT,HF,target,right,yellow,imageability,liberal,no,z,1,0.973372208377,3,600
2019_Oct_16,205,001,3,recog,40,BELIEVE,HF,lure,-,-,-,liberal,no,m,1,0.799819189255,1,601
2019_Oct_16,205,001,3,recog,41,GUILDHALL,LF,target,left,aqua,pleasantness,liberal,no,z,1,0.653526359435,3,604
2019_Oct_16,205,001,3,recog,42,SUCCESS,HF,lure,-,-,-,conservative,no,m,1,1.83966684191,3,607
2019_Oct_16,205,001,3,recog,43,OVARIES,LF,lure,-,-,-,liberal,no,m,1,0.546811725863,1,608
2019_Oct_16,205,001,3,recog,44,GASEOUS,LF,target,left,aqua,pleasantness,conservative,no,z,1,0.680220140382,1,609
2019_Oct_16,205,001,3,recog,45,ALONE,HF,target,right,yellow,imageability,liberal,no,z,1,2.23929891477,3,612
2019_Oct_16,205,001,3,recog,46,SIESTA,LF,lure,-,-,-,liberal,no,m,1,0.826480342148,1,613
2019_Oct_16,205,001,3,recog,47,GOUGED,LF,target,right,yellow,imageability,liberal,no,z,1,0.60016959256,3,616
2019_Oct_16,205,001,3,recog,48,OEDIPAL,LF,lure,-,-,-,conservative,no,m,1,0.586565160424,3,619
2019_Oct_16,205,001,3,recog,49,UPSTART,LF,target,left,aqua,pleasantness,conservative,no,z,1,0.560177130007,1,620
2019_Oct_16,205,001,3,recog,50,IMPORTANT,HF,lure,-,-,-,conservative,no,m,1,0.666767483688,3,623
2019_Oct_16,205,001,3,recog,51,AROUND,HF,lure,-,-,-,liberal,no,m,1,0.760091050601,1,624
2019_Oct_16,205,001,3,recog,52,AUDACIOUS,LF,lure,-,-,-,liberal,no,m,1,0.786747804205,1,625
2019_Oct_16,205,001,3,recog,53,LIKELY,HF,target,left,aqua,pleasantness,liberal,no,m,0,0.78671957544,-3,622
2019_Oct_16,205,001,3,recog,54,INCLUDING,HF,lure,-,-,-,conservative,no,m,1,1.39982710797,3,625
2019_Oct_16,205,001,3,recog,55,BEREAVED,LF,target,right,yellow,imageability,conservative,no,z,1,0.786703811323,1,626
2019_Oct_16,205,001,3,recog,56,TREES,HF,lure,-,-,-,conservative,no,m,1,0.760075286486,3,629
2019_Oct_16,205,001,3,recog,57,GYPSIES,LF,lure,-,-,-,conservative,no,m,1,0.879752789332,3,632
2019_Oct_16,205,001,3,recog,58,PERHAPS,HF,lure,-,-,-,conservative,no,m,1,1.49310008307,3,635
2019_Oct_16,205,001,3,recog,59,AMONG,HF,lure,-,-,-,liberal,no,m,1,1.70636840959,1,636
2019_Oct_16,205,001,3,recog,60,BETTER,HF,lure,-,-,-,conservative,no,m,1,0.906438871524,3,639
2019_Oct_16,205,001,3,recog,61,THRASH,LF,lure,-,-,-,conservative,no,m,1,0.653435074205,3,642
2019_Oct_16,205,001,3,recog,62,INLAID,LF,lure,-,-,-,liberal,no,m,1,1.49293217691,1,643
2019_Oct_16,205,001,3,recog,63,LANGUAGE,HF,target,right,yellow,imageability,conservative,no,m,0,1.47956420651,-1,642
2019_Oct_16,205,001,3,recog,64,ANCHORAGE,LF,target,left,aqua,pleasantness,liberal,no,z,1,1.02675463777,3,645
2019_Oct_16,205,001,3,recog,65,GIRLS,HF,target,right,yellow,imageability,liberal,no,z,1,0.586838649506,3,648
2019_Oct_16,205,001,3,recog,66,ENOUGH,HF,target,right,yellow,imageability,conservative,no,z,1,0.666799745135,1,649
2019_Oct_16,205,001,3,recog,67,LEVEL,HF,lure,-,-,-,conservative,no,m,1,0.70682226949,3,652
2019_Oct_16,205,001,3,recog,68,WONDROUS,LF,lure,-,-,-,conservative,no,m,1,0.71993104849,3,655
2019_Oct_16,205,001,3,recog,69,EVENING,HF,lure,-,-,-,liberal,no,m,1,0.720172276126,1,656
2019_Oct_16,205,001,3,recog,70,SITTING,HF,lure,-,-,-,liberal,no,m,1,0.586862112377,1,657
2019_Oct_16,205,001,3,recog,71,THWART,LF,lure,-,-,-,conservative,yes,m,1,0.74676670648,3,660
2019_Oct_16,205,001,3,recog,72,SICKENED,LF,target,right,yellow,imageability,liberal,no,z,1,1.77277493168,3,663
2019_Oct_16,205,001,3,recog,73,FLUFF,LF,lure,-,-,-,liberal,no,m,1,0.653424809199,1,664
2019_Oct_16,205,001,3,recog,74,ROPED,LF,lure,-,-,-,conservative,no,m,1,1.00000659893,3,667
2019_Oct_16,205,001,3,recog,75,BOTANIST,LF,target,left,aqua,pleasantness,liberal,yes,z,1,0.680108691747,3,670
2019_Oct_16,205,001,3,recog,76,FOLLOWED,HF,target,left,aqua,pleasantness,conservative,no,z,1,1.05328087915,1,671
2019_Oct_16,205,001,3,recog,77,FAMILY,HF,lure,-,-,-,liberal,no,m,1,0.746760840763,1,672
2019_Oct_16,205,001,3,recog,78,QUALITY,HF,target,left,aqua,pleasantness,conservative,yes,m,0,0.69347702875,-1,671
2019_Oct_16,205,001,3,recog,79,CASES,HF,target,left,aqua,pleasantness,liberal,no,z,1,0.653326925037,3,674
2019_Oct_16,205,001,3,recog,80,SEVEN,HF,target,left,aqua,pleasantness,conservative,no,z,1,0.906437405094,1,675
2019_Oct_16,205,001,3,recog,81,ALABASTER,LF,target,right,yellow,imageability,liberal,no,z,1,0.853436980563,3,678
2019_Oct_16,205,001,3,recog,82,WEIRDLY,LF,target,right,yellow,imageability,conservative,no,z,1,0.906732524011,1,679
2019_Oct_16,205,001,3,recog,83,NERVY,LF,target,right,yellow,imageability,conservative,no,z,1,0.546891646265,1,680
2019_Oct_16,205,001,3,recog,84,ANVIL,LF,target,right,yellow,imageability,liberal,no,z,1,0.613539395992,3,683
2019_Oct_16,205,001,3,recog,85,MIMICKED,LF,lure,-,-,-,conservative,no,m,1,0.653499597099,3,686
2019_Oct_16,205,001,3,recog,86,CONCERNED,HF,target,right,yellow,imageability,liberal,no,m,0,0.733188670073,-3,683
2019_Oct_16,205,001,3,recog,87,UTILIZE,LF,lure,-,-,-,conservative,no,m,1,1.67999394365,3,686
2019_Oct_16,205,001,3,recog,88,EASILY,HF,target,right,yellow,imageability,conservative,no,z,1,0.573481310724,1,687
2019_Oct_16,205,001,3,recog,89,CUFFED,LF,lure,-,-,-,conservative,no,m,1,0.706737216585,3,690
2019_Oct_16,205,001,3,recog,90,PHYSICAL,HF,lure,-,-,-,liberal,no,m,1,0.666823941219,1,691
2019_Oct_16,205,001,3,recog,91,SEPULCHRE,LF,lure,-,-,-,liberal,no,m,1,0.57349854127,1,692
2019_Oct_16,205,001,3,recog,92,FASCINATE,LF,lure,-,-,-,liberal,yes,m,1,1.00015617473,1,693
2019_Oct_16,205,001,3,recog,93,FATHER,HF,target,left,aqua,pleasantness,conservative,no,z,1,1.73304422678,1,694
2019_Oct_16,205,001,3,recog,94,ROSEBUD,LF,target,right,yellow,imageability,liberal,no,z,1,1.0932931385,3,697
2019_Oct_16,205,001,3,recog,95,SUDDENLY,HF,target,left,aqua,pleasantness,conservative,no,z,1,0.906754520452,1,698
2019_Oct_16,205,001,4,source,0,SQUADRONS,LF,target,right,yellow,imageability,liberal,no,7,1,1.99950801294,-,-
2019_Oct_16,205,001,4,source,1,HOTEL,HF,target,left,aqua,pleasantness,liberal,no,2,1,1.10637075588,-,-
2019_Oct_16,205,001,4,source,2,TUFTS,LF,target,left,aqua,pleasantness,liberal,no,1,1,0.866725763772,-,-
2019_Oct_16,205,001,4,source,3,WOMAN,HF,target,left,aqua,pleasantness,liberal,no,2,1,2.91924776571,-,-
2019_Oct_16,205,001,4,source,4,NOXIOUS,LF,target,left,aqua,pleasantness,liberal,no,7,0,0.999977636952,-,-
2019_Oct_16,205,001,4,source,5,FORCE,HF,target,left,aqua,pleasantness,conservative,no,2,1,0.986832197217,-,-
2019_Oct_16,205,001,4,source,6,ALMOST,HF,target,left,aqua,pleasantness,conservative,no,2,1,0.760044491468,-,-
2019_Oct_16,205,001,4,source,7,WESTERN,HF,target,right,yellow,imageability,liberal,no,7,1,1.17333342132,-,-
2019_Oct_16,205,001,4,source,8,TUMBLER,LF,target,left,aqua,pleasantness,liberal,no,3,1,1.37325430745,-,-
2019_Oct_16,205,001,4,source,9,MOISTENED,LF,target,left,aqua,pleasantness,conservative,no,1,1,0.799821388899,-,-
2019_Oct_16,205,001,4,source,10,WHATEVER,HF,target,left,aqua,pleasantness,conservative,no,1,1,0.85312756396,-,-
2019_Oct_16,205,001,4,source,11,FUTURE,HF,target,right,yellow,imageability,conservative,no,8,1,2.47939373409,-,-
2019_Oct_16,205,001,4,source,12,PANACHE,LF,target,right,yellow,imageability,conservative,no,7,1,0.74673627807,-,-
2019_Oct_16,205,001,4,source,13,ROMANCES,LF,target,left,aqua,pleasantness,conservative,no,1,1,0.879767453626,-,-
2019_Oct_16,205,001,4,source,14,EVIDENCE,HF,target,right,yellow,imageability,conservative,no,3,0,1.46628788795,-,-
2019_Oct_16,205,001,4,source,15,JUTTED,LF,target,left,aqua,pleasantness,conservative,no,7,0,1.33211656354,-,-
2019_Oct_16,205,001,4,source,16,TASSELS,LF,target,right,yellow,imageability,liberal,yes,7,1,0.533471984233,-,-
2019_Oct_16,205,001,4,source,17,POLICE,HF,target,right,yellow,imageability,liberal,no,9,1,0.746726379672,-,-
2019_Oct_16,205,001,4,source,18,CLASS,HF,target,right,yellow,imageability,conservative,no,3,0,1.61280581469,-,-
2019_Oct_16,205,001,4,source,19,NOTHING,HF,target,left,aqua,pleasantness,liberal,no,3,1,0.893344390211,-,-
2019_Oct_16,205,001,4,source,20,CLUBBED,LF,target,right,yellow,imageability,conservative,no,9,1,0.986619564954,-,-
2019_Oct_16,205,001,4,source,21,ENROLMENT,LF,target,left,aqua,pleasantness,conservative,no,2,1,1.27961179215,-,-
2019_Oct_16,205,001,4,source,22,TRIED,HF,target,left,aqua,pleasantness,conservative,no,1,1,1.94607939102,-,-
2019_Oct_16,205,001,4,source,23,IDLING,LF,target,left,aqua,pleasantness,conservative,yes,3,1,0.546883580903,-,-
2019_Oct_16,205,001,4,source,24,WHOLE,HF,target,right,yellow,imageability,conservative,no,8,1,1.01337420272,-,-
2019_Oct_16,205,001,4,source,25,REPORT,HF,target,left,aqua,pleasantness,liberal,no,1,1,1.3595893851,-,-
2019_Oct_16,205,001,4,source,26,HAIRDO,LF,target,right,yellow,imageability,liberal,no,9,1,0.839785622686,-,-
2019_Oct_16,205,001,4,source,27,LUNACY,LF,target,right,yellow,imageability,conservative,no,9,1,1.09264424349,-,-
2019_Oct_16,205,001,4,source,28,TAILED,LF,target,right,yellow,imageability,conservative,no,9,1,0.866730896274,-,-
2019_Oct_16,205,001,4,source,29,HARDLY,HF,target,right,yellow,imageability,liberal,no,2,0,1.55903514811,-,-
2019_Oct_16,205,001,4,source,30,LAPELS,LF,target,right,yellow,imageability,liberal,no,9,1,0.89342064454,-,-
2019_Oct_16,205,001,4,source,31,TRUTH,HF,target,right,yellow,imageability,conservative,no,9,1,1.8796516057,-,-
2019_Oct_16,205,001,4,source,32,UNVEILED,LF,target,left,aqua,pleasantness,liberal,no,1,1,0.959759344271,-,-
2019_Oct_16,205,001,4,source,33,GENERAL,HF,target,left,aqua,pleasantness,conservative,no,3,1,1.03994590342,-,-
2019_Oct_16,205,001,4,source,34,NURTURING,LF,target,left,aqua,pleasantness,conservative,no,1,1,4.5450476113,-,-
2019_Oct_16,205,001,4,source,35,HEALTH,HF,target,right,yellow,imageability,liberal,no,7,1,1.61310973218,-,-
2019_Oct_16,205,001,4,source,36,SPUDS,LF,target,right,yellow,imageability,conservative,no,9,1,1.29319679409,-,-
2019_Oct_16,205,001,4,source,37,INSIDE,HF,target,left,aqua,pleasantness,conservative,no,1,1,1.01332104466,-,-
2019_Oct_16,205,001,4,source,38,EXCEPT,HF,target,left,aqua,pleasantness,liberal,no,2,1,0.986648893542,-,-
2019_Oct_16,205,001,4,source,39,NOMAD,LF,target,right,yellow,imageability,liberal,yes,8,1,0.600244380459,-,-
2019_Oct_16,205,001,4,source,40,SEMANTIC,LF,target,right,yellow,imageability,conservative,no,7,1,0.920012508643,-,-
2019_Oct_16,205,001,4,source,41,SYSTEM,HF,target,left,aqua,pleasantness,liberal,no,3,1,1.1332676373,-,-
2019_Oct_16,205,001,4,source,42,OMELETTE,LF,target,right,yellow,imageability,liberal,no,9,1,0.786929274843,-,-
2019_Oct_16,205,001,4,source,43,SMUDGE,LF,target,left,aqua,pleasantness,liberal,no,1,1,1.03999392898,-,-
2019_Oct_16,205,001,4,source,44,FRONT,HF,target,right,yellow,imageability,conservative,no,1,0,0.946828003229,-,-
2019_Oct_16,205,001,4,source,45,COMES,HF,target,right,yellow,imageability,liberal,no,3,0,2.11951912847,-,-
2019_Oct_16,205,001,4,source,46,SACRAMENT,LF,target,left,aqua,pleasantness,liberal,no,1,1,1.11992239656,-,-
2019_Oct_16,205,001,4,source,47,TABLE,HF,target,right,yellow,imageability,liberal,yes,8,1,0.547546773599,-,-
2019_Oct_16,205,001,4,recog,0,EARLIER,HF,lure,-,-,-,liberal,no,m,1,1.69308842496,1,699
2019_Oct_16,205,001,4,recog,1,MICROCOSM,LF,lure,-,-,-,liberal,no,m,1,0.85334752837,1,700
2019_Oct_16,205,001,4,recog,2,MIGHTILY,LF,lure,-,-,-,liberal,no,m,1,1.01325468872,1,701
2019_Oct_16,205,001,4,recog,3,LEGALITY,LF,lure,-,-,-,conservative,no,m,1,0.840036015506,3,704
2019_Oct_16,205,001,4,recog,4,FRONT,HF,target,right,yellow,imageability,conservative,no,z,1,0.760103148644,1,705
2019_Oct_16,205,001,4,recog,5,NORTH,HF,lure,-,-,-,conservative,no,m,1,0.626797017576,3,708
2019_Oct_16,205,001,4,recog,6,LEDGES,LF,lure,-,-,-,liberal,no,z,0,0.82646201178,-1,707
2019_Oct_16,205,001,4,recog,7,SCHOOL,HF,lure,-,-,-,liberal,no,m,1,1.65307616561,1,708
2019_Oct_16,205,001,4,recog,8,UNVEILED,LF,target,left,aqua,pleasantness,liberal,no,z,1,0.693545584325,3,711
2019_Oct_16,205,001,4,recog,9,DEBACLE,LF,lure,-,-,-,liberal,no,m,1,0.653497030847,1,712
2019_Oct_16,205,001,4,recog,10,VALUE,HF,lure,-,-,-,liberal,no,m,1,0.706748581413,1,713
2019_Oct_16,205,001,4,recog,11,HARDLY,HF,target,right,yellow,imageability,liberal,no,z,1,0.69347702875,3,716
2019_Oct_16,205,001,4,recog,12,CAUGHT,HF,lure,-,-,-,liberal,no,m,1,0.653528925686,1,717
2019_Oct_16,205,001,4,recog,13,SORRY,HF,lure,-,-,-,liberal,no,m,1,0.666782881196,1,718
2019_Oct_16,205,001,4,recog,14,TAILED,LF,target,right,yellow,imageability,conservative,no,z,1,0.62682964563,1,719
2019_Oct_16,205,001,4,recog,15,OMELETTE,LF,target,right,yellow,imageability,liberal,no,z,1,0.720075858393,3,722
2019_Oct_16,205,001,4,recog,16,NOMAD,LF,target,right,yellow,imageability,liberal,no,z,1,0.666607642883,3,725
2019_Oct_16,205,001,4,recog,17,ENROLMENT,LF,target,left,aqua,pleasantness,conservative,no,z,1,0.759890516381,1,726
2019_Oct_16,205,001,4,recog,18,IDLING,LF,target,left,aqua,pleasantness,conservative,no,z,1,1.04001372578,1,727
2019_Oct_16,205,001,4,recog,19,EXCEPT,HF,target,left,aqua,pleasantness,liberal,no,z,1,0.719806768599,3,730
2019_Oct_16,205,001,4,recog,20,NURTURING,LF,target,left,aqua,pleasantness,conservative,no,z,1,0.813409690312,1,731
2019_Oct_16,205,001,4,recog,21,REPORT,HF,target,left,aqua,pleasantness,liberal,no,z,1,0.800175898206,3,734
2019_Oct_16,205,001,4,recog,22,RUNNING,HF,lure,-,-,-,conservative,no,m,1,0.706831068067,3,737
2019_Oct_16,205,001,4,recog,23,SACRAMENT,LF,target,left,aqua,pleasantness,liberal,no,z,1,0.546595060919,3,740
2019_Oct_16,205,001,4,recog,24,NOVAS,LF,lure,-,-,-,liberal,no,m,1,0.786729473838,1,741
2019_Oct_16,205,001,4,recog,25,OXIDE,LF,lure,-,-,-,liberal,no,m,1,0.573226518616,1,742
2019_Oct_16,205,001,4,recog,26,ALMOST,HF,target,left,aqua,pleasantness,conservative,no,z,1,0.693449533199,1,743
2019_Oct_16,205,001,4,recog,27,IDEAS,HF,lure,-,-,-,conservative,yes,m,1,0.920052102236,3,746
2019_Oct_16,205,001,4,recog,28,TURNED,HF,lure,-,-,-,liberal,no,m,1,1.09327077546,1,747
2019_Oct_16,205,001,4,recog,29,HOTEL,HF,target,left,aqua,pleasantness,liberal,no,z,1,0.600262710827,3,750
2019_Oct_16,205,001,4,recog,30,ROMANCES,LF,target,left,aqua,pleasantness,conservative,no,z,1,0.746781737381,1,751
2019_Oct_16,205,001,4,recog,31,LOGGED,LF,lure,-,-,-,liberal,no,m,1,0.919985746306,1,752
2019_Oct_16,205,001,4,recog,32,SPUDS,LF,target,right,yellow,imageability,conservative,no,z,1,0.653444972603,1,753
2019_Oct_16,205,001,4,recog,33,FLICKS,LF,lure,-,-,-,conservative,no,m,1,0.560147068205,3,756
2019_Oct_16,205,001,4,recog,34,TOWARDS,HF,lure,-,-,-,conservative,no,m,1,0.840019884783,3,759
2019_Oct_16,205,001,4,recog,35,LUNACY,LF,target,right,yellow,imageability,conservative,no,z,1,0.813400158521,1,760
2019_Oct_16,205,001,4,recog,36,BRING,HF,lure,-,-,-,liberal,no,m,1,0.693496825547,1,761
2019_Oct_16,205,001,4,recog,37,WESTERN,HF,target,right,yellow,imageability,liberal,no,z,1,0.640099731863,3,764
2019_Oct_16,205,001,4,recog,38,WHOLE,HF,target,right,yellow,imageability,conservative,no,z,1,0.840123634663,1,765
2019_Oct_16,205,001,4,recog,39,ENERGY,HF,lure,-,-,-,conservative,no,m,1,0.76008848435,3,768
2019_Oct_16,205,001,4,recog,40,INJECT,LF,lure,-,-,-,conservative,no,m,1,0.933358482597,3,771
2019_Oct_16,205,001,4,recog,41,WOMAN,HF,target,left,aqua,pleasantness,liberal,no,z,1,0.680116023894,3,774
2019_Oct_16,205,001,4,recog,42,COMES,HF,target,right,yellow,imageability,liberal,no,z,1,0.666985615061,3,777
2019_Oct_16,205,001,4,recog,43,MOISTENED,LF,target,left,aqua,pleasantness,conservative,no,z,1,0.746811799184,1,778
2019_Oct_16,205,001,4,recog,44,LAPELS,LF,target,right,yellow,imageability,liberal,no,z,1,0.613170222392,3,781
2019_Oct_16,205,001,4,recog,45,ABUSING,LF,lure,-,-,-,conservative,no,m,1,0.973058025878,3,784
2019_Oct_16,205,001,4,recog,46,ADULATION,LF,lure,-,-,-,liberal,yes,z,0,0.773479917616,-1,783
2019_Oct_16,205,001,4,recog,47,TRIED,HF,target,left,aqua,pleasantness,conservative,no,z,1,0.56012140569,1,784
2019_Oct_16,205,001,4,recog,48,POLICE,HF,target,right,yellow,imageability,liberal,no,z,1,0.653439106886,3,787
2019_Oct_16,205,001,4,recog,49,VILLAGE,HF,lure,-,-,-,liberal,no,z,0,0.586808221096,-1,786
2019_Oct_16,205,001,4,recog,50,WHATEVER,HF,target,left,aqua,pleasantness,conservative,no,z,1,0.680133254439,1,787
2019_Oct_16,205,001,4,recog,51,SERIOUS,HF,lure,-,-,-,liberal,no,m,1,0.733195269005,1,788
2019_Oct_16,205,001,4,recog,52,MAJOR,HF,lure,-,-,-,conservative,no,m,1,0.573751866948,3,791
2019_Oct_16,205,001,4,recog,53,HOURS,HF,lure,-,-,-,conservative,yes,m,1,0.560183362332,3,794
2019_Oct_16,205,001,4,recog,54,SQUADRONS,LF,target,right,yellow,imageability,liberal,no,z,1,1.02663219091,3,797
2019_Oct_16,205,001,4,recog,55,TUMBLER,LF,target,left,aqua,pleasantness,liberal,no,z,1,0.573460047498,3,800
2019_Oct_16,205,001,4,recog,56,HEALTH,HF,target,right,yellow,imageability,liberal,no,z,1,0.520172569412,3,803
2019_Oct_16,205,001,4,recog,57,VAULTED,LF,lure,-,-,-,conservative,no,m,1,1.22669605391,3,806
2019_Oct_16,205,001,4,recog,58,FINAL,HF,lure,-,-,-,liberal,no,m,1,0.786775299757,1,807
2019_Oct_16,205,001,4,recog,59,TRUTH,HF,target,right,yellow,imageability,conservative,no,z,1,0.613619316394,1,808
2019_Oct_16,205,001,4,recog,60,SEMANTIC,LF,target,right,yellow,imageability,conservative,no,z,1,0.533250186787,1,809
2019_Oct_16,205,001,4,recog,61,JUTTED,LF,target,left,aqua,pleasantness,conservative,no,z,1,0.733455560224,1,810
2019_Oct_16,205,001,4,recog,62,FOAMING,LF,lure,-,-,-,liberal,no,m,1,0.653507295853,1,811
2019_Oct_16,205,001,4,recog,63,VIVACIOUS,LF,lure,-,-,-,liberal,no,m,1,0.586582024362,1,812
2019_Oct_16,205,001,4,recog,64,SOJOURN,LF,lure,-,-,-,conservative,no,m,1,0.560097209605,3,815
2019_Oct_16,205,001,4,recog,65,KIBBUTZIM,LF,lure,-,-,-,conservative,no,m,1,0.480232898317,3,818
2019_Oct_16,205,001,4,recog,66,HIMSELF,HF,lure,-,-,-,liberal,no,m,1,0.56019472716,1,819
2019_Oct_16,205,001,4,recog,67,HAIRDO,LF,target,right,yellow,imageability,liberal,no,m,0,0.506789934722,-3,816
2019_Oct_16,205,001,4,recog,68,PANACHE,LF,target,right,yellow,imageability,conservative,no,z,1,1.15990092803,1,817
2019_Oct_16,205,001,4,recog,69,NOTHING,HF,target,left,aqua,pleasantness,liberal,no,z,1,1.43953984912,3,820
2019_Oct_16,205,001,4,recog,70,SIMILAR,HF,lure,-,-,-,conservative,no,m,1,0.760110480791,3,823
2019_Oct_16,205,001,4,recog,71,GENERAL,HF,target,left,aqua,pleasantness,conservative,no,z,1,1.47978930342,1,824
2019_Oct_16,205,001,4,recog,72,PORCHES,LF,lure,-,-,-,conservative,no,m,1,0.986465956475,3,827
2019_Oct_16,205,001,4,recog,73,SYSTEM,HF,target,left,aqua,pleasantness,liberal,no,z,1,0.653426642236,3,830
2019_Oct_16,205,001,4,recog,74,LIGHT,HF,lure,-,-,-,conservative,yes,z,0,0.560172730719,-3,827
2019_Oct_16,205,001,4,recog,75,CLASS,HF,target,right,yellow,imageability,conservative,no,z,1,1.82656319541,1,828
2019_Oct_16,205,001,4,recog,76,TASSELS,LF,target,right,yellow,imageability,liberal,no,z,1,0.600158227732,3,831
2019_Oct_16,205,001,4,recog,77,FUTURE,HF,target,right,yellow,imageability,conservative,no,z,1,0.666760884756,1,832
2019_Oct_16,205,001,4,recog,78,MAGGOT,LF,lure,-,-,-,conservative,no,m,1,0.746795668461,3,835
2019_Oct_16,205,001,4,recog,79,SUMMER,HF,lure,-,-,-,liberal,no,m,1,0.733619433709,1,836
2019_Oct_16,205,001,4,recog,80,MARKET,HF,lure,-,-,-,conservative,no,m,1,1.31981248767,3,839
2019_Oct_16,205,001,4,recog,81,WICKEDLY,LF,lure,-,-,-,conservative,no,m,1,0.693503424479,3,842
2019_Oct_16,205,001,4,recog,82,FONDLE,LF,lure,-,-,-,liberal,no,m,1,0.746761573977,1,843
2019_Oct_16,205,001,4,recog,83,FERRET,LF,lure,-,-,-,conservative,no,m,1,0.773437391163,3,846
2019_Oct_16,205,001,4,recog,84,NOXIOUS,LF,target,left,aqua,pleasantness,liberal,no,m,0,1.07993946579,-3,843
2019_Oct_16,205,001,4,recog,85,TUFTS,LF,target,left,aqua,pleasantness,liberal,no,z,1,0.69349499251,3,846
2019_Oct_16,205,001,4,recog,86,EVIDENCE,HF,target,right,yellow,imageability,conservative,no,z,1,3.99879422843,1,847
2019_Oct_16,205,001,4,recog,87,TABLE,HF,target,right,yellow,imageability,liberal,no,z,1,0.72014258093,3,850
2019_Oct_16,205,001,4,recog,88,DRAFTING,LF,lure,-,-,-,conservative,no,m,1,0.893332658776,3,853
2019_Oct_16,205,001,4,recog,89,INSIDE,HF,target,left,aqua,pleasantness,conservative,no,z,1,0.733492220958,1,854
2019_Oct_16,205,001,4,recog,90,PSEUDONYM,LF,lure,-,-,-,liberal,no,m,1,0.760090317387,1,855
2019_Oct_16,205,001,4,recog,91,WATCH,HF,lure,-,-,-,conservative,no,m,1,0.786906911795,3,858
2019_Oct_16,205,001,4,recog,92,FORCE,HF,target,left,aqua,pleasantness,conservative,no,m,0,1.31989204147,-1,857
2019_Oct_16,205,001,4,recog,93,SMUDGE,LF,target,left,aqua,pleasantness,liberal,no,z,1,1.71972061587,3,860
2019_Oct_16,205,001,4,recog,94,MILES,HF,lure,-,-,-,conservative,no,m,1,0.72012461717,3,863
2019_Oct_16,205,001,4,recog,95,CLUBBED,LF,target,right,yellow,imageability,conservative,no,m,0,0.760099482571,-1,862
