date,subj,session,cycle,task,trial,item,wf,type,source,colour,encoding,bias,null,response,corr,rt,points,total
2019_Oct_17,206,001,0,source,0,COWARDS,LF,target,right,aqua,imageability,liberal,yes,8,1,2.19946923172,-,-
2019_Oct_17,206,001,0,source,1,FORCE,HF,target,left,yellow,pleasantness,liberal,no,1,1,3.45232433835,-,-
2019_Oct_17,206,001,0,source,2,APART,HF,target,left,yellow,pleasantness,liberal,no,1,1,2.97224812886,-,-
2019_Oct_17,206,001,0,source,3,ECHELONS,LF,target,right,aqua,imageability,liberal,no,9,1,2.97256963997,-,-
2019_Oct_17,206,001,0,source,4,SAPLINGS,LF,target,left,yellow,pleasantness,liberal,no,1,1,1.90602270594,-,-
2019_Oct_17,206,001,0,source,5,MINISTER,HF,target,left,yellow,pleasantness,conservative,no,1,1,1.94603745806,-,-
2019_Oct_17,206,001,0,source,6,ACIDITY,LF,target,left,yellow,pleasantness,liberal,no,1,1,3.22545114204,-,-
2019_Oct_17,206,001,0,source,7,PALATABLE,LF,target,right,aqua,imageability,conservative,no,7,1,2.22614182269,-,-
2019_Oct_17,206,001,0,source,8,JEALOUSLY,LF,target,left,yellow,pleasantness,liberal,no,None,-1,-1,-,-
2019_Oct_17,206,001,0,source,9,LONGER,HF,target,right,aqua,imageability,liberal,no,9,1,2.39941504775,-,-
2019_Oct_17,206,001,0,source,10,GLIDED,LF,target,left,yellow,pleasantness,conservative,no,1,1,1.8530213979,-,-
2019_Oct_17,206,001,0,source,11,ANTELOPES,LF,target,left,yellow,pleasantness,conservative,no,1,1,1.30632126769,-,-
2019_Oct_17,206,001,0,source,12,STOOD,HF,target,left,yellow,pleasantness,conservative,no,9,0,4.13214179923,-,-
2019_Oct_17,206,001,0,source,13,RANGE,HF,target,left,yellow,pleasantness,conservative,no,3,1,3.11890155381,-,-
2019_Oct_17,206,001,0,source,14,PEACEABLY,LF,target,right,aqua,imageability,conservative,no,8,1,2.93252885901,-,-
2019_Oct_17,206,001,0,source,15,GIVEN,HF,target,right,aqua,imageability,conservative,no,8,1,1.82635393937,-,-
2019_Oct_17,206,001,0,source,16,DEBACLE,LF,target,right,aqua,imageability,conservative,no,8,1,1.30653169799,-,-
2019_Oct_17,206,001,0,source,17,ZENITH,LF,target,left,yellow,pleasantness,liberal,no,9,0,2.21281872492,-,-
2019_Oct_17,206,001,0,source,18,ENERGY,HF,target,right,aqua,imageability,conservative,no,1,0,2.74594610051,-,-
2019_Oct_17,206,001,0,source,19,SHORT,HF,target,left,yellow,pleasantness,liberal,yes,2,1,1.69301481371,-,-
2019_Oct_17,206,001,0,source,20,AUBURN,LF,target,right,aqua,imageability,conservative,no,9,1,2.11952734567,-,-
2019_Oct_17,206,001,0,source,21,LOOKED,HF,target,right,aqua,imageability,liberal,no,9,1,1.11967618662,-,-
2019_Oct_17,206,001,0,source,22,WRONG,HF,target,left,yellow,pleasantness,conservative,no,2,1,2.4927837803,-,-
2019_Oct_17,206,001,0,source,23,FOUND,HF,target,left,yellow,pleasantness,liberal,no,3,1,4.82543779768,-,-
2019_Oct_17,206,001,0,source,24,WAITING,HF,target,left,yellow,pleasantness,conservative,no,8,0,1.1199720355,-,-
2019_Oct_17,206,001,0,source,25,RETURN,HF,target,right,aqua,imageability,conservative,no,1,0,3.78530133326,-,-
2019_Oct_17,206,001,0,source,26,DEVELOPED,HF,target,left,yellow,pleasantness,liberal,no,1,1,3.78542047934,-,-
2019_Oct_17,206,001,0,source,27,FIELD,HF,target,left,yellow,pleasantness,liberal,no,1,1,0.959987814106,-,-
2019_Oct_17,206,001,0,source,28,UNEARTHED,LF,target,left,yellow,pleasantness,conservative,yes,8,0,1.99955164414,-,-
2019_Oct_17,206,001,0,source,29,BEAUTIFUL,HF,target,right,aqua,imageability,conservative,no,1,0,3.25252956289,-,-
2019_Oct_17,206,001,0,source,30,WEEKS,HF,target,right,aqua,imageability,liberal,no,8,1,4.10545784355,-,-
2019_Oct_17,206,001,0,source,31,TRYING,HF,target,left,yellow,pleasantness,conservative,no,1,1,2.3727241266,-,-
2019_Oct_17,206,001,0,source,32,CUPID,LF,target,right,aqua,imageability,liberal,no,9,1,1.39977175277,-,-
2019_Oct_17,206,001,0,source,33,BUSINESS,HF,target,right,aqua,imageability,conservative,no,8,1,3.14600453708,-,-
2019_Oct_17,206,001,0,source,34,DOUBT,HF,target,right,aqua,imageability,liberal,no,9,1,2.54582321508,-,-
2019_Oct_17,206,001,0,source,35,CHAIR,HF,target,right,aqua,imageability,conservative,no,9,1,1.3464687302,-,-
2019_Oct_17,206,001,0,source,36,TAUNTED,LF,target,left,yellow,pleasantness,liberal,no,2,1,2.53267791992,-,-
2019_Oct_17,206,001,0,source,37,JEERED,LF,target,left,yellow,pleasantness,conservative,no,1,1,2.33284795054,-,-
2019_Oct_17,206,001,0,source,38,NARRATOR,LF,target,left,yellow,pleasantness,liberal,no,1,1,1.18655782947,-,-
2019_Oct_17,206,001,0,source,39,ELICIT,LF,target,right,aqua,imageability,liberal,no,9,1,2.79924179102,-,-
2019_Oct_17,206,001,0,source,40,TADPOLES,LF,target,right,aqua,imageability,liberal,yes,3,0,1.49312178855,-,-
2019_Oct_17,206,001,0,source,41,AFFABLE,LF,target,right,aqua,imageability,conservative,no,8,1,2.69267607224,-,-
2019_Oct_17,206,001,0,source,42,HILLSIDES,LF,target,left,yellow,pleasantness,conservative,no,1,1,1.03996049483,-,-
2019_Oct_17,206,001,0,source,43,JASMINE,LF,target,left,yellow,pleasantness,conservative,no,1,1,0.693495064053,-,-
2019_Oct_17,206,001,0,source,44,EMULATION,LF,target,right,aqua,imageability,liberal,no,8,1,3.30571160637,-,-
2019_Oct_17,206,001,0,source,45,MATERIAL,HF,target,right,aqua,imageability,liberal,no,1,0,3.17234571866,-,-
2019_Oct_17,206,001,0,source,46,SHIELDING,LF,target,right,aqua,imageability,conservative,no,9,1,1.79963039054,-,-
2019_Oct_17,206,001,0,source,47,MEANS,HF,target,right,aqua,imageability,liberal,no,9,1,1.59973333275,-,-
2019_Oct_17,206,001,0,recog,0,BUSINESS,HF,target,right,aqua,imageability,conservative,no,z,1,3.53237143955,1,1
2019_Oct_17,206,001,0,recog,1,DINER,LF,lure,-,-,-,liberal,no,m,1,2.37286380247,1,2
2019_Oct_17,206,001,0,recog,2,SAPLINGS,LF,target,left,yellow,pleasantness,liberal,no,z,1,1.27987267134,3,5
2019_Oct_17,206,001,0,recog,3,HOSPITAL,HF,lure,-,-,-,conservative,no,m,1,2.53272484515,3,8
2019_Oct_17,206,001,0,recog,4,MATERIAL,HF,target,right,aqua,imageability,liberal,no,z,1,1.26659613219,3,11
2019_Oct_17,206,001,0,recog,5,COWARDS,LF,target,right,aqua,imageability,liberal,no,z,1,2.26617893761,3,14
2019_Oct_17,206,001,0,recog,6,TADPOLES,LF,target,right,aqua,imageability,liberal,no,z,1,1.38650767814,3,17
2019_Oct_17,206,001,0,recog,7,VEHEMENCE,LF,lure,-,-,-,conservative,no,m,1,1.09327304908,3,20
2019_Oct_17,206,001,0,recog,8,BRUISING,LF,lure,-,-,-,liberal,no,m,1,0.920062146595,1,21
2019_Oct_17,206,001,0,recog,9,SHORT,HF,target,left,yellow,pleasantness,liberal,no,z,1,1.2798462759,3,24
2019_Oct_17,206,001,0,recog,10,SUBJECT,HF,lure,-,-,-,liberal,yes,z,0,2.83946110779,-1,23
2019_Oct_17,206,001,0,recog,11,DURING,HF,lure,-,-,-,liberal,no,z,0,4.42529797518,-1,22
2019_Oct_17,206,001,0,recog,12,RETURN,HF,target,right,aqua,imageability,conservative,no,m,0,1.82631911206,-1,21
2019_Oct_17,206,001,0,recog,13,APART,HF,target,left,yellow,pleasantness,liberal,no,z,1,2.07955731916,3,24
2019_Oct_17,206,001,0,recog,14,FORCE,HF,target,left,yellow,pleasantness,liberal,no,z,1,0.906732449966,3,27
2019_Oct_17,206,001,0,recog,15,ENOUGH,HF,lure,-,-,-,liberal,yes,z,0,1.23994590401,-1,26
2019_Oct_17,206,001,0,recog,16,TRYING,HF,target,left,yellow,pleasantness,conservative,no,z,1,2.07963760529,1,27
2019_Oct_17,206,001,0,recog,17,VESTIBULE,LF,lure,-,-,-,liberal,no,m,1,1.47989144143,1,28
2019_Oct_17,206,001,0,recog,18,ZENITH,LF,target,left,yellow,pleasantness,liberal,no,z,1,0.960000278619,3,31
2019_Oct_17,206,001,0,recog,19,JARRED,LF,lure,-,-,-,conservative,no,m,1,2.38611064675,3,34
2019_Oct_17,206,001,0,recog,20,WEEKS,HF,target,right,aqua,imageability,liberal,no,z,1,0.840073335328,3,37
2019_Oct_17,206,001,0,recog,21,AQUARIUM,LF,lure,-,-,-,liberal,no,m,1,0.866684336947,1,38
2019_Oct_17,206,001,0,recog,22,EXCEPT,HF,lure,-,-,-,liberal,no,m,1,1.27989503414,1,39
2019_Oct_17,206,001,0,recog,23,ENCLOSE,LF,lure,-,-,-,liberal,no,m,1,0.893441246686,1,40
2019_Oct_17,206,001,0,recog,24,PALATABLE,LF,target,right,aqua,imageability,conservative,no,z,1,0.77340212278,1,41
2019_Oct_17,206,001,0,recog,25,SHIELDING,LF,target,right,aqua,imageability,conservative,no,z,1,0.746732831233,1,42
2019_Oct_17,206,001,0,recog,26,BRING,HF,lure,-,-,-,conservative,no,m,1,0.840039241219,3,45
2019_Oct_17,206,001,0,recog,27,NARRATOR,LF,target,left,yellow,pleasantness,liberal,no,z,1,0.680128340489,3,48
2019_Oct_17,206,001,0,recog,28,MEANS,HF,target,right,aqua,imageability,liberal,no,z,1,3.31903507074,3,51
2019_Oct_17,206,001,0,recog,29,BEAUTIFUL,HF,target,right,aqua,imageability,conservative,no,z,1,0.879994603599,1,52
2019_Oct_17,206,001,0,recog,30,ELICIT,LF,target,right,aqua,imageability,liberal,no,z,1,3.14553931747,3,55
2019_Oct_17,206,001,0,recog,31,EMULATION,LF,target,right,aqua,imageability,liberal,no,z,1,1.5075582606,3,58
2019_Oct_17,206,001,0,recog,32,LONGER,HF,target,right,aqua,imageability,liberal,no,z,1,1.99932984914,3,61
2019_Oct_17,206,001,0,recog,33,APTLY,LF,lure,-,-,-,liberal,no,m,1,1.02666892494,1,62
2019_Oct_17,206,001,0,recog,34,ABOVE,HF,lure,-,-,-,liberal,no,m,1,2.37277435126,1,63
2019_Oct_17,206,001,0,recog,35,SNEAKED,LF,lure,-,-,-,conservative,no,m,1,1.55973287816,3,66
2019_Oct_17,206,001,0,recog,36,CONCERNED,HF,lure,-,-,-,conservative,no,m,1,1.08000127578,3,69
2019_Oct_17,206,001,0,recog,37,CAUGHT,HF,lure,-,-,-,conservative,yes,m,1,1.69313249337,3,72
2019_Oct_17,206,001,0,recog,38,ECHELONS,LF,target,right,aqua,imageability,liberal,no,m,0,4.26533978262,-3,69
2019_Oct_17,206,001,0,recog,39,GLIDED,LF,target,left,yellow,pleasantness,conservative,no,z,1,1.2929743407,1,70
2019_Oct_17,206,001,0,recog,40,DRUDGERY,LF,lure,-,-,-,conservative,no,m,1,1.05324583245,3,73
2019_Oct_17,206,001,0,recog,41,ROCKER,LF,lure,-,-,-,liberal,no,m,1,1.12002042714,1,74
2019_Oct_17,206,001,0,recog,42,PRUDENTLY,LF,lure,-,-,-,conservative,no,m,1,2.0262447649,3,77
2019_Oct_17,206,001,0,recog,43,ANSWER,HF,lure,-,-,-,liberal,no,z,0,4.65161320124,-1,76
2019_Oct_17,206,001,0,recog,44,INSIDE,HF,lure,-,-,-,conservative,no,m,1,3.21242499296,3,79
2019_Oct_17,206,001,0,recog,45,SCHOOL,HF,lure,-,-,-,liberal,no,m,1,1.22654288672,1,80
2019_Oct_17,206,001,0,recog,46,RANGE,HF,target,left,yellow,pleasantness,conservative,no,z,1,2.9592692716,1,81
2019_Oct_17,206,001,0,recog,47,WRONG,HF,target,left,yellow,pleasantness,conservative,no,z,1,3.50565448957,1,82
2019_Oct_17,206,001,0,recog,48,LIGHT,HF,lure,-,-,-,conservative,no,m,1,1.47985808052,3,85
2019_Oct_17,206,001,0,recog,49,ENERGY,HF,target,right,aqua,imageability,conservative,no,z,1,1.79965311994,1,86
2019_Oct_17,206,001,0,recog,50,JEALOUSLY,LF,target,left,yellow,pleasantness,liberal,no,z,1,1.70633461205,3,89
2019_Oct_17,206,001,0,recog,51,CUPID,LF,target,right,aqua,imageability,liberal,no,z,1,0.946419458718,3,92
2019_Oct_17,206,001,0,recog,52,DOCTOR,HF,lure,-,-,-,conservative,no,m,1,1.17330328653,3,95
2019_Oct_17,206,001,0,recog,53,TRADE,HF,lure,-,-,-,liberal,no,m,1,1.63984120211,1,96
2019_Oct_17,206,001,0,recog,54,HILLSIDES,LF,target,left,yellow,pleasantness,conservative,no,z,1,0.97309608233,1,97
2019_Oct_17,206,001,0,recog,55,AUBURN,LF,target,right,aqua,imageability,conservative,no,z,1,0.89334226379,1,98
2019_Oct_17,206,001,0,recog,56,STOOD,HF,target,left,yellow,pleasantness,conservative,no,z,1,0.986700364844,1,99
2019_Oct_17,206,001,0,recog,57,GIVEN,HF,target,right,aqua,imageability,conservative,no,z,1,1.27958012189,1,100
2019_Oct_17,206,001,0,recog,58,SERIOUS,HF,lure,-,-,-,conservative,no,m,1,0.786736951855,3,103
2019_Oct_17,206,001,0,recog,59,DIOCESE,LF,lure,-,-,-,conservative,no,m,1,0.906699822271,3,106
2019_Oct_17,206,001,0,recog,60,UNABATED,LF,lure,-,-,-,liberal,no,m,1,1.18749780038,1,107
2019_Oct_17,206,001,0,recog,61,FIELD,HF,target,left,yellow,pleasantness,liberal,no,z,1,1.75963653481,3,110
2019_Oct_17,206,001,0,recog,62,ANTELOPES,LF,target,left,yellow,pleasantness,conservative,no,z,1,0.920051148495,1,111
2019_Oct_17,206,001,0,recog,63,LOOKED,HF,target,right,aqua,imageability,liberal,no,z,1,1.0666323526,3,114
2019_Oct_17,206,001,0,recog,64,BIGNESS,LF,lure,-,-,-,conservative,no,m,1,0.840022010863,3,117
2019_Oct_17,206,001,0,recog,65,AXIOM,LF,lure,-,-,-,liberal,no,m,1,0.960050503273,1,118
2019_Oct_17,206,001,0,recog,66,MUNCH,LF,lure,-,-,-,conservative,no,m,1,0.960010543511,3,121
2019_Oct_17,206,001,0,recog,67,FOCUSES,LF,lure,-,-,-,conservative,no,m,1,1.12000942904,3,124
2019_Oct_17,206,001,0,recog,68,JELLIES,LF,lure,-,-,-,conservative,no,m,1,0.933112491495,3,127
2019_Oct_17,206,001,0,recog,69,CAIRN,LF,lure,-,-,-,conservative,no,m,1,0.786734385631,3,130
2019_Oct_17,206,001,0,recog,70,THANK,HF,lure,-,-,-,liberal,no,m,1,1.23988394805,1,131
2019_Oct_17,206,001,0,recog,71,CHAIR,HF,target,right,aqua,imageability,conservative,no,z,1,0.773401756177,1,132
2019_Oct_17,206,001,0,recog,72,DEBACLE,LF,target,right,aqua,imageability,conservative,no,z,1,0.97334903862,1,133
2019_Oct_17,206,001,0,recog,73,PEACEABLY,LF,target,right,aqua,imageability,conservative,no,z,1,0.840015412003,1,134
2019_Oct_17,206,001,0,recog,74,JASMINE,LF,target,left,yellow,pleasantness,conservative,no,z,1,0.746860775791,1,135
2019_Oct_17,206,001,0,recog,75,AFFABLE,LF,target,right,aqua,imageability,conservative,no,z,1,1.0800808287,1,136
2019_Oct_17,206,001,0,recog,76,VENDETTA,LF,lure,-,-,-,liberal,no,m,1,0.880101285165,1,137
2019_Oct_17,206,001,0,recog,77,OFTEN,HF,lure,-,-,-,conservative,no,m,1,1.69302397879,3,140
2019_Oct_17,206,001,0,recog,78,FOUND,HF,target,left,yellow,pleasantness,liberal,no,z,1,1.3731548855,3,143
2019_Oct_17,206,001,0,recog,79,DEGREE,HF,lure,-,-,-,conservative,no,m,1,0.880356441074,3,146
2019_Oct_17,206,001,0,recog,80,ACIDITY,LF,target,left,yellow,pleasantness,liberal,no,z,1,0.866455576476,3,149
2019_Oct_17,206,001,0,recog,81,BEHIND,HF,lure,-,-,-,liberal,no,z,0,3.43899390852,-1,148
2019_Oct_17,206,001,0,recog,82,DOUBT,HF,target,right,aqua,imageability,liberal,no,z,1,1.6397077585,3,151
2019_Oct_17,206,001,0,recog,83,FLOOR,HF,lure,-,-,-,conservative,no,m,1,0.946458318669,3,154
2019_Oct_17,206,001,0,recog,84,SCUFFED,LF,lure,-,-,-,liberal,no,m,1,0.906440267122,1,155
2019_Oct_17,206,001,0,recog,85,GAPED,LF,lure,-,-,-,liberal,no,m,1,0.91977986204,1,156
2019_Oct_17,206,001,0,recog,86,ATTACK,HF,lure,-,-,-,liberal,no,m,1,1.04008074071,1,157
2019_Oct_17,206,001,0,recog,87,JEERED,LF,target,left,yellow,pleasantness,conservative,no,z,1,0.760183506957,1,158
2019_Oct_17,206,001,0,recog,88,NAIVELY,LF,lure,-,-,-,conservative,no,m,1,0.853532442927,3,161
2019_Oct_17,206,001,0,recog,89,DEVELOPED,HF,target,left,yellow,pleasantness,liberal,yes,z,1,1.42659245149,3,164
2019_Oct_17,206,001,0,recog,90,WAITING,HF,target,left,yellow,pleasantness,conservative,no,z,1,1.38628148389,1,165
2019_Oct_17,206,001,0,recog,91,LIVED,HF,lure,-,-,-,liberal,no,m,1,2.05287592971,1,166
2019_Oct_17,206,001,0,recog,92,TAUNTED,LF,target,left,yellow,pleasantness,liberal,no,m,0,1.93270556181,-3,163
2019_Oct_17,206,001,0,recog,93,UNEARTHED,LF,target,left,yellow,pleasantness,conservative,no,z,1,2.31950468959,1,164
2019_Oct_17,206,001,0,recog,94,MINISTER,HF,target,left,yellow,pleasantness,conservative,no,z,1,1.37315818493,1,165
2019_Oct_17,206,001,0,recog,95,STUDENT,HF,lure,-,-,-,conservative,no,m,1,1.58640803536,3,168
2019_Oct_17,206,001,1,source,0,ESCALATED,LF,target,left,yellow,pleasantness,conservative,no,3,1,3.31883270571,-,-
2019_Oct_17,206,001,1,source,1,MOMENT,HF,target,right,aqua,imageability,liberal,no,1,0,2.59908847751,-,-
2019_Oct_17,206,001,1,source,2,BEQUEST,LF,target,left,yellow,pleasantness,conservative,no,9,0,3.18578356327,-,-
2019_Oct_17,206,001,1,source,3,ORBITAL,LF,target,right,aqua,imageability,liberal,yes,8,1,2.1728358673,-,-
2019_Oct_17,206,001,1,source,4,ROMANCES,LF,target,left,yellow,pleasantness,liberal,no,1,1,3.46576988163,-,-
2019_Oct_17,206,001,1,source,5,THYROID,LF,target,right,aqua,imageability,liberal,no,9,1,1.47978036062,-,-
2019_Oct_17,206,001,1,source,6,THEORY,HF,target,right,aqua,imageability,conservative,yes,8,1,0.933345651205,-,-
2019_Oct_17,206,001,1,source,7,NAUGHT,LF,target,right,aqua,imageability,conservative,no,9,1,1.69299318411,-,-
2019_Oct_17,206,001,1,source,8,PETERED,LF,target,right,aqua,imageability,conservative,no,8,1,1.87963239952,-,-
2019_Oct_17,206,001,1,source,9,PEGGED,LF,target,right,aqua,imageability,liberal,no,9,1,0.973172702424,-,-
2019_Oct_17,206,001,1,source,10,MERELY,HF,target,left,yellow,pleasantness,conservative,no,1,1,1.81297621771,-,-
2019_Oct_17,206,001,1,source,11,INHABITS,LF,target,left,yellow,pleasantness,conservative,no,1,1,0.760271858356,-,-
2019_Oct_17,206,001,1,source,12,FAMILY,HF,target,right,aqua,imageability,conservative,yes,2,0,0.89311680275,-,-
2019_Oct_17,206,001,1,source,13,AMONG,HF,target,right,aqua,imageability,liberal,no,9,1,1.54616708899,-,-
2019_Oct_17,206,001,1,source,14,ADOPTIVE,LF,target,right,aqua,imageability,conservative,no,9,1,0.759802972713,-,-
2019_Oct_17,206,001,1,source,15,TOGETHER,HF,target,left,yellow,pleasantness,conservative,no,1,1,0.706727610802,-,-
2019_Oct_17,206,001,1,source,16,MOCCASINS,LF,target,left,yellow,pleasantness,liberal,no,1,1,0.653341002675,-,-
2019_Oct_17,206,001,1,source,17,SAINTLY,LF,target,left,yellow,pleasantness,liberal,no,1,1,0.813384247202,-,-
2019_Oct_17,206,001,1,source,18,WINDOW,HF,target,right,aqua,imageability,conservative,no,8,1,2.57264098097,-,-
2019_Oct_17,206,001,1,source,19,KOSHER,LF,target,right,aqua,imageability,conservative,no,8,1,1.09331044262,-,-
2019_Oct_17,206,001,1,source,20,SPOKE,HF,target,right,aqua,imageability,liberal,no,8,1,2.62574163851,-,-
2019_Oct_17,206,001,1,source,21,KNUCKLE,LF,target,right,aqua,imageability,liberal,no,9,1,1.74632993419,-,-
2019_Oct_17,206,001,1,source,22,UDDER,LF,target,left,yellow,pleasantness,conservative,no,1,1,1.63973232092,-,-
2019_Oct_17,206,001,1,source,23,RUNNING,HF,target,left,yellow,pleasantness,conservative,no,1,1,1.37323443842,-,-
2019_Oct_17,206,001,1,source,24,EXACTLY,HF,target,left,yellow,pleasantness,liberal,no,1,1,3.70559114052,-,-
2019_Oct_17,206,001,1,source,25,MEMBERS,HF,target,left,yellow,pleasantness,conservative,no,1,1,1.9460528554,-,-
2019_Oct_17,206,001,1,source,26,NECESSARY,HF,target,right,aqua,imageability,liberal,no,9,1,2.06621442481,-,-
2019_Oct_17,206,001,1,source,27,SHALL,HF,target,left,yellow,pleasantness,conservative,yes,3,1,2.17267272882,-,-
2019_Oct_17,206,001,1,source,28,YOUNG,HF,target,left,yellow,pleasantness,liberal,no,8,0,1.70614287851,-,-
2019_Oct_17,206,001,1,source,29,PACIFISM,LF,target,right,aqua,imageability,conservative,no,9,1,1.31959670702,-,-
2019_Oct_17,206,001,1,source,30,HAPPEN,HF,target,right,aqua,imageability,liberal,no,8,1,2.99916267802,-,-
2019_Oct_17,206,001,1,source,31,UNVEILED,LF,target,left,yellow,pleasantness,liberal,no,1,1,0.866662340748,-,-
2019_Oct_17,206,001,1,source,32,CALLED,HF,target,left,yellow,pleasantness,liberal,no,1,1,1.31991748493,-,-
2019_Oct_17,206,001,1,source,33,ASSERTIVE,LF,target,right,aqua,imageability,liberal,no,9,1,1.58616387755,-,-
2019_Oct_17,206,001,1,source,34,WANTED,HF,target,right,aqua,imageability,conservative,no,9,1,1.11992730989,-,-
2019_Oct_17,206,001,1,source,35,LEARN,HF,target,left,yellow,pleasantness,conservative,no,2,1,2.99923893151,-,-
2019_Oct_17,206,001,1,source,36,KRONOR,LF,target,left,yellow,pleasantness,liberal,no,1,1,1.67967081955,-,-
2019_Oct_17,206,001,1,source,37,UGLIEST,LF,target,left,yellow,pleasantness,conservative,no,1,1,0.760061428052,-,-
2019_Oct_17,206,001,1,source,38,VOICE,HF,target,left,yellow,pleasantness,liberal,no,8,0,1.01332273117,-,-
2019_Oct_17,206,001,1,source,39,EASILY,HF,target,right,aqua,imageability,conservative,no,9,1,1.85274827843,-,-
2019_Oct_17,206,001,1,source,40,STICKER,LF,target,right,aqua,imageability,conservative,no,9,1,0.626898638582,-,-
2019_Oct_17,206,001,1,source,41,PLACE,HF,target,left,yellow,pleasantness,liberal,no,1,1,2.13281488292,-,-
2019_Oct_17,206,001,1,source,42,LIARS,LF,target,left,yellow,pleasantness,conservative,no,1,1,1.66616735295,-,-
2019_Oct_17,206,001,1,source,43,TRIED,HF,target,right,aqua,imageability,liberal,no,9,1,1.2799797195,-,-
2019_Oct_17,206,001,1,source,44,ASKED,HF,target,right,aqua,imageability,conservative,no,8,1,0.786472997466,-,-
2019_Oct_17,206,001,1,source,45,EVENING,HF,target,left,yellow,pleasantness,liberal,no,1,1,0.973309078858,-,-
2019_Oct_17,206,001,1,source,46,EMBATTLED,LF,target,right,aqua,imageability,liberal,no,8,1,2.18616996316,-,-
2019_Oct_17,206,001,1,source,47,INFECT,LF,target,left,yellow,pleasantness,liberal,no,1,1,1.11989358239,-,-
2019_Oct_17,206,001,1,recog,0,TOGETHER,HF,target,left,yellow,pleasantness,conservative,no,z,1,1.21320915746,1,169
2019_Oct_17,206,001,1,recog,1,WOMAN,HF,lure,-,-,-,liberal,no,m,1,1.61283096948,1,170
2019_Oct_17,206,001,1,recog,2,SHALL,HF,target,left,yellow,pleasantness,conservative,no,z,1,1.29328668673,1,171
2019_Oct_17,206,001,1,recog,3,HOURS,HF,lure,-,-,-,conservative,no,m,1,1.01306500903,3,174
2019_Oct_17,206,001,1,recog,4,PLACE,HF,target,left,yellow,pleasantness,liberal,no,z,1,0.999953807982,3,177
2019_Oct_17,206,001,1,recog,5,EDICT,LF,lure,-,-,-,conservative,no,m,1,1.04000375402,3,180
2019_Oct_17,206,001,1,recog,6,PETERED,LF,target,right,aqua,imageability,conservative,no,z,1,0.786488761409,1,181
2019_Oct_17,206,001,1,recog,7,SPOKE,HF,target,right,aqua,imageability,liberal,no,z,1,0.599905269703,3,184
2019_Oct_17,206,001,1,recog,8,GORGED,LF,lure,-,-,-,liberal,no,m,1,0.759804439126,1,185
2019_Oct_17,206,001,1,recog,9,MOMENT,HF,target,right,aqua,imageability,liberal,no,z,1,0.653636118346,3,188
2019_Oct_17,206,001,1,recog,10,BIDDER,LF,lure,-,-,-,liberal,no,m,1,0.800065915277,1,189
2019_Oct_17,206,001,1,recog,11,ASSERTIVE,LF,target,right,aqua,imageability,liberal,no,z,1,2.43939937179,3,192
2019_Oct_17,206,001,1,recog,12,HIGHER,HF,lure,-,-,-,liberal,no,m,1,0.853331177706,1,193
2019_Oct_17,206,001,1,recog,13,UDDER,LF,target,left,yellow,pleasantness,conservative,no,z,1,0.973368468595,1,194
2019_Oct_17,206,001,1,recog,14,WANTED,HF,target,right,aqua,imageability,conservative,no,z,1,0.760113852326,1,195
2019_Oct_17,206,001,1,recog,15,INHABITS,LF,target,left,yellow,pleasantness,conservative,no,z,1,0.973074819338,1,196
2019_Oct_17,206,001,1,recog,16,LEARN,HF,target,left,yellow,pleasantness,conservative,no,z,1,0.626815053026,1,197
2019_Oct_17,206,001,1,recog,17,HAPPEN,HF,target,right,aqua,imageability,liberal,no,z,1,1.79964395486,3,200
2019_Oct_17,206,001,1,recog,18,EMBATTLED,LF,target,right,aqua,imageability,liberal,no,z,1,0.693431641679,3,203
2019_Oct_17,206,001,1,recog,19,NECESSARY,HF,target,right,aqua,imageability,liberal,no,z,1,1.58619907147,3,206
2019_Oct_17,206,001,1,recog,20,BROUGHT,HF,lure,-,-,-,liberal,no,m,1,0.653412856925,1,207
2019_Oct_17,206,001,1,recog,21,RUNNING,HF,target,left,yellow,pleasantness,conservative,yes,m,0,1.61309089123,-1,206
2019_Oct_17,206,001,1,recog,22,SAINTLY,LF,target,left,yellow,pleasantness,liberal,no,z,1,0.813395978508,3,209
2019_Oct_17,206,001,1,recog,23,EVENING,HF,target,left,yellow,pleasantness,liberal,no,z,1,0.560187832876,3,212
2019_Oct_17,206,001,1,recog,24,UNDER,HF,lure,-,-,-,liberal,no,m,1,0.946423124751,1,213
2019_Oct_17,206,001,1,recog,25,NAUGHT,LF,target,right,aqua,imageability,conservative,no,z,1,0.933320355576,1,214
2019_Oct_17,206,001,1,recog,26,ROUND,HF,lure,-,-,-,liberal,no,m,1,0.720106798879,1,215
2019_Oct_17,206,001,1,recog,27,NESTING,LF,lure,-,-,-,liberal,no,m,1,1.82627805249,1,216
2019_Oct_17,206,001,1,recog,28,TRIED,HF,target,right,aqua,imageability,liberal,no,z,1,1.91957969663,3,219
2019_Oct_17,206,001,1,recog,29,ROMANCES,LF,target,left,yellow,pleasantness,liberal,yes,z,1,1.13327460348,3,222
2019_Oct_17,206,001,1,recog,30,CINDER,LF,lure,-,-,-,liberal,no,m,1,0.733425130804,1,223
2019_Oct_17,206,001,1,recog,31,THEORY,HF,target,right,aqua,imageability,conservative,no,z,1,1.15990393527,1,224
2019_Oct_17,206,001,1,recog,32,AVAILABLE,HF,lure,-,-,-,conservative,no,m,1,2.29288122346,3,227
2019_Oct_17,206,001,1,recog,33,CLASS,HF,lure,-,-,-,liberal,no,m,1,1.46651628599,1,228
2019_Oct_17,206,001,1,recog,34,BEQUEST,LF,target,left,yellow,pleasantness,conservative,no,z,1,0.98661934551,1,229
2019_Oct_17,206,001,1,recog,35,CORNER,HF,lure,-,-,-,liberal,no,m,1,2.27943128094,1,230
2019_Oct_17,206,001,1,recog,36,ORBITAL,LF,target,right,aqua,imageability,liberal,no,z,1,1.09325178609,3,233
2019_Oct_17,206,001,1,recog,37,VOICE,HF,target,left,yellow,pleasantness,liberal,no,z,1,0.706835758781,3,236
2019_Oct_17,206,001,1,recog,38,YOUNG,HF,target,left,yellow,pleasantness,liberal,no,z,1,0.653482878159,3,239
2019_Oct_17,206,001,1,recog,39,POACHED,LF,lure,-,-,-,conservative,no,m,1,1.11965492363,3,242
2019_Oct_17,206,001,1,recog,40,AMONG,HF,target,right,aqua,imageability,liberal,no,z,1,0.706851522723,3,245
2019_Oct_17,206,001,1,recog,41,ESTRANGED,LF,lure,-,-,-,liberal,no,m,1,1.13203181824,1,246
2019_Oct_17,206,001,1,recog,42,EASILY,HF,target,right,aqua,imageability,conservative,no,z,1,1.70749491155,1,247
2019_Oct_17,206,001,1,recog,43,TRUTH,HF,lure,-,-,-,conservative,no,m,1,1.95936972091,3,250
2019_Oct_17,206,001,1,recog,44,BAUXITE,LF,lure,-,-,-,conservative,no,m,1,0.78685463152,3,253
2019_Oct_17,206,001,1,recog,45,SELECTS,LF,lure,-,-,-,conservative,no,m,1,1.10657598367,3,256
2019_Oct_17,206,001,1,recog,46,IDOLATRY,LF,lure,-,-,-,liberal,no,m,1,0.973371034818,1,257
2019_Oct_17,206,001,1,recog,47,WAGGED,LF,lure,-,-,-,liberal,no,m,1,0.920005689683,1,258
2019_Oct_17,206,001,1,recog,48,KRONOR,LF,target,left,yellow,pleasantness,liberal,no,z,1,0.826729707773,3,261
2019_Oct_17,206,001,1,recog,49,OPENED,HF,lure,-,-,-,conservative,no,m,1,1.26650521457,3,264
2019_Oct_17,206,001,1,recog,50,FECKLESS,LF,lure,-,-,-,conservative,no,m,1,0.880023931865,3,267
2019_Oct_17,206,001,1,recog,51,VOWEL,LF,lure,-,-,-,conservative,no,m,1,0.760083424251,3,270
2019_Oct_17,206,001,1,recog,52,ADOPTIVE,LF,target,right,aqua,imageability,conservative,no,z,1,0.613582139673,1,271
2019_Oct_17,206,001,1,recog,53,NEBULOUS,LF,lure,-,-,-,liberal,no,m,1,0.666859866615,1,272
2019_Oct_17,206,001,1,recog,54,ELLIPSE,LF,lure,-,-,-,liberal,no,m,1,1.02661356784,1,273
2019_Oct_17,206,001,1,recog,55,KOSHER,LF,target,right,aqua,imageability,conservative,no,z,1,0.760046030713,1,274
2019_Oct_17,206,001,1,recog,56,MOCCASINS,LF,target,left,yellow,pleasantness,liberal,no,z,1,0.573503598578,3,277
2019_Oct_17,206,001,1,recog,57,ESCALATED,LF,target,left,yellow,pleasantness,conservative,no,z,1,0.746712668051,1,278
2019_Oct_17,206,001,1,recog,58,NIBBLE,LF,lure,-,-,-,conservative,no,m,1,0.586762174163,3,281
2019_Oct_17,206,001,1,recog,59,UGLIEST,LF,target,left,yellow,pleasantness,conservative,no,z,1,0.613528982192,1,282
2019_Oct_17,206,001,1,recog,60,DAUGHTER,HF,lure,-,-,-,conservative,no,m,1,0.973127243612,3,285
2019_Oct_17,206,001,1,recog,61,THYROID,LF,target,right,aqua,imageability,liberal,no,z,1,0.600140262429,3,288
2019_Oct_17,206,001,1,recog,62,ASKED,HF,target,right,aqua,imageability,conservative,no,z,1,3.02584223446,1,289
2019_Oct_17,206,001,1,recog,63,BUILDING,HF,lure,-,-,-,conservative,no,m,1,2.15927117794,3,292
2019_Oct_17,206,001,1,recog,64,CUCKOO,LF,lure,-,-,-,conservative,no,m,1,0.893528864879,3,295
2019_Oct_17,206,001,1,recog,65,UNVEILED,LF,target,left,yellow,pleasantness,liberal,no,z,1,0.786751615987,3,298
2019_Oct_17,206,001,1,recog,66,QUALITY,HF,lure,-,-,-,conservative,no,m,1,0.706788466953,3,301
2019_Oct_17,206,001,1,recog,67,PACIFISM,LF,target,right,aqua,imageability,conservative,no,z,1,0.733401301588,1,302
2019_Oct_17,206,001,1,recog,68,CALLED,HF,target,left,yellow,pleasantness,liberal,no,z,1,1.65309537845,3,305
2019_Oct_17,206,001,1,recog,69,ENMESHED,LF,lure,-,-,-,liberal,no,m,1,0.813392679078,1,306
2019_Oct_17,206,001,1,recog,70,WHETHER,HF,lure,-,-,-,liberal,no,m,1,0.86667260564,1,307
2019_Oct_17,206,001,1,recog,71,CUSTODIAN,LF,lure,-,-,-,liberal,no,m,1,0.799552304029,1,308
2019_Oct_17,206,001,1,recog,72,EXACTLY,HF,target,left,yellow,pleasantness,liberal,no,z,1,0.599897571033,3,311
2019_Oct_17,206,001,1,recog,73,SUDDENLY,HF,lure,-,-,-,conservative,no,m,1,0.853431993618,3,314
2019_Oct_17,206,001,1,recog,74,LENGTHEN,LF,lure,-,-,-,conservative,no,m,1,0.866664906971,3,317
2019_Oct_17,206,001,1,recog,75,PEGGED,LF,target,right,aqua,imageability,liberal,no,z,1,0.586815698247,3,320
2019_Oct_17,206,001,1,recog,76,MEMBERS,HF,target,left,yellow,pleasantness,conservative,no,z,1,0.71983954506,1,321
2019_Oct_17,206,001,1,recog,77,LEVEL,HF,lure,-,-,-,liberal,no,m,1,0.919724138336,1,322
2019_Oct_17,206,001,1,recog,78,NOTHING,HF,lure,-,-,-,liberal,no,m,1,1.34647826189,1,323
2019_Oct_17,206,001,1,recog,79,TALKING,HF,lure,-,-,-,liberal,yes,z,0,1.37316295078,-1,322
2019_Oct_17,206,001,1,recog,80,RIVER,HF,lure,-,-,-,conservative,no,m,1,1.02663703045,3,325
2019_Oct_17,206,001,1,recog,81,FAMILY,HF,target,right,aqua,imageability,conservative,no,m,0,0.986680201661,-1,324
2019_Oct_17,206,001,1,recog,82,WINDOW,HF,target,right,aqua,imageability,conservative,no,z,1,0.77340542221,1,325
2019_Oct_17,206,001,1,recog,83,KNUCKLE,LF,target,right,aqua,imageability,liberal,no,z,1,0.613329183384,3,328
2019_Oct_17,206,001,1,recog,84,ROTARY,LF,lure,-,-,-,conservative,no,m,1,0.880033830154,3,331
2019_Oct_17,206,001,1,recog,85,INFECT,LF,target,left,yellow,pleasantness,liberal,no,z,1,0.546817809882,3,334
2019_Oct_17,206,001,1,recog,86,MERELY,HF,target,left,yellow,pleasantness,conservative,no,z,1,0.600341161047,1,335
2019_Oct_17,206,001,1,recog,87,ENSCONCED,LF,lure,-,-,-,liberal,no,m,1,0.733466556979,1,336
2019_Oct_17,206,001,1,recog,88,LIARS,LF,target,left,yellow,pleasantness,conservative,no,z,1,0.573264573215,1,337
2019_Oct_17,206,001,1,recog,89,STICKER,LF,target,right,aqua,imageability,conservative,no,z,1,0.600137329603,1,338
2019_Oct_17,206,001,1,recog,90,FUTURE,HF,lure,-,-,-,conservative,no,m,1,1.0932748821,3,341
2019_Oct_17,206,001,1,recog,91,ANIMAL,HF,lure,-,-,-,conservative,no,m,1,0.840236840407,3,344
2019_Oct_17,206,001,1,recog,92,FINAL,HF,lure,-,-,-,liberal,no,m,1,0.680155469135,1,345
2019_Oct_17,206,001,1,recog,93,UNWARY,LF,lure,-,-,-,conservative,yes,m,1,0.906653996856,3,348
2019_Oct_17,206,001,1,recog,94,WHITE,HF,lure,-,-,-,conservative,no,m,1,1.81299124845,3,351
2019_Oct_17,206,001,1,recog,95,URCHIN,LF,lure,-,-,-,conservative,no,m,1,0.760051163159,3,354
2019_Oct_17,206,001,2,source,0,INDEED,HF,target,right,aqua,imageability,conservative,no,2,0,1.62638649375,-,-
2019_Oct_17,206,001,2,source,1,GETTING,HF,target,right,aqua,imageability,conservative,yes,2,0,3.73219517667,-,-
2019_Oct_17,206,001,2,source,2,RAMBLE,LF,target,right,aqua,imageability,liberal,no,9,1,2.18616593053,-,-
2019_Oct_17,206,001,2,source,3,PIGLETS,LF,target,right,aqua,imageability,conservative,no,9,1,2.90599851012,-,-
2019_Oct_17,206,001,2,source,4,NIGHT,HF,target,left,yellow,pleasantness,conservative,no,1,1,1.79969784555,-,-
2019_Oct_17,206,001,2,source,5,ADJOURNED,LF,target,left,yellow,pleasantness,conservative,no,1,1,0.719898201591,-,-
2019_Oct_17,206,001,2,source,6,LEGALITY,LF,target,left,yellow,pleasantness,conservative,no,1,1,1.42651143216,-,-
2019_Oct_17,206,001,2,source,7,NORTH,HF,target,left,yellow,pleasantness,conservative,no,1,1,1.14658487013,-,-
2019_Oct_17,206,001,2,source,8,WEBBED,LF,target,right,aqua,imageability,conservative,no,9,1,0.986417347083,-,-
2019_Oct_17,206,001,2,source,9,COMES,HF,target,right,aqua,imageability,liberal,no,9,1,1.02666709193,-,-
2019_Oct_17,206,001,2,source,10,JANGLING,LF,target,right,aqua,imageability,conservative,no,9,1,1.91936926632,-,-
2019_Oct_17,206,001,2,source,11,ENVIRONS,LF,target,right,aqua,imageability,conservative,no,3,0,1.17299717276,-,-
2019_Oct_17,206,001,2,source,12,FILAMENTS,LF,target,right,aqua,imageability,conservative,no,9,1,1.11998816605,-,-
2019_Oct_17,206,001,2,source,13,OUTSIDE,HF,target,left,yellow,pleasantness,liberal,no,1,1,0.933105892635,-,-
2019_Oct_17,206,001,2,source,14,AMPLIFY,LF,target,right,aqua,imageability,liberal,no,9,1,1.33293996797,-,-
2019_Oct_17,206,001,2,source,15,SORRY,HF,target,right,aqua,imageability,conservative,no,9,1,1.11995663816,-,-
2019_Oct_17,206,001,2,source,16,ELATION,LF,target,left,yellow,pleasantness,liberal,yes,8,0,1.13327240386,-,-
2019_Oct_17,206,001,2,source,17,HOODLUMS,LF,target,left,yellow,pleasantness,liberal,no,1,1,1.06661915488,-,-
2019_Oct_17,206,001,2,source,18,INVOLVED,HF,target,right,aqua,imageability,conservative,no,9,1,1.2531718519,-,-
2019_Oct_17,206,001,2,source,19,BEGAN,HF,target,right,aqua,imageability,liberal,no,8,1,1.25318504962,-,-
2019_Oct_17,206,001,2,source,20,SECOND,HF,target,left,yellow,pleasantness,liberal,no,1,1,1.10636335375,-,-
2019_Oct_17,206,001,2,source,21,YEARN,LF,target,left,yellow,pleasantness,liberal,no,1,1,0.679862186481,-,-
2019_Oct_17,206,001,2,source,22,TUCKER,LF,target,left,yellow,pleasantness,conservative,yes,8,0,0.839852273527,-,-
2019_Oct_17,206,001,2,source,23,PAWNS,LF,target,right,aqua,imageability,liberal,no,9,1,2.66573402783,-,-
2019_Oct_17,206,001,2,source,24,MOTHER,HF,target,right,aqua,imageability,liberal,no,9,1,0.706784067713,-,-
2019_Oct_17,206,001,2,source,25,JUMBO,LF,target,right,aqua,imageability,liberal,no,9,1,0.653194727951,-,-
2019_Oct_17,206,001,2,source,26,VALUE,HF,target,right,aqua,imageability,liberal,no,1,0,1.26651327984,-,-
2019_Oct_17,206,001,2,source,27,VAGABOND,LF,target,left,yellow,pleasantness,liberal,no,1,1,1.43954344689,-,-
2019_Oct_17,206,001,2,source,28,LANGUAGE,HF,target,left,yellow,pleasantness,liberal,no,1,1,0.919852082894,-,-
2019_Oct_17,206,001,2,source,29,RATHER,HF,target,left,yellow,pleasantness,liberal,no,8,0,2.58586179641,-,-
2019_Oct_17,206,001,2,source,30,JOSTLED,LF,target,right,aqua,imageability,liberal,no,8,1,0.786701757936,-,-
2019_Oct_17,206,001,2,source,31,SWAGGER,LF,target,left,yellow,pleasantness,liberal,no,1,1,1.26651144682,-,-
2019_Oct_17,206,001,2,source,32,DONATE,LF,target,left,yellow,pleasantness,liberal,no,1,1,1.99955531018,-,-
2019_Oct_17,206,001,2,source,33,ALONE,HF,target,right,aqua,imageability,conservative,no,1,0,2.67930604925,-,-
2019_Oct_17,206,001,2,source,34,ANAEMIC,LF,target,right,aqua,imageability,conservative,no,9,1,1.18665571256,-,-
2019_Oct_17,206,001,2,source,35,WICKEDLY,LF,target,right,aqua,imageability,liberal,no,9,1,1.27974142735,-,-
2019_Oct_17,206,001,2,source,36,MOISTENED,LF,target,left,yellow,pleasantness,conservative,no,1,1,1.10661484362,-,-
2019_Oct_17,206,001,2,source,37,GENERAL,HF,target,left,yellow,pleasantness,conservative,no,1,1,0.893368292625,-,-
2019_Oct_17,206,001,2,source,38,YARDSTICK,LF,target,left,yellow,pleasantness,conservative,no,1,1,0.666794977828,-,-
2019_Oct_17,206,001,2,source,39,SUPPORT,HF,target,left,yellow,pleasantness,conservative,no,9,0,1.31997430844,-,-
2019_Oct_17,206,001,2,source,40,ENTIRELY,HF,target,right,aqua,imageability,liberal,no,8,1,0.946680846883,-,-
2019_Oct_17,206,001,2,source,41,PRACTICE,HF,target,left,yellow,pleasantness,liberal,no,7,0,1.61309272424,-,-
2019_Oct_17,206,001,2,source,42,HIVES,LF,target,left,yellow,pleasantness,conservative,no,1,1,1.29299377068,-,-
2019_Oct_17,206,001,2,source,43,RESEARCH,HF,target,right,aqua,imageability,conservative,no,9,1,1.2396896483,-,-
2019_Oct_17,206,001,2,source,44,POLICE,HF,target,left,yellow,pleasantness,conservative,no,1,1,0.880036762981,-,-
2019_Oct_17,206,001,2,source,45,FOLLOWED,HF,target,left,yellow,pleasantness,conservative,no,1,1,0.986762320804,-,-
2019_Oct_17,206,001,2,source,46,HOTEL,HF,target,left,yellow,pleasantness,liberal,yes,2,1,1.03966611236,-,-
2019_Oct_17,206,001,2,source,47,POSITION,HF,target,right,aqua,imageability,liberal,no,1,0,2.67904099505,-,-
2019_Oct_17,206,001,2,recog,0,TWINE,LF,lure,-,-,-,liberal,no,m,1,1.05324619906,1,355
2019_Oct_17,206,001,2,recog,1,NINETIES,LF,lure,-,-,-,liberal,no,m,1,0.933434002604,1,356
2019_Oct_17,206,001,2,recog,2,MARKET,HF,lure,-,-,-,conservative,yes,m,1,1.38646111952,3,359
2019_Oct_17,206,001,2,recog,3,ROLLERS,LF,lure,-,-,-,liberal,no,m,1,1.39978348408,1,360
2019_Oct_17,206,001,2,recog,4,FREEDOM,HF,lure,-,-,-,liberal,no,z,0,1.23976956782,-1,359
2019_Oct_17,206,001,2,recog,5,COMES,HF,target,right,aqua,imageability,liberal,no,z,1,0.720223745337,3,362
2019_Oct_17,206,001,2,recog,6,ALTHOUGH,HF,lure,-,-,-,conservative,yes,m,1,1.04074575913,3,365
2019_Oct_17,206,001,2,recog,7,REQUIRED,HF,lure,-,-,-,conservative,no,m,1,1.1866491137,3,368
2019_Oct_17,206,001,2,recog,8,ENFORCING,LF,lure,-,-,-,liberal,no,m,1,1.34622897163,1,369
2019_Oct_17,206,001,2,recog,9,BEYOND,HF,lure,-,-,-,conservative,no,m,1,1.10647736738,3,372
2019_Oct_17,206,001,2,recog,10,RECENT,HF,lure,-,-,-,conservative,no,m,1,1.55962876282,3,375
2019_Oct_17,206,001,2,recog,11,INUNDATED,LF,lure,-,-,-,conservative,no,m,1,0.600130730743,3,378
2019_Oct_17,206,001,2,recog,12,UNPACK,LF,lure,-,-,-,liberal,no,m,1,0.693434941109,1,379
2019_Oct_17,206,001,2,recog,13,GETTING,HF,target,right,aqua,imageability,conservative,no,z,1,2.23943852502,1,380
2019_Oct_17,206,001,2,recog,14,INDEED,HF,target,right,aqua,imageability,conservative,no,z,1,0.600138796016,1,381
2019_Oct_17,206,001,2,recog,15,HIVES,LF,target,left,yellow,pleasantness,conservative,no,z,1,0.600180588794,1,382
2019_Oct_17,206,001,2,recog,16,HEALTH,HF,lure,-,-,-,conservative,no,m,1,1.54648420086,3,385
2019_Oct_17,206,001,2,recog,17,ADENOIDS,LF,lure,-,-,-,conservative,no,m,1,0.946662150114,3,388
2019_Oct_17,206,001,2,recog,18,APPEARED,HF,lure,-,-,-,conservative,no,m,1,1.42622328195,3,391
2019_Oct_17,206,001,2,recog,19,SUING,LF,lure,-,-,-,conservative,no,m,1,0.599903070083,3,394
2019_Oct_17,206,001,2,recog,20,AMPLIFY,LF,target,right,aqua,imageability,liberal,no,z,1,0.720073437977,3,397
2019_Oct_17,206,001,2,recog,21,JOSTLED,LF,target,right,aqua,imageability,liberal,no,z,1,0.520174913775,3,400
2019_Oct_17,206,001,2,recog,22,TUCKER,LF,target,left,yellow,pleasantness,conservative,no,z,1,0.573496266511,1,401
2019_Oct_17,206,001,2,recog,23,LOUDEST,LF,lure,-,-,-,liberal,no,m,1,0.720229244387,1,402
2019_Oct_17,206,001,2,recog,24,ADJOURNED,LF,target,left,yellow,pleasantness,conservative,no,z,1,0.653545200722,1,403
2019_Oct_17,206,001,2,recog,25,NORTH,HF,target,left,yellow,pleasantness,conservative,no,z,1,1.06658982661,1,404
2019_Oct_17,206,001,2,recog,26,OUTSIDE,HF,target,left,yellow,pleasantness,liberal,no,z,1,0.600114233594,3,407
2019_Oct_17,206,001,2,recog,27,AREAS,HF,lure,-,-,-,liberal,no,m,1,0.680130906713,1,408
2019_Oct_17,206,001,2,recog,28,VEGAN,LF,lure,-,-,-,liberal,no,m,1,0.626916235541,1,409
2019_Oct_17,206,001,2,recog,29,INVOLVED,HF,target,right,aqua,imageability,conservative,no,z,1,0.720008182586,1,410
2019_Oct_17,206,001,2,recog,30,BEGAN,HF,target,right,aqua,imageability,liberal,no,z,1,0.813136789963,3,413
2019_Oct_17,206,001,2,recog,31,HITCHING,LF,lure,-,-,-,conservative,no,m,1,0.706790299969,3,416
2019_Oct_17,206,001,2,recog,32,RAGES,LF,lure,-,-,-,conservative,no,m,1,1.46634398243,3,419
2019_Oct_17,206,001,2,recog,33,FILAMENTS,LF,target,right,aqua,imageability,conservative,no,z,1,0.706792132986,1,420
2019_Oct_17,206,001,2,recog,34,YEARN,LF,target,left,yellow,pleasantness,liberal,no,z,1,0.600163358438,3,423
2019_Oct_17,206,001,2,recog,35,SECOND,HF,target,left,yellow,pleasantness,liberal,no,z,1,0.600000219962,3,426
2019_Oct_17,206,001,2,recog,36,ELATION,LF,target,left,yellow,pleasantness,liberal,no,z,1,0.600168490885,3,429
2019_Oct_17,206,001,2,recog,37,NIGHT,HF,target,left,yellow,pleasantness,conservative,no,z,1,0.653546300533,1,430
2019_Oct_17,206,001,2,recog,38,TUMBLER,LF,lure,-,-,-,conservative,no,m,1,0.840056838178,3,433
2019_Oct_17,206,001,2,recog,39,OFFER,HF,lure,-,-,-,liberal,no,m,1,0.707080283194,1,434
2019_Oct_17,206,001,2,recog,40,CLOSE,HF,lure,-,-,-,liberal,no,m,1,0.813376915136,1,435
2019_Oct_17,206,001,2,recog,41,SORRY,HF,target,right,aqua,imageability,conservative,no,m,0,0.706532211234,-1,434
2019_Oct_17,206,001,2,recog,42,USUAL,HF,lure,-,-,-,conservative,no,m,1,0.99969388623,3,437
2019_Oct_17,206,001,2,recog,43,JADED,LF,lure,-,-,-,conservative,no,m,1,0.839881968396,3,440
2019_Oct_17,206,001,2,recog,44,WHOLE,HF,lure,-,-,-,liberal,no,m,1,0.706929975834,1,441
2019_Oct_17,206,001,2,recog,45,EMOTIVE,LF,lure,-,-,-,conservative,no,m,1,0.826661519556,3,444
2019_Oct_17,206,001,2,recog,46,PRACTICE,HF,target,left,yellow,pleasantness,liberal,no,z,1,0.786676462307,3,447
2019_Oct_17,206,001,2,recog,47,LEGALITY,LF,target,left,yellow,pleasantness,conservative,no,z,1,0.586755575303,1,448
2019_Oct_17,206,001,2,recog,48,ZOOLOGY,LF,lure,-,-,-,liberal,no,m,1,0.760075725581,1,449
2019_Oct_17,206,001,2,recog,49,EAVES,LF,lure,-,-,-,conservative,no,m,1,0.66682173987,3,452
2019_Oct_17,206,001,2,recog,50,BLUECOATS,LF,lure,-,-,-,liberal,no,m,1,0.613417534783,1,453
2019_Oct_17,206,001,2,recog,51,JANGLING,LF,target,right,aqua,imageability,conservative,no,z,1,0.639961447995,1,454
2019_Oct_17,206,001,2,recog,52,PAWNS,LF,target,right,aqua,imageability,liberal,no,z,1,0.547012476244,3,457
2019_Oct_17,206,001,2,recog,53,VALUE,HF,target,right,aqua,imageability,liberal,no,z,1,0.53350864304,3,460
2019_Oct_17,206,001,2,recog,54,VAGABOND,LF,target,left,yellow,pleasantness,liberal,no,z,1,0.573543924943,3,463
2019_Oct_17,206,001,2,recog,55,OBVIOUSLY,HF,lure,-,-,-,liberal,no,m,1,0.813148154666,1,464
2019_Oct_17,206,001,2,recog,56,POWER,HF,lure,-,-,-,liberal,no,m,1,0.800082779029,1,465
2019_Oct_17,206,001,2,recog,57,LEECH,LF,lure,-,-,-,liberal,no,m,1,0.733465823772,1,466
2019_Oct_17,206,001,2,recog,58,PERHAPS,HF,lure,-,-,-,liberal,no,m,1,0.626812853406,1,467
2019_Oct_17,206,001,2,recog,59,WICKEDLY,LF,target,right,aqua,imageability,liberal,no,z,1,0.573493700289,3,470
2019_Oct_17,206,001,2,recog,60,SUPPORT,HF,target,left,yellow,pleasantness,conservative,yes,m,0,0.90671192018,-1,469
2019_Oct_17,206,001,2,recog,61,ARRIVED,HF,lure,-,-,-,liberal,no,m,1,1.6263707298,1,470
2019_Oct_17,206,001,2,recog,62,DULLED,LF,lure,-,-,-,conservative,no,m,1,0.706886350039,3,473
2019_Oct_17,206,001,2,recog,63,FOLLOWED,HF,target,left,yellow,pleasantness,conservative,no,z,1,0.760378539921,1,474
2019_Oct_17,206,001,2,recog,64,MILES,HF,lure,-,-,-,conservative,no,m,1,0.693498363483,3,477
2019_Oct_17,206,001,2,recog,65,FRIEND,HF,lure,-,-,-,liberal,no,m,1,1.39978458389,1,478
2019_Oct_17,206,001,2,recog,66,GENERAL,HF,target,left,yellow,pleasantness,conservative,no,z,1,0.653441818587,1,479
2019_Oct_17,206,001,2,recog,67,ALONE,HF,target,right,aqua,imageability,conservative,no,z,1,1.05336241231,1,480
2019_Oct_17,206,001,2,recog,68,DONATE,LF,target,left,yellow,pleasantness,liberal,no,m,0,1.27986313965,-3,477
2019_Oct_17,206,001,2,recog,69,LANGUAGE,HF,target,left,yellow,pleasantness,liberal,no,z,1,0.560149706131,3,480
2019_Oct_17,206,001,2,recog,70,WEBBED,LF,target,right,aqua,imageability,conservative,no,z,1,0.826461354145,1,481
2019_Oct_17,206,001,2,recog,71,POLICE,HF,target,left,yellow,pleasantness,conservative,yes,m,0,1.04005214566,-1,480
2019_Oct_17,206,001,2,recog,72,MAKES,HF,lure,-,-,-,conservative,no,m,1,1.19989669119,3,483
2019_Oct_17,206,001,2,recog,73,KIDNAP,LF,lure,-,-,-,conservative,no,m,1,0.720092501349,3,486
2019_Oct_17,206,001,2,recog,74,PIGLETS,LF,target,right,aqua,imageability,conservative,no,z,1,0.666790578588,1,487
2019_Oct_17,206,001,2,recog,75,ROBBERIES,LF,lure,-,-,-,liberal,no,m,1,0.760226766148,1,488
2019_Oct_17,206,001,2,recog,76,INNATELY,LF,lure,-,-,-,liberal,no,m,1,0.680093879777,1,489
2019_Oct_17,206,001,2,recog,77,ENVIRONS,LF,target,right,aqua,imageability,conservative,no,z,1,0.866447511203,1,490
2019_Oct_17,206,001,2,recog,78,SWAGGER,LF,target,left,yellow,pleasantness,liberal,no,z,1,0.64014878229,3,493
2019_Oct_17,206,001,2,recog,79,ENTIRELY,HF,target,right,aqua,imageability,liberal,no,z,1,0.666856200582,3,496
2019_Oct_17,206,001,2,recog,80,JUMBO,LF,target,right,aqua,imageability,liberal,no,z,1,0.53350314399,3,499
2019_Oct_17,206,001,2,recog,81,ANAEMIC,LF,target,right,aqua,imageability,conservative,no,z,1,0.82657133514,1,500
2019_Oct_17,206,001,2,recog,82,FRONT,HF,lure,-,-,-,liberal,no,m,1,1.70635220901,1,501
2019_Oct_17,206,001,2,recog,83,FATHER,HF,lure,-,-,-,conservative,no,m,1,0.746722932944,3,504
2019_Oct_17,206,001,2,recog,84,HOTEL,HF,target,left,yellow,pleasantness,liberal,no,z,1,1.15988157246,3,507
2019_Oct_17,206,001,2,recog,85,RAMBLE,LF,target,right,aqua,imageability,liberal,no,z,1,0.786728519979,3,510
2019_Oct_17,206,001,2,recog,86,ORDER,HF,lure,-,-,-,conservative,no,m,1,1.30672233171,3,513
2019_Oct_17,206,001,2,recog,87,POSITION,HF,target,right,aqua,imageability,liberal,no,z,1,0.999957107412,3,516
2019_Oct_17,206,001,2,recog,88,MOTHER,HF,target,right,aqua,imageability,liberal,no,z,1,0.58690001701,3,519
2019_Oct_17,206,001,2,recog,89,RATHER,HF,target,left,yellow,pleasantness,liberal,no,z,1,0.733279589287,3,522
2019_Oct_17,206,001,2,recog,90,HUNDRED,HF,lure,-,-,-,liberal,no,m,1,0.933364347974,1,523
2019_Oct_17,206,001,2,recog,91,MOISTENED,LF,target,left,yellow,pleasantness,conservative,no,z,1,0.560359403228,1,524
2019_Oct_17,206,001,2,recog,92,RESEARCH,HF,target,right,aqua,imageability,conservative,no,z,1,0.653476645902,1,525
2019_Oct_17,206,001,2,recog,93,YARDSTICK,LF,target,left,yellow,pleasantness,conservative,no,z,1,0.559885385139,1,526
2019_Oct_17,206,001,2,recog,94,HOODLUMS,LF,target,left,yellow,pleasantness,liberal,no,z,1,0.573513496868,3,529
2019_Oct_17,206,001,2,recog,95,BAPTIZED,LF,lure,-,-,-,conservative,no,m,1,0.666757584289,3,532
2019_Oct_17,206,001,3,source,0,LABOUR,HF,target,right,aqua,imageability,liberal,no,9,1,1.42648540332,-,-
2019_Oct_17,206,001,3,source,1,VILLAGE,HF,target,left,yellow,pleasantness,liberal,no,2,1,2.22582544403,-,-
2019_Oct_17,206,001,3,source,2,TOPICAL,LF,target,left,yellow,pleasantness,conservative,no,1,1,1.426471839,-,-
2019_Oct_17,206,001,3,source,3,SMALL,HF,target,left,yellow,pleasantness,conservative,no,1,1,0.65321782396,-,-
2019_Oct_17,206,001,3,source,4,PICTURE,HF,target,right,aqua,imageability,liberal,no,9,1,0.999710383379,-,-
2019_Oct_17,206,001,3,source,5,SKATES,LF,target,right,aqua,imageability,conservative,no,9,1,1.38625362204,-,-
2019_Oct_17,206,001,3,source,6,GROUND,HF,target,left,yellow,pleasantness,conservative,no,1,1,0.853375170104,-,-
2019_Oct_17,206,001,3,source,7,AILMENT,LF,target,right,aqua,imageability,conservative,no,8,1,1.53286745384,-,-
2019_Oct_17,206,001,3,source,8,HUSBAND,HF,target,right,aqua,imageability,conservative,no,9,1,0.626897538772,-,-
2019_Oct_17,206,001,3,source,9,TETHER,LF,target,right,aqua,imageability,liberal,no,9,1,0.786731452805,-,-
2019_Oct_17,206,001,3,source,10,KICKER,LF,target,left,yellow,pleasantness,liberal,no,3,1,1.2267837451,-,-
2019_Oct_17,206,001,3,source,11,INTEREST,HF,target,left,yellow,pleasantness,liberal,no,8,0,1.25318175019,-,-
2019_Oct_17,206,001,3,source,12,ANNALS,LF,target,left,yellow,pleasantness,conservative,no,3,1,0.959975716196,-,-
2019_Oct_17,206,001,3,source,13,BOWER,LF,target,right,aqua,imageability,liberal,no,9,1,2.27946537505,-,-
2019_Oct_17,206,001,3,source,14,QUICKLY,HF,target,left,yellow,pleasantness,conservative,no,1,1,1.25339401351,-,-
2019_Oct_17,206,001,3,source,15,PECKED,LF,target,left,yellow,pleasantness,liberal,no,1,1,1.27974142735,-,-
2019_Oct_17,206,001,3,source,16,KIPPERS,LF,target,right,aqua,imageability,conservative,no,9,1,1.59976009479,-,-
2019_Oct_17,206,001,3,source,17,UNSAVOURY,LF,target,right,aqua,imageability,conservative,yes,2,0,0.893344830013,-,-
2019_Oct_17,206,001,3,source,18,VERBALLY,LF,target,left,yellow,pleasantness,liberal,no,8,0,2.98584874534,-,-
2019_Oct_17,206,001,3,source,19,CASES,HF,target,right,aqua,imageability,conservative,no,8,1,1.49312215516,-,-
2019_Oct_17,206,001,3,source,20,HARDLY,HF,target,right,aqua,imageability,liberal,no,1,0,0.853352807302,-,-
2019_Oct_17,206,001,3,source,21,PRIVATE,HF,target,right,aqua,imageability,conservative,yes,2,0,0.706527811994,-,-
2019_Oct_17,206,001,3,source,22,CHEEKBONE,LF,target,right,aqua,imageability,liberal,no,9,1,0.933301658807,-,-
2019_Oct_17,206,001,3,source,23,TAKEN,HF,target,left,yellow,pleasantness,conservative,no,9,0,1.06632147298,-,-
2019_Oct_17,206,001,3,source,24,UNJUSTLY,LF,target,right,aqua,imageability,liberal,no,1,0,0.999966272495,-,-
2019_Oct_17,206,001,3,source,25,NEITHER,HF,target,left,yellow,pleasantness,liberal,no,1,1,1.91971570646,-,-
2019_Oct_17,206,001,3,source,26,SINCE,HF,target,left,yellow,pleasantness,liberal,no,1,1,1.90602527217,-,-
2019_Oct_17,206,001,3,source,27,RUGGER,LF,target,left,yellow,pleasantness,conservative,no,1,1,0.999763174257,-,-
2019_Oct_17,206,001,3,source,28,OTHERS,HF,target,right,aqua,imageability,conservative,no,9,1,1.17318670667,-,-
2019_Oct_17,206,001,3,source,29,INORGANIC,LF,target,left,yellow,pleasantness,liberal,no,1,1,1.01328020518,-,-
2019_Oct_17,206,001,3,source,30,SOLEMNITY,LF,target,left,yellow,pleasantness,conservative,no,1,1,0.773543265057,-,-
2019_Oct_17,206,001,3,source,31,SLEEP,HF,target,right,aqua,imageability,liberal,no,9,1,2.22594019087,-,-
2019_Oct_17,206,001,3,source,32,TOWARDS,HF,target,left,yellow,pleasantness,conservative,no,8,0,1.97291901293,-,-
2019_Oct_17,206,001,3,source,33,VARIOUS,HF,target,left,yellow,pleasantness,conservative,no,2,1,1.71968997091,-,-
2019_Oct_17,206,001,3,source,34,CITES,LF,target,left,yellow,pleasantness,liberal,yes,2,1,0.760074625772,-,-
2019_Oct_17,206,001,3,source,35,IDEAS,HF,target,left,yellow,pleasantness,liberal,no,8,0,2.65265508787,-,-
2019_Oct_17,206,001,3,source,36,DUCHY,LF,target,right,aqua,imageability,conservative,no,2,0,1.39978934973,-,-
2019_Oct_17,206,001,3,source,37,KITCHEN,HF,target,left,yellow,pleasantness,liberal,no,8,0,1.55983516048,-,-
2019_Oct_17,206,001,3,source,38,DECIDED,HF,target,right,aqua,imageability,liberal,yes,8,1,0.520134954013,-,-
2019_Oct_17,206,001,3,source,39,SLOWLY,HF,target,right,aqua,imageability,conservative,no,1,0,1.34651345581,-,-
2019_Oct_17,206,001,3,source,40,TOUSLED,LF,target,right,aqua,imageability,liberal,no,9,1,1.06662428732,-,-
2019_Oct_17,206,001,3,source,41,TICKLE,LF,target,right,aqua,imageability,liberal,no,9,1,1.34623557049,-,-
2019_Oct_17,206,001,3,source,42,ORIGINALS,LF,target,left,yellow,pleasantness,conservative,no,1,1,0.919734403229,-,-
2019_Oct_17,206,001,3,source,43,DOTTY,LF,target,right,aqua,imageability,conservative,no,9,1,0.866753624974,-,-
2019_Oct_17,206,001,3,source,44,CHURCH,HF,target,right,aqua,imageability,conservative,no,9,1,0.653257417118,-,-
2019_Oct_17,206,001,3,source,45,TINGLING,LF,target,left,yellow,pleasantness,liberal,no,1,1,0.693448505431,-,-
2019_Oct_17,206,001,3,source,46,AFIELD,LF,target,left,yellow,pleasantness,conservative,no,2,1,1.78619511215,-,-
2019_Oct_17,206,001,3,source,47,TIMES,HF,target,right,aqua,imageability,liberal,no,2,0,2.39937032214,-,-
2019_Oct_17,206,001,3,recog,0,NEITHER,HF,target,left,yellow,pleasantness,liberal,no,z,1,0.879817167594,3,535
2019_Oct_17,206,001,3,recog,1,GUSHED,LF,lure,-,-,-,liberal,no,m,1,0.786740984491,1,536
2019_Oct_17,206,001,3,recog,2,PASSED,HF,lure,-,-,-,conservative,no,m,1,0.853474519603,3,539
2019_Oct_17,206,001,3,recog,3,TOUSLED,LF,target,right,aqua,imageability,liberal,no,z,1,0.6534542831,3,542
2019_Oct_17,206,001,3,recog,4,HUSBAND,HF,target,right,aqua,imageability,conservative,no,z,1,0.786717155276,1,543
2019_Oct_17,206,001,3,recog,5,SEEMED,HF,lure,-,-,-,conservative,no,m,1,0.706515714085,3,546
2019_Oct_17,206,001,3,recog,6,SAYING,HF,lure,-,-,-,liberal,no,m,1,0.693456937308,1,547
2019_Oct_17,206,001,3,recog,7,KNOWLEDGE,HF,lure,-,-,-,conservative,no,m,1,0.680144837639,3,550
2019_Oct_17,206,001,3,recog,8,TICKLE,LF,target,right,aqua,imageability,liberal,no,z,1,0.586619932076,3,553
2019_Oct_17,206,001,3,recog,9,TAKEN,HF,target,left,yellow,pleasantness,conservative,no,z,1,0.759848064921,1,554
2019_Oct_17,206,001,3,recog,10,PECKED,LF,target,left,yellow,pleasantness,liberal,no,z,1,0.600140629033,3,557
2019_Oct_17,206,001,3,recog,11,CHURCH,HF,target,right,aqua,imageability,conservative,no,z,1,0.82648298374,1,558
2019_Oct_17,206,001,3,recog,12,BAFFLING,LF,lure,-,-,-,liberal,no,m,1,0.653538601863,1,559
2019_Oct_17,206,001,3,recog,13,TOPICAL,LF,target,left,yellow,pleasantness,conservative,no,z,1,0.573457039957,1,560
2019_Oct_17,206,001,3,recog,14,LOCAL,HF,lure,-,-,-,liberal,no,m,1,0.840012112574,1,561
2019_Oct_17,206,001,3,recog,15,ARPEGGIO,LF,lure,-,-,-,liberal,no,m,1,0.746747128763,1,562
2019_Oct_17,206,001,3,recog,16,DOODLE,LF,lure,-,-,-,conservative,no,m,1,0.866671139227,3,565
2019_Oct_17,206,001,3,recog,17,GROUND,HF,target,left,yellow,pleasantness,conservative,no,z,1,0.586811665611,1,566
2019_Oct_17,206,001,3,recog,18,CITES,LF,target,left,yellow,pleasantness,liberal,yes,z,1,1.94626511872,3,569
2019_Oct_17,206,001,3,recog,19,DUCHY,LF,target,right,aqua,imageability,conservative,no,z,1,0.70677490263,1,570
2019_Oct_17,206,001,3,recog,20,WESTERN,HF,lure,-,-,-,liberal,no,m,1,0.653450250463,1,571
2019_Oct_17,206,001,3,recog,21,SLOWLY,HF,target,right,aqua,imageability,conservative,no,z,1,0.639857699256,1,572
2019_Oct_17,206,001,3,recog,22,CHEEKBONE,LF,target,right,aqua,imageability,liberal,no,z,1,0.573446775064,3,575
2019_Oct_17,206,001,3,recog,23,DOTTY,LF,target,right,aqua,imageability,conservative,no,z,1,0.546575851693,1,576
2019_Oct_17,206,001,3,recog,24,EITHER,HF,lure,-,-,-,conservative,no,m,1,0.599925432885,3,579
2019_Oct_17,206,001,3,recog,25,KICKER,LF,target,left,yellow,pleasantness,liberal,no,z,1,0.613466659628,3,582
2019_Oct_17,206,001,3,recog,26,ORIGINALS,LF,target,left,yellow,pleasantness,conservative,no,z,1,0.746646312851,1,583
2019_Oct_17,206,001,3,recog,27,FLICKS,LF,lure,-,-,-,liberal,no,m,1,1.01320798433,1,584
2019_Oct_17,206,001,3,recog,28,HARDLY,HF,target,right,aqua,imageability,liberal,no,z,1,0.626837782431,3,587
2019_Oct_17,206,001,3,recog,29,MAYBE,HF,lure,-,-,-,liberal,no,m,1,1.14657753807,1,588
2019_Oct_17,206,001,3,recog,30,INTEREST,HF,target,left,yellow,pleasantness,liberal,no,z,1,0.799874914948,3,591
2019_Oct_17,206,001,3,recog,31,BASIC,HF,lure,-,-,-,liberal,no,m,1,0.546830640998,1,592
2019_Oct_17,206,001,3,recog,32,TETHER,LF,target,right,aqua,imageability,liberal,no,z,1,0.746720733324,3,595
2019_Oct_17,206,001,3,recog,33,SLEEP,HF,target,right,aqua,imageability,liberal,no,z,1,0.60012486509,3,598
2019_Oct_17,206,001,3,recog,34,JOBLESS,LF,lure,-,-,-,liberal,no,m,1,0.600129630933,1,599
2019_Oct_17,206,001,3,recog,35,PRIVATE,HF,target,right,aqua,imageability,conservative,no,m,0,0.97308728385,-1,598
2019_Oct_17,206,001,3,recog,36,HOMESTEAD,LF,lure,-,-,-,liberal,no,m,1,0.706748507191,1,599
2019_Oct_17,206,001,3,recog,37,TOWARDS,HF,target,left,yellow,pleasantness,conservative,no,z,1,0.706961870322,1,600
2019_Oct_17,206,001,3,recog,38,VILLAGE,HF,target,left,yellow,pleasantness,liberal,no,z,1,0.546829541189,3,603
2019_Oct_17,206,001,3,recog,39,PAPER,HF,lure,-,-,-,liberal,no,m,1,0.680195062293,1,604
2019_Oct_17,206,001,3,recog,40,ALMOST,HF,lure,-,-,-,conservative,no,z,0,0.853413296849,-3,601
2019_Oct_17,206,001,3,recog,41,NEARLY,HF,lure,-,-,-,conservative,no,m,1,0.853435293048,3,604
2019_Oct_17,206,001,3,recog,42,POUNDS,HF,lure,-,-,-,liberal,no,m,1,0.853386534807,1,605
2019_Oct_17,206,001,3,recog,43,VARIOUS,HF,target,left,yellow,pleasantness,conservative,no,m,0,0.786739518078,-1,604
2019_Oct_17,206,001,3,recog,44,ELUDE,LF,lure,-,-,-,conservative,no,m,1,1.02658790561,3,607
2019_Oct_17,206,001,3,recog,45,AFIELD,LF,target,left,yellow,pleasantness,conservative,yes,m,0,0.893401286924,-1,606
2019_Oct_17,206,001,3,recog,46,TYRANTS,LF,lure,-,-,-,conservative,no,m,1,0.666515259496,3,609
2019_Oct_17,206,001,3,recog,47,WRITE,HF,lure,-,-,-,conservative,no,m,1,0.626845114498,3,612
2019_Oct_17,206,001,3,recog,48,QUICKLY,HF,target,left,yellow,pleasantness,conservative,no,z,1,1.37326193367,1,613
2019_Oct_17,206,001,3,recog,49,ANNALS,LF,target,left,yellow,pleasantness,conservative,no,m,0,0.853385434997,-1,612
2019_Oct_17,206,001,3,recog,50,ICEBOX,LF,lure,-,-,-,liberal,no,m,1,0.746751528003,1,613
2019_Oct_17,206,001,3,recog,51,DRINK,HF,lure,-,-,-,liberal,no,m,1,0.933357382511,1,614
2019_Oct_17,206,001,3,recog,52,PELTED,LF,lure,-,-,-,conservative,no,m,1,0.60012706471,3,617
2019_Oct_17,206,001,3,recog,53,UNJUSTLY,LF,target,right,aqua,imageability,liberal,no,z,1,0.626531668661,3,620
2019_Oct_17,206,001,3,recog,54,DEMEANOUR,LF,lure,-,-,-,conservative,no,m,1,0.653426421248,3,623
2019_Oct_17,206,001,3,recog,55,LABOUR,HF,target,right,aqua,imageability,liberal,no,z,1,1.35982115624,3,626
2019_Oct_17,206,001,3,recog,56,CAPITAL,HF,lure,-,-,-,liberal,yes,z,0,0.706749240398,-1,625
2019_Oct_17,206,001,3,recog,57,REPORT,HF,lure,-,-,-,conservative,yes,m,1,0.879920549729,3,628
2019_Oct_17,206,001,3,recog,58,CASES,HF,target,right,aqua,imageability,conservative,no,z,1,1.62616286572,1,629
2019_Oct_17,206,001,3,recog,59,RIDDLES,LF,lure,-,-,-,conservative,no,m,1,0.853374070294,3,632
2019_Oct_17,206,001,3,recog,60,OTHERS,HF,target,right,aqua,imageability,conservative,no,z,1,1.46619367507,1,633
2019_Oct_17,206,001,3,recog,61,SMALL,HF,target,left,yellow,pleasantness,conservative,no,z,1,0.546859602661,1,634
2019_Oct_17,206,001,3,recog,62,EARLIER,HF,lure,-,-,-,liberal,no,m,1,1.61307586049,1,635
2019_Oct_17,206,001,3,recog,63,BECAME,HF,lure,-,-,-,liberal,no,m,1,0.640120920438,1,636
2019_Oct_17,206,001,3,recog,64,COOING,LF,lure,-,-,-,conservative,no,m,1,0.640113221769,3,639
2019_Oct_17,206,001,3,recog,65,SKATES,LF,target,right,aqua,imageability,conservative,no,z,1,0.706813395979,1,640
2019_Oct_17,206,001,3,recog,66,SADDER,LF,lure,-,-,-,liberal,no,m,1,0.66674878581,1,641
2019_Oct_17,206,001,3,recog,67,KILOWATT,LF,lure,-,-,-,liberal,no,m,1,0.600150160719,1,642
2019_Oct_17,206,001,3,recog,68,GARDEN,HF,lure,-,-,-,liberal,no,m,1,0.813480297271,1,643
2019_Oct_17,206,001,3,recog,69,PICTURE,HF,target,right,aqua,imageability,liberal,no,z,1,0.666497295934,3,646
2019_Oct_17,206,001,3,recog,70,UNHEEDED,LF,lure,-,-,-,conservative,no,m,1,0.813480297271,3,649
2019_Oct_17,206,001,3,recog,71,UNSAVOURY,LF,target,right,aqua,imageability,conservative,no,m,0,0.920001657047,-1,648
2019_Oct_17,206,001,3,recog,72,SOLEMNITY,LF,target,left,yellow,pleasantness,conservative,no,z,1,0.706766470754,1,649
2019_Oct_17,206,001,3,recog,73,TIMES,HF,target,right,aqua,imageability,liberal,no,z,1,0.640191308275,3,652
2019_Oct_17,206,001,3,recog,74,IDEAS,HF,target,left,yellow,pleasantness,liberal,no,z,1,0.667062964853,3,655
2019_Oct_17,206,001,3,recog,75,SINCE,HF,target,left,yellow,pleasantness,liberal,no,z,1,0.613457494545,3,658
2019_Oct_17,206,001,3,recog,76,ANOINTED,LF,lure,-,-,-,conservative,no,m,1,0.960038405363,3,661
2019_Oct_17,206,001,3,recog,77,PEEKED,LF,lure,-,-,-,conservative,no,z,0,0.840131625255,-3,658
2019_Oct_17,206,001,3,recog,78,TINGLING,LF,target,left,yellow,pleasantness,liberal,no,z,1,0.480368758945,3,661
2019_Oct_17,206,001,3,recog,79,MYSELF,HF,lure,-,-,-,conservative,no,m,1,2.13263121466,3,664
2019_Oct_17,206,001,3,recog,80,TERMS,HF,lure,-,-,-,conservative,no,m,1,1.2132025586,3,667
2019_Oct_17,206,001,3,recog,81,KIPPERS,LF,target,right,aqua,imageability,conservative,no,z,1,0.706758038878,1,668
2019_Oct_17,206,001,3,recog,82,DWELT,LF,lure,-,-,-,conservative,no,m,1,0.7733933243,3,671
2019_Oct_17,206,001,3,recog,83,RUGGER,LF,target,left,yellow,pleasantness,conservative,no,z,1,0.653280146524,1,672
2019_Oct_17,206,001,3,recog,84,AILMENT,LF,target,right,aqua,imageability,conservative,no,z,1,0.653451350273,1,673
2019_Oct_17,206,001,3,recog,85,INORGANIC,LF,target,left,yellow,pleasantness,liberal,no,z,1,0.640123853264,3,676
2019_Oct_17,206,001,3,recog,86,LUMBER,LF,lure,-,-,-,liberal,no,m,1,0.706767937167,1,677
2019_Oct_17,206,001,3,recog,87,DECIDED,HF,target,right,aqua,imageability,liberal,no,z,1,0.89334556322,3,680
2019_Oct_17,206,001,3,recog,88,HISTORY,HF,lure,-,-,-,conservative,no,m,1,0.586479156402,3,683
2019_Oct_17,206,001,3,recog,89,SHRED,LF,lure,-,-,-,conservative,no,m,1,1.22633648906,3,686
2019_Oct_17,206,001,3,recog,90,BOWER,LF,target,right,aqua,imageability,liberal,no,z,1,0.706704514793,3,689
2019_Oct_17,206,001,3,recog,91,WITHIN,HF,lure,-,-,-,conservative,no,m,1,0.893158228925,3,692
2019_Oct_17,206,001,3,recog,92,AGILITY,LF,lure,-,-,-,liberal,no,m,1,0.800095610145,1,693
2019_Oct_17,206,001,3,recog,93,VERBALLY,LF,target,left,yellow,pleasantness,liberal,no,z,1,0.826662619366,3,696
2019_Oct_17,206,001,3,recog,94,NOSTRIL,LF,lure,-,-,-,liberal,no,m,1,0.653453549894,1,697
2019_Oct_17,206,001,3,recog,95,KITCHEN,HF,target,left,yellow,pleasantness,liberal,no,z,1,0.640130818728,3,700
2019_Oct_17,206,001,4,source,0,PUBLIC,HF,target,left,yellow,pleasantness,conservative,no,8,0,1.38649668004,-,-
2019_Oct_17,206,001,4,source,1,ALIAS,LF,target,right,aqua,imageability,conservative,no,9,1,2.01293009901,-,-
2019_Oct_17,206,001,4,source,2,THOUSAND,HF,target,right,aqua,imageability,liberal,no,9,1,1.17329632106,-,-
2019_Oct_17,206,001,4,source,3,SOVIET,HF,target,left,yellow,pleasantness,liberal,no,1,1,0.920125202365,-,-
2019_Oct_17,206,001,4,source,4,UNION,HF,target,left,yellow,pleasantness,liberal,no,9,0,1.27961641562,-,-
2019_Oct_17,206,001,4,source,5,VOUCH,LF,target,left,yellow,pleasantness,liberal,yes,2,1,0.880009634335,-,-
2019_Oct_17,206,001,4,source,6,NAPPY,LF,target,right,aqua,imageability,liberal,no,9,1,0.959767852115,-,-
2019_Oct_17,206,001,4,source,7,USING,HF,target,right,aqua,imageability,liberal,no,8,1,1.70612711457,-,-
2019_Oct_17,206,001,4,source,8,GIBBERISH,LF,target,left,yellow,pleasantness,liberal,no,1,1,1.3466227036,-,-
2019_Oct_17,206,001,4,source,9,TWOFOLD,LF,target,left,yellow,pleasantness,liberal,no,1,1,0.626803321719,-,-
2019_Oct_17,206,001,4,source,10,BAYING,LF,target,right,aqua,imageability,conservative,no,8,1,0.946427157387,-,-
2019_Oct_17,206,001,4,source,11,SENSE,HF,target,left,yellow,pleasantness,liberal,no,2,1,1.81305797025,-,-
2019_Oct_17,206,001,4,source,12,MEETING,HF,target,left,yellow,pleasantness,conservative,no,1,1,0.760204769949,-,-
2019_Oct_17,206,001,4,source,13,DILATED,LF,target,left,yellow,pleasantness,liberal,no,1,1,0.666648336501,-,-
2019_Oct_17,206,001,4,source,14,PIECE,HF,target,left,yellow,pleasantness,conservative,no,1,1,0.64016307982,-,-
2019_Oct_17,206,001,4,source,15,BETTER,HF,target,right,aqua,imageability,conservative,no,8,1,1.14656324054,-,-
2019_Oct_17,206,001,4,source,16,FLECKED,LF,target,right,aqua,imageability,liberal,no,8,1,0.680103778067,-,-
2019_Oct_17,206,001,4,source,17,MIDDLE,HF,target,left,yellow,pleasantness,conservative,no,8,0,1.0800368363,-,-
2019_Oct_17,206,001,4,source,18,AUGMENT,LF,target,left,yellow,pleasantness,conservative,no,1,1,0.959985981089,-,-
2019_Oct_17,206,001,4,source,19,DROLL,LF,target,left,yellow,pleasantness,conservative,no,8,0,1.12009961345,-,-
2019_Oct_17,206,001,4,source,20,IMPORTANT,HF,target,right,aqua,imageability,conservative,yes,2,0,0.853105350062,-,-
2019_Oct_17,206,001,4,source,21,HURDLES,LF,target,right,aqua,imageability,conservative,no,8,1,1.27774307266,-,-
2019_Oct_17,206,001,4,source,22,UNLESS,HF,target,left,yellow,pleasantness,conservative,no,2,1,1.18636572934,-,-
2019_Oct_17,206,001,4,source,23,JUBILANT,LF,target,right,aqua,imageability,liberal,no,1,0,0.826741805683,-,-
2019_Oct_17,206,001,4,source,24,LAUNCHER,LF,target,left,yellow,pleasantness,conservative,no,1,1,1.13300551665,-,-
2019_Oct_17,206,001,4,source,25,OSTRACISM,LF,target,right,aqua,imageability,conservative,no,9,1,0.826451455855,-,-
2019_Oct_17,206,001,4,source,26,OATHS,LF,target,right,aqua,imageability,conservative,no,9,1,1.90629839164,-,-
2019_Oct_17,206,001,4,source,27,TAILED,LF,target,left,yellow,pleasantness,conservative,no,2,1,0.95973962366,-,-
2019_Oct_17,206,001,4,source,28,THING,HF,target,right,aqua,imageability,liberal,no,9,1,0.866735661411,-,-
2019_Oct_17,206,001,4,source,29,SOCIAL,HF,target,right,aqua,imageability,conservative,no,1,0,0.986606147791,-,-
2019_Oct_17,206,001,4,source,30,CLEAR,HF,target,left,yellow,pleasantness,liberal,no,1,1,0.706755472655,-,-
2019_Oct_17,206,001,4,source,31,OPTIC,LF,target,right,aqua,imageability,liberal,no,9,1,0.973309078858,-,-
2019_Oct_17,206,001,4,source,32,PROBABLY,HF,target,right,aqua,imageability,liberal,no,9,1,1.42651546479,-,-
2019_Oct_17,206,001,4,source,33,DEJECTED,LF,target,left,yellow,pleasantness,liberal,no,3,1,2.17276951209,-,-
2019_Oct_17,206,001,4,source,34,HIMSELF,HF,target,left,yellow,pleasantness,liberal,yes,2,1,0.680224390559,-,-
2019_Oct_17,206,001,4,source,35,MONEY,HF,target,right,aqua,imageability,liberal,no,8,1,1.01334876,-,-
2019_Oct_17,206,001,4,source,36,REACHED,HF,target,right,aqua,imageability,conservative,no,8,1,1.34627846308,-,-
2019_Oct_17,206,001,4,source,37,ITSELF,HF,target,left,yellow,pleasantness,liberal,no,8,0,1.09325398571,-,-
2019_Oct_17,206,001,4,source,38,WADDLED,LF,target,left,yellow,pleasantness,conservative,no,1,1,0.733279589287,-,-
2019_Oct_17,206,001,4,source,39,FESTERING,LF,target,left,yellow,pleasantness,liberal,no,1,1,0.693435307712,-,-
2019_Oct_17,206,001,4,source,40,WALKED,HF,target,right,aqua,imageability,liberal,no,9,1,2.30613723282,-,-
2019_Oct_17,206,001,4,source,41,EIGHT,HF,target,left,yellow,pleasantness,conservative,no,2,1,0.98662594437,-,-
2019_Oct_17,206,001,4,source,42,MYRIADS,LF,target,right,aqua,imageability,liberal,yes,2,0,0.813170150865,-,-
2019_Oct_17,206,001,4,source,43,RUFFLES,LF,target,right,aqua,imageability,conservative,no,9,1,1.1733230831,-,-
2019_Oct_17,206,001,4,source,44,TUSKS,LF,target,left,yellow,pleasantness,conservative,no,1,1,0.760069859928,-,-
2019_Oct_17,206,001,4,source,45,NEEDED,HF,target,right,aqua,imageability,conservative,no,8,1,2.55956497384,-,-
2019_Oct_17,206,001,4,source,46,ARDENTLY,LF,target,right,aqua,imageability,liberal,no,1,0,1.69303204406,-,-
2019_Oct_17,206,001,4,source,47,ACTION,HF,target,right,aqua,imageability,conservative,no,9,1,0.880028697708,-,-
2019_Oct_17,206,001,4,recog,0,INCLUDING,HF,lure,-,-,-,liberal,no,z,0,1.73309995366,-1,699
2019_Oct_17,206,001,4,recog,1,DANDELION,LF,lure,-,-,-,conservative,no,m,1,0.70677820206,3,702
2019_Oct_17,206,001,4,recog,2,DROLL,LF,target,left,yellow,pleasantness,conservative,no,z,1,0.680085814505,1,703
2019_Oct_17,206,001,4,recog,3,GIBBERISH,LF,target,left,yellow,pleasantness,liberal,no,z,1,0.613207104479,3,706
2019_Oct_17,206,001,4,recog,4,FESTERING,LF,target,left,yellow,pleasantness,liberal,no,z,1,0.599897571033,3,709
2019_Oct_17,206,001,4,recog,5,SOCIAL,HF,target,right,aqua,imageability,conservative,no,z,1,0.733412666291,1,710
2019_Oct_17,206,001,4,recog,6,GOBBLE,LF,lure,-,-,-,liberal,no,m,1,0.666756117876,1,711
2019_Oct_17,206,001,4,recog,7,POINT,HF,lure,-,-,-,conservative,no,m,1,0.77340322259,3,714
2019_Oct_17,206,001,4,recog,8,BETTER,HF,target,right,aqua,imageability,conservative,no,z,1,0.626805154736,1,715
2019_Oct_17,206,001,4,recog,9,ADVERSELY,LF,lure,-,-,-,conservative,no,m,1,0.800091944112,3,718
2019_Oct_17,206,001,4,recog,10,MYRIADS,LF,target,right,aqua,imageability,liberal,no,z,1,0.680102678257,3,721
2019_Oct_17,206,001,4,recog,11,TWOFOLD,LF,target,left,yellow,pleasantness,liberal,no,z,1,0.586900017011,3,724
2019_Oct_17,206,001,4,recog,12,AUGMENT,LF,target,left,yellow,pleasantness,conservative,no,z,1,0.680149236879,1,725
2019_Oct_17,206,001,4,recog,13,EIGHT,HF,target,left,yellow,pleasantness,conservative,no,z,1,0.559975569555,1,726
2019_Oct_17,206,001,4,recog,14,ARDENTLY,LF,target,right,aqua,imageability,liberal,no,z,1,0.890812334295,3,729
2019_Oct_17,206,001,4,recog,15,KRAALS,LF,lure,-,-,-,liberal,no,m,1,0.586795168462,1,730
2019_Oct_17,206,001,4,recog,16,WALKED,HF,target,right,aqua,imageability,liberal,no,z,1,1.12041709193,3,733
2019_Oct_17,206,001,4,recog,17,PARENTS,HF,lure,-,-,-,liberal,no,m,1,0.546854836818,1,734
2019_Oct_17,206,001,4,recog,18,BLACK,HF,lure,-,-,-,liberal,no,m,1,0.533504610403,1,735
2019_Oct_17,206,001,4,recog,19,REACHED,HF,target,right,aqua,imageability,conservative,no,z,1,0.666756484479,1,736
2019_Oct_17,206,001,4,recog,20,MOUTH,HF,lure,-,-,-,liberal,no,m,1,0.56016290385,1,737
2019_Oct_17,206,001,4,recog,21,USING,HF,target,right,aqua,imageability,liberal,no,z,1,0.746601953849,3,740
2019_Oct_17,206,001,4,recog,22,POETICAL,LF,lure,-,-,-,conservative,no,m,1,0.573513496868,3,743
2019_Oct_17,206,001,4,recog,23,OATHS,LF,target,right,aqua,imageability,conservative,no,z,1,0.586804700148,1,744
2019_Oct_17,206,001,4,recog,24,UNION,HF,target,left,yellow,pleasantness,liberal,no,z,1,0.586799934305,3,747
2019_Oct_17,206,001,4,recog,25,CANNOT,HF,lure,-,-,-,liberal,no,m,1,0.626767394594,1,748
2019_Oct_17,206,001,4,recog,26,HAUNCHES,LF,lure,-,-,-,conservative,no,m,1,0.640095258206,3,751
2019_Oct_17,206,001,4,recog,27,HERSELF,HF,lure,-,-,-,conservative,yes,m,1,0.906680758898,3,754
2019_Oct_17,206,001,4,recog,28,SICKENED,LF,lure,-,-,-,conservative,no,m,1,1.18659082377,3,757
2019_Oct_17,206,001,4,recog,29,WATCH,HF,lure,-,-,-,conservative,no,m,1,1.13333765925,3,760
2019_Oct_17,206,001,4,recog,30,ALIAS,LF,target,right,aqua,imageability,conservative,no,m,0,0.800070681119,-1,759
2019_Oct_17,206,001,4,recog,31,DERANGED,LF,lure,-,-,-,conservative,no,m,1,0.706751440018,3,762
2019_Oct_17,206,001,4,recog,32,TEETERED,LF,lure,-,-,-,liberal,no,z,0,0.760040531663,-1,761
2019_Oct_17,206,001,4,recog,33,TUSKS,LF,target,left,yellow,pleasantness,conservative,no,z,1,0.800072514136,1,762
2019_Oct_17,206,001,4,recog,34,BAIZE,LF,lure,-,-,-,liberal,no,m,1,0.70654724197,1,763
2019_Oct_17,206,001,4,recog,35,HOBBLE,LF,lure,-,-,-,liberal,no,m,1,1.61312571854,1,764
2019_Oct_17,206,001,4,recog,36,WADDLED,LF,target,left,yellow,pleasantness,conservative,no,z,1,0.706767937167,1,765
2019_Oct_17,206,001,4,recog,37,DICHOTOMY,LF,lure,-,-,-,liberal,no,m,1,0.680207526806,1,766
2019_Oct_17,206,001,4,recog,38,SEVEN,HF,lure,-,-,-,liberal,no,m,1,0.720067572323,1,767
2019_Oct_17,206,001,4,recog,39,PIPELINES,LF,lure,-,-,-,liberal,yes,z,0,0.97310268119,-1,766
2019_Oct_17,206,001,4,recog,40,LETTER,HF,lure,-,-,-,conservative,no,m,1,1.93294861981,3,769
2019_Oct_17,206,001,4,recog,41,OSTRACISM,LF,target,right,aqua,imageability,conservative,no,z,1,1.23988578107,1,770
2019_Oct_17,206,001,4,recog,42,DUSTER,LF,lure,-,-,-,conservative,no,m,1,0.86666710659,3,773
2019_Oct_17,206,001,4,recog,43,SENSE,HF,target,left,yellow,pleasantness,liberal,no,z,1,0.586836594637,3,776
2019_Oct_17,206,001,4,recog,44,BUNGALOWS,LF,lure,-,-,-,liberal,no,m,1,0.666761616926,1,777
2019_Oct_17,206,001,4,recog,45,FLECKED,LF,target,right,aqua,imageability,liberal,no,z,1,0.693475267474,3,780
2019_Oct_17,206,001,4,recog,46,MYTHIC,LF,lure,-,-,-,liberal,no,m,1,0.77348937437,1,781
2019_Oct_17,206,001,4,recog,47,MUSIC,HF,lure,-,-,-,conservative,no,m,1,0.600176189554,3,784
2019_Oct_17,206,001,4,recog,48,JUBILANT,LF,target,right,aqua,imageability,liberal,no,z,1,0.62647521175,3,787
2019_Oct_17,206,001,4,recog,49,MEETING,HF,target,left,yellow,pleasantness,conservative,no,z,1,0.613459327561,1,788
2019_Oct_17,206,001,4,recog,50,AFRAID,HF,lure,-,-,-,conservative,no,m,1,0.693496163863,3,791
2019_Oct_17,206,001,4,recog,51,NAPPY,LF,target,right,aqua,imageability,liberal,no,z,1,0.666808542151,3,794
2019_Oct_17,206,001,4,recog,52,VOUCH,LF,target,left,yellow,pleasantness,liberal,no,z,1,0.933351150255,3,797
2019_Oct_17,206,001,4,recog,53,ITSELF,HF,target,left,yellow,pleasantness,liberal,no,z,1,0.55994184205,3,800
2019_Oct_17,206,001,4,recog,54,THOUSAND,HF,target,right,aqua,imageability,liberal,no,z,1,0.560150072734,3,803
2019_Oct_17,206,001,4,recog,55,THING,HF,target,right,aqua,imageability,liberal,no,z,1,0.586889018911,3,806
2019_Oct_17,206,001,4,recog,56,ACROSS,HF,lure,-,-,-,conservative,no,m,1,0.68009754581,3,809
2019_Oct_17,206,001,4,recog,57,PREPARED,HF,lure,-,-,-,liberal,no,m,1,0.613494154877,1,810
2019_Oct_17,206,001,4,recog,58,NEEDED,HF,target,right,aqua,imageability,conservative,no,m,0,1.07995764998,-1,809
2019_Oct_17,206,001,4,recog,59,RUFFLES,LF,target,right,aqua,imageability,conservative,no,z,1,0.506828353394,1,810
2019_Oct_17,206,001,4,recog,60,AHEAD,HF,lure,-,-,-,liberal,no,m,1,0.9464396219,1,811
2019_Oct_17,206,001,4,recog,61,BREAK,HF,lure,-,-,-,liberal,no,m,1,0.653478845522,1,812
2019_Oct_17,206,001,4,recog,62,TAILED,LF,target,left,yellow,pleasantness,conservative,no,z,1,0.626549632223,1,813
2019_Oct_17,206,001,4,recog,63,PIECE,HF,target,left,yellow,pleasantness,conservative,no,z,1,0.533480414585,1,814
2019_Oct_17,206,001,4,recog,64,PONCE,LF,lure,-,-,-,conservative,yes,m,1,0.840057204782,3,817
2019_Oct_17,206,001,4,recog,65,IMPORTANT,HF,target,right,aqua,imageability,conservative,no,m,0,2.01265771275,-1,816
2019_Oct_17,206,001,4,recog,66,SOVIET,HF,target,left,yellow,pleasantness,liberal,no,z,1,0.546979115342,3,819
2019_Oct_17,206,001,4,recog,67,PROBABLY,HF,target,right,aqua,imageability,liberal,no,z,1,0.65352943678,3,822
2019_Oct_17,206,001,4,recog,68,MOLARS,LF,lure,-,-,-,conservative,no,m,1,0.826488116187,3,825
2019_Oct_17,206,001,4,recog,69,CERTAIN,HF,lure,-,-,-,conservative,no,m,1,0.679796197884,3,828
2019_Oct_17,206,001,4,recog,70,TWENTY,HF,lure,-,-,-,conservative,no,m,1,0.86682951186,3,831
2019_Oct_17,206,001,4,recog,71,MONEY,HF,target,right,aqua,imageability,liberal,yes,z,1,0.693433474695,3,834
2019_Oct_17,206,001,4,recog,72,DEJECTED,LF,target,left,yellow,pleasantness,liberal,no,m,0,1.77302415476,-3,831
2019_Oct_17,206,001,4,recog,73,EFFECT,HF,lure,-,-,-,liberal,no,m,1,0.813207544403,1,832
2019_Oct_17,206,001,4,recog,74,OPTIC,LF,target,right,aqua,imageability,liberal,no,z,1,0.720098000399,3,835
2019_Oct_17,206,001,4,recog,75,HIMSELF,HF,target,left,yellow,pleasantness,liberal,no,z,1,0.586807632974,3,838
2019_Oct_17,206,001,4,recog,76,HURDLES,LF,target,right,aqua,imageability,conservative,no,z,1,0.786726320358,1,839
2019_Oct_17,206,001,4,recog,77,WEAKENS,LF,lure,-,-,-,liberal,no,m,1,0.893347029633,1,840
2019_Oct_17,206,001,4,recog,78,HONKING,LF,lure,-,-,-,conservative,no,m,1,0.60012816452,3,843
2019_Oct_17,206,001,4,recog,79,UTTERANCE,LF,lure,-,-,-,liberal,no,m,1,0.613461160578,1,844
2019_Oct_17,206,001,4,recog,80,DILATED,LF,target,left,yellow,pleasantness,liberal,no,z,1,0.600119732643,3,847
2019_Oct_17,206,001,4,recog,81,HUMAN,HF,lure,-,-,-,conservative,no,m,1,0.600158959199,3,850
2019_Oct_17,206,001,4,recog,82,SIMILAR,HF,lure,-,-,-,liberal,no,m,1,0.640135584571,1,851
2019_Oct_17,206,001,4,recog,83,NUCLEAR,HF,lure,-,-,-,conservative,no,m,1,0.64021953673,3,854
2019_Oct_17,206,001,4,recog,84,CLEAR,HF,target,left,yellow,pleasantness,liberal,no,m,0,0.66689909317,-3,851
2019_Oct_17,206,001,4,recog,85,LAUNCHER,LF,target,left,yellow,pleasantness,conservative,no,m,0,0.600136229793,-1,850
2019_Oct_17,206,001,4,recog,86,BAYING,LF,target,right,aqua,imageability,conservative,no,z,1,0.786459799747,1,851
2019_Oct_17,206,001,4,recog,87,SAVOURED,LF,lure,-,-,-,liberal,no,m,1,0.839820012435,1,852
2019_Oct_17,206,001,4,recog,88,MAJOR,HF,lure,-,-,-,conservative,no,m,1,1.45314552979,3,855
2019_Oct_17,206,001,4,recog,89,UNLESS,HF,target,left,yellow,pleasantness,conservative,no,z,1,2.7459772618,1,856
2019_Oct_17,206,001,4,recog,90,PUBLIC,HF,target,left,yellow,pleasantness,conservative,no,z,1,0.786509291195,1,857
2019_Oct_17,206,001,4,recog,91,THWART,LF,lure,-,-,-,conservative,no,m,1,0.640122386852,3,860
2019_Oct_17,206,001,4,recog,92,MIDDLE,HF,target,left,yellow,pleasantness,conservative,no,z,1,1.21320842425,1,861
2019_Oct_17,206,001,4,recog,93,CATALYST,LF,lure,-,-,-,conservative,no,m,1,0.706772336407,3,864
2019_Oct_17,206,001,4,recog,94,ACTION,HF,target,right,aqua,imageability,conservative,no,z,1,0.680143737829,1,865
2019_Oct_17,206,001,4,recog,95,DIFFERENT,HF,lure,-,-,-,liberal,no,m,1,1.04008367354,1,866
