date,subj,session,cycle,task,trial,item,wf,type,source,colour,encoding,bias,null,response,corr,rt,points,total
2019_Oct_18,207,001,0,source,0,GRUBS,LF,target,left,aqua,imageability,liberal,no,2,1,2.74613397054,-,-
2019_Oct_18,207,001,0,source,1,SUPPORT,HF,target,right,yellow,pleasantness,conservative,no,9,1,3.14585953029,-,-
2019_Oct_18,207,001,0,source,2,ACROSS,HF,target,left,aqua,imageability,liberal,no,1,1,2.3059235248,-,-
2019_Oct_18,207,001,0,source,3,IRATE,LF,target,right,yellow,pleasantness,conservative,no,9,1,1.61338898881,-,-
2019_Oct_18,207,001,0,source,4,WALKED,HF,target,left,aqua,imageability,conservative,no,1,1,2.34613858976,-,-
2019_Oct_18,207,001,0,source,5,LOOKED,HF,target,left,aqua,imageability,liberal,yes,3,1,2.1728504319,-,-
2019_Oct_18,207,001,0,source,6,HOWEVER,HF,target,left,aqua,imageability,conservative,no,1,1,2.89241692922,-,-
2019_Oct_18,207,001,0,source,7,SOPHISTS,LF,target,left,aqua,imageability,conservative,no,1,1,1.31955645235,-,-
2019_Oct_18,207,001,0,source,8,JUMBO,LF,target,right,yellow,pleasantness,conservative,no,9,1,2.63908064349,-,-
2019_Oct_18,207,001,0,source,9,VOWEL,LF,target,right,yellow,pleasantness,conservative,no,1,0,1.7596888113,-,-
2019_Oct_18,207,001,0,source,10,EATERS,LF,target,right,yellow,pleasantness,liberal,no,9,1,1.639718169,-,-
2019_Oct_18,207,001,0,source,11,RUMBLED,LF,target,right,yellow,pleasantness,liberal,no,9,1,0.866492113967,-,-
2019_Oct_18,207,001,0,source,12,HOURS,HF,target,left,aqua,imageability,conservative,no,1,1,1.17327386028,-,-
2019_Oct_18,207,001,0,source,13,MEMBERS,HF,target,right,yellow,pleasantness,conservative,no,9,1,0.933469685827,-,-
2019_Oct_18,207,001,0,source,14,SMALL,HF,target,left,aqua,imageability,liberal,no,1,1,1.03969375313,-,-
2019_Oct_18,207,001,0,source,15,EVIDENCE,HF,target,right,yellow,pleasantness,liberal,no,9,1,1.10658224006,-,-
2019_Oct_18,207,001,0,source,16,ARGUABLE,LF,target,left,aqua,imageability,liberal,no,1,1,2.82596066919,-,-
2019_Oct_18,207,001,0,source,17,BARBARIAN,LF,target,right,yellow,pleasantness,conservative,no,9,1,1.10660057029,-,-
2019_Oct_18,207,001,0,source,18,UNNAMED,LF,target,right,yellow,pleasantness,liberal,no,9,1,1.66617896027,-,-
2019_Oct_18,207,001,0,source,19,LIGHT,HF,target,right,yellow,pleasantness,conservative,no,9,1,0.973341608823,-,-
2019_Oct_18,207,001,0,source,20,FUNNILY,LF,target,left,aqua,imageability,liberal,no,1,1,1.36021034309,-,-
2019_Oct_18,207,001,0,source,21,OFTEN,HF,target,right,yellow,pleasantness,liberal,no,9,1,0.986461656452,-,-
2019_Oct_18,207,001,0,source,22,QUICKLY,HF,target,right,yellow,pleasantness,liberal,yes,9,1,0.839901911257,-,-
2019_Oct_18,207,001,0,source,23,WESTERN,HF,target,right,yellow,pleasantness,liberal,no,9,1,2.05287502374,-,-
2019_Oct_18,207,001,0,source,24,FUTURE,HF,target,right,yellow,pleasantness,liberal,no,9,1,2.11957507587,-,-
2019_Oct_18,207,001,0,source,25,ROBBERIES,LF,target,left,aqua,imageability,conservative,yes,9,0,0.573225981712,-,-
2019_Oct_18,207,001,0,source,26,BUMBLING,LF,target,left,aqua,imageability,liberal,no,9,0,2.99923232984,-,-
2019_Oct_18,207,001,0,source,27,FATHER,HF,target,left,aqua,imageability,liberal,no,1,1,1.08000963437,-,-
2019_Oct_18,207,001,0,source,28,MEANS,HF,target,left,aqua,imageability,liberal,no,9,0,2.972254626,-,-
2019_Oct_18,207,001,0,source,29,SCHOOL,HF,target,right,yellow,pleasantness,conservative,no,9,1,2.49280318389,-,-
2019_Oct_18,207,001,0,source,30,SUBJECT,HF,target,left,aqua,imageability,conservative,no,1,1,1.26632472228,-,-
2019_Oct_18,207,001,0,source,31,IDEAS,HF,target,right,yellow,pleasantness,liberal,no,9,1,0.693417686622,-,-
2019_Oct_18,207,001,0,source,32,REGAINING,LF,target,right,yellow,pleasantness,liberal,no,9,1,0.866657819274,-,-
2019_Oct_18,207,001,0,source,33,DURING,HF,target,right,yellow,pleasantness,conservative,no,9,1,1.98629448473,-,-
2019_Oct_18,207,001,0,source,34,PUFFS,LF,target,right,yellow,pleasantness,liberal,no,9,1,0.720087075939,-,-
2019_Oct_18,207,001,0,source,35,FRONT,HF,target,left,aqua,imageability,liberal,no,1,1,1.30658964547,-,-
2019_Oct_18,207,001,0,source,36,SABLE,LF,target,right,yellow,pleasantness,conservative,no,1,0,1.13314311439,-,-
2019_Oct_18,207,001,0,source,37,LOGGED,LF,target,left,aqua,imageability,liberal,no,1,1,1.62617689261,-,-
2019_Oct_18,207,001,0,source,38,NETTLE,LF,target,right,yellow,pleasantness,liberal,no,1,0,1.1068139342,-,-
2019_Oct_18,207,001,0,source,39,SOAPY,LF,target,left,aqua,imageability,conservative,yes,1,1,0.879802062811,-,-
2019_Oct_18,207,001,0,source,40,HUNDRED,HF,target,left,aqua,imageability,conservative,no,1,1,2.19926393116,-,-
2019_Oct_18,207,001,0,source,41,WASHBASIN,LF,target,left,aqua,imageability,liberal,no,1,1,1.0533831378,-,-
2019_Oct_18,207,001,0,source,42,JEWELLED,LF,target,right,yellow,pleasantness,conservative,no,9,1,0.786702442394,-,-
2019_Oct_18,207,001,0,source,43,BAIZE,LF,target,left,aqua,imageability,conservative,no,9,0,0.866680915368,-,-
2019_Oct_18,207,001,0,source,44,LUXURIANT,LF,target,left,aqua,imageability,conservative,no,1,1,1.06658420506,-,-
2019_Oct_18,207,001,0,source,45,THANK,HF,target,right,yellow,pleasantness,conservative,no,9,1,0.813334438035,-,-
2019_Oct_18,207,001,0,source,46,DRUDGERY,LF,target,left,aqua,imageability,conservative,no,1,1,1.74646024869,-,-
2019_Oct_18,207,001,0,source,47,HEALTH,HF,target,left,aqua,imageability,conservative,no,1,1,2.22596044922,-,-
2019_Oct_18,207,001,0,recog,0,WALKED,HF,target,left,aqua,imageability,conservative,no,z,1,4.23864753675,1,1
2019_Oct_18,207,001,0,recog,1,BUILDING,HF,lure,-,-,-,conservative,no,m,1,2.67945738111,3,4
2019_Oct_18,207,001,0,recog,2,SPACE,HF,lure,-,-,-,liberal,no,z,0,1.53310660057,-1,3
2019_Oct_18,207,001,0,recog,3,PUFFS,LF,target,right,yellow,pleasantness,liberal,no,z,1,1.87968621574,3,6
2019_Oct_18,207,001,0,recog,4,BOOKS,HF,lure,-,-,-,liberal,no,m,1,1.25321310656,1,7
2019_Oct_18,207,001,0,recog,5,FRONT,HF,target,left,aqua,imageability,liberal,no,z,1,0.800169664637,3,10
2019_Oct_18,207,001,0,recog,6,SOPHISTS,LF,target,left,aqua,imageability,conservative,no,z,1,0.946695315599,1,11
2019_Oct_18,207,001,0,recog,7,ANIMAL,HF,lure,-,-,-,conservative,no,m,1,1.00027861954,3,14
2019_Oct_18,207,001,0,recog,8,BYGONE,LF,lure,-,-,-,liberal,no,m,1,1.15989645618,1,15
2019_Oct_18,207,001,0,recog,9,GRUBS,LF,target,left,aqua,imageability,liberal,no,z,1,1.00008358586,3,18
2019_Oct_18,207,001,0,recog,10,YARDSTICK,LF,lure,-,-,-,liberal,no,m,1,1.2134152377,1,19
2019_Oct_18,207,001,0,recog,11,MERELY,HF,lure,-,-,-,conservative,no,m,1,0.693440416111,3,22
2019_Oct_18,207,001,0,recog,12,ORDER,HF,lure,-,-,-,liberal,no,m,1,0.866476349967,1,23
2019_Oct_18,207,001,0,recog,13,GENERAL,HF,lure,-,-,-,liberal,no,m,1,0.773366464619,1,24
2019_Oct_18,207,001,0,recog,14,WAYSIDE,LF,lure,-,-,-,conservative,no,m,1,0.986645691992,3,27
2019_Oct_18,207,001,0,recog,15,REGAINING,LF,target,right,yellow,pleasantness,liberal,no,z,1,1.26653698638,3,30
2019_Oct_18,207,001,0,recog,16,UNDER,HF,lure,-,-,-,liberal,no,m,1,1.0536738553,1,31
2019_Oct_18,207,001,0,recog,17,GLEANED,LF,lure,-,-,-,liberal,no,m,1,1.34649712912,1,32
2019_Oct_18,207,001,0,recog,18,TANGIER,LF,lure,-,-,-,conservative,no,m,1,0.720118237335,3,35
2019_Oct_18,207,001,0,recog,19,VOWEL,LF,target,right,yellow,pleasantness,conservative,no,z,1,0.999974704278,1,36
2019_Oct_18,207,001,0,recog,20,JEOPARDY,LF,lure,-,-,-,conservative,no,m,1,1.2665861114,3,39
2019_Oct_18,207,001,0,recog,21,WESTERN,HF,target,right,yellow,pleasantness,liberal,no,z,1,1.00001759702,3,42
2019_Oct_18,207,001,0,recog,22,TREES,HF,lure,-,-,-,liberal,no,m,1,0.906722576321,1,43
2019_Oct_18,207,001,0,recog,23,TEDIUM,LF,lure,-,-,-,conservative,no,m,1,0.600127798385,3,46
2019_Oct_18,207,001,0,recog,24,DIVAN,LF,lure,-,-,-,liberal,no,m,1,0.613462676346,1,47
2019_Oct_18,207,001,0,recog,25,QUALITY,HF,lure,-,-,-,conservative,no,m,1,0.600260509273,3,50
2019_Oct_18,207,001,0,recog,26,KETCHUP,LF,lure,-,-,-,conservative,no,m,1,0.653420384832,3,53
2019_Oct_18,207,001,0,recog,27,SMALL,HF,target,left,aqua,imageability,liberal,no,z,1,0.986611964363,3,56
2019_Oct_18,207,001,0,recog,28,MOMENT,HF,lure,-,-,-,conservative,no,m,1,0.826704510044,3,59
2019_Oct_18,207,001,0,recog,29,BOILERS,LF,lure,-,-,-,liberal,no,m,1,0.706744132676,1,60
2019_Oct_18,207,001,0,recog,30,USUAL,HF,lure,-,-,-,conservative,no,m,1,0.68012203536,3,63
2019_Oct_18,207,001,0,recog,31,METABOLIC,LF,lure,-,-,-,conservative,no,m,1,0.639888640168,3,66
2019_Oct_18,207,001,0,recog,32,NETTLE,LF,target,right,yellow,pleasantness,liberal,no,z,1,1.07970571911,3,69
2019_Oct_18,207,001,0,recog,33,JUMBO,LF,target,right,yellow,pleasantness,conservative,no,z,1,0.880043288679,1,70
2019_Oct_18,207,001,0,recog,34,LUXURIANT,LF,target,left,aqua,imageability,conservative,yes,z,1,1.86630551219,1,71
2019_Oct_18,207,001,0,recog,35,FREEDOM,HF,lure,-,-,-,liberal,no,m,1,1.18632168679,1,72
2019_Oct_18,207,001,0,recog,36,ROBBERIES,LF,target,left,aqua,imageability,conservative,no,z,1,1.02665362532,1,73
2019_Oct_18,207,001,0,recog,37,RAFTERS,LF,lure,-,-,-,liberal,no,m,1,1.09339437057,1,74
2019_Oct_18,207,001,0,recog,38,BEQUEST,LF,lure,-,-,-,conservative,no,m,1,0.720133634731,3,77
2019_Oct_18,207,001,0,recog,39,CRYPT,LF,lure,-,-,-,conservative,no,m,1,0.533494834907,3,80
2019_Oct_18,207,001,0,recog,40,UNNAMED,LF,target,right,yellow,pleasantness,liberal,no,z,1,0.933536407875,3,83
2019_Oct_18,207,001,0,recog,41,LONGER,HF,lure,-,-,-,liberal,no,m,1,1.01327438819,1,84
2019_Oct_18,207,001,0,recog,42,SCHOOL,HF,target,right,yellow,pleasantness,conservative,no,z,1,0.840125906705,1,85
2019_Oct_18,207,001,0,recog,43,LOOKED,HF,target,left,aqua,imageability,liberal,no,z,1,0.973356639614,3,88
2019_Oct_18,207,001,0,recog,44,HOWEVER,HF,target,left,aqua,imageability,conservative,no,z,1,0.999951974789,1,89
2019_Oct_18,207,001,0,recog,45,BEGAN,HF,lure,-,-,-,liberal,no,m,1,1.81319182882,1,90
2019_Oct_18,207,001,0,recog,46,HOURS,HF,target,left,aqua,imageability,conservative,no,z,1,0.959972270023,1,91
2019_Oct_18,207,001,0,recog,47,MISFITS,LF,lure,-,-,-,liberal,no,m,1,0.90665402125,1,92
2019_Oct_18,207,001,0,recog,48,LANGUAGE,HF,lure,-,-,-,conservative,no,m,1,0.62679462147,3,95
2019_Oct_18,207,001,0,recog,49,KIDNAP,LF,lure,-,-,-,liberal,no,m,1,0.573475639487,1,96
2019_Oct_18,207,001,0,recog,50,SUBJECT,HF,target,left,aqua,imageability,conservative,no,z,1,1.00005792354,1,97
2019_Oct_18,207,001,0,recog,51,FUTURE,HF,target,right,yellow,pleasantness,liberal,no,z,1,0.840048553121,3,100
2019_Oct_18,207,001,0,recog,52,ACROSS,HF,target,left,aqua,imageability,liberal,yes,z,1,0.666858278703,3,103
2019_Oct_18,207,001,0,recog,53,BUMBLING,LF,target,left,aqua,imageability,liberal,no,z,1,1.08000560172,3,106
2019_Oct_18,207,001,0,recog,54,HUNDRED,HF,target,left,aqua,imageability,conservative,no,z,1,0.773388460898,1,107
2019_Oct_18,207,001,0,recog,55,VAGABOND,LF,lure,-,-,-,conservative,no,m,1,1.33315565227,3,110
2019_Oct_18,207,001,0,recog,56,HONKING,LF,lure,-,-,-,liberal,no,m,1,0.600155660339,1,111
2019_Oct_18,207,001,0,recog,57,OCCUPANCY,LF,lure,-,-,-,liberal,no,m,1,0.693547464672,1,112
2019_Oct_18,207,001,0,recog,58,HEALTH,HF,target,left,aqua,imageability,conservative,no,z,1,0.986708381389,1,113
2019_Oct_18,207,001,0,recog,59,WASHBASIN,LF,target,left,aqua,imageability,liberal,no,z,1,0.9600569557,3,116
2019_Oct_18,207,001,0,recog,60,UNION,HF,lure,-,-,-,liberal,no,m,1,1.02664372699,1,117
2019_Oct_18,207,001,0,recog,61,BARBARIAN,LF,target,right,yellow,pleasantness,conservative,no,z,1,0.853400294897,1,118
2019_Oct_18,207,001,0,recog,62,LOGGED,LF,target,left,aqua,imageability,liberal,no,z,1,0.800295776641,3,121
2019_Oct_18,207,001,0,recog,63,EVOCATION,LF,lure,-,-,-,liberal,no,m,1,1.06673084692,1,122
2019_Oct_18,207,001,0,recog,64,BAIZE,LF,target,left,aqua,imageability,conservative,no,m,0,1.03999216932,-1,121
2019_Oct_18,207,001,0,recog,65,OFTEN,HF,target,right,yellow,pleasantness,liberal,no,z,1,1.07962506608,3,124
2019_Oct_18,207,001,0,recog,66,DRUDGERY,LF,target,left,aqua,imageability,conservative,yes,z,1,1.45317028713,1,125
2019_Oct_18,207,001,0,recog,67,JEWELLED,LF,target,right,yellow,pleasantness,conservative,no,z,1,1.05330798384,1,126
2019_Oct_18,207,001,0,recog,68,RUMBLED,LF,target,right,yellow,pleasantness,liberal,no,z,1,0.920086049446,3,129
2019_Oct_18,207,001,0,recog,69,GEARING,LF,lure,-,-,-,conservative,no,m,1,1.78585485242,3,132
2019_Oct_18,207,001,0,recog,70,THANK,HF,target,right,yellow,pleasantness,conservative,no,z,1,0.853400294897,1,133
2019_Oct_18,207,001,0,recog,71,FUNNILY,LF,target,left,aqua,imageability,liberal,no,z,1,1.08008515493,3,136
2019_Oct_18,207,001,0,recog,72,IRATE,LF,target,right,yellow,pleasantness,conservative,no,z,1,0.960038258862,1,137
2019_Oct_18,207,001,0,recog,73,POINT,HF,lure,-,-,-,conservative,no,m,1,1.22661703817,3,140
2019_Oct_18,207,001,0,recog,74,MEMBERS,HF,target,right,yellow,pleasantness,conservative,no,z,1,0.893741471859,1,141
2019_Oct_18,207,001,0,recog,75,ALCHEMIST,LF,lure,-,-,-,liberal,no,m,1,1.09334744517,1,142
2019_Oct_18,207,001,0,recog,76,ARGUABLE,LF,target,left,aqua,imageability,liberal,no,z,1,1.11969788843,3,145
2019_Oct_18,207,001,0,recog,77,SOAPY,LF,target,left,aqua,imageability,conservative,no,z,1,0.9732847851,1,146
2019_Oct_18,207,001,0,recog,78,NOTHING,HF,lure,-,-,-,conservative,no,m,1,1.02648901982,3,149
2019_Oct_18,207,001,0,recog,79,EATERS,LF,target,right,yellow,pleasantness,liberal,no,z,1,0.813601692834,3,152
2019_Oct_18,207,001,0,recog,80,LAUNCHER,LF,lure,-,-,-,conservative,no,m,1,1.58644721223,3,155
2019_Oct_18,207,001,0,recog,81,EVIDENCE,HF,target,right,yellow,pleasantness,liberal,no,z,1,0.919992198653,3,158
2019_Oct_18,207,001,0,recog,82,QUICKLY,HF,target,right,yellow,pleasantness,liberal,no,z,1,2.239485595,3,161
2019_Oct_18,207,001,0,recog,83,MEANS,HF,target,left,aqua,imageability,liberal,no,z,1,0.786742768906,3,164
2019_Oct_18,207,001,0,recog,84,CLEAR,HF,lure,-,-,-,liberal,no,m,1,1.10661193503,1,165
2019_Oct_18,207,001,0,recog,85,IDEAS,HF,target,right,yellow,pleasantness,liberal,no,z,1,0.933350905917,3,168
2019_Oct_18,207,001,0,recog,86,PAPER,HF,lure,-,-,-,liberal,no,m,1,0.946389567311,1,169
2019_Oct_18,207,001,0,recog,87,RANGE,HF,lure,-,-,-,conservative,no,m,1,1.21337454459,3,172
2019_Oct_18,207,001,0,recog,88,DURING,HF,target,right,yellow,pleasantness,conservative,no,z,1,1.11998054062,1,173
2019_Oct_18,207,001,0,recog,89,SABLE,LF,target,right,yellow,pleasantness,conservative,yes,z,1,0.84000126112,1,174
2019_Oct_18,207,001,0,recog,90,NUCLEAR,HF,lure,-,-,-,conservative,no,m,1,1.30650935905,3,177
2019_Oct_18,207,001,0,recog,91,FATHER,HF,target,left,aqua,imageability,liberal,no,z,1,0.800048685099,3,180
2019_Oct_18,207,001,0,recog,92,LIGHT,HF,target,right,yellow,pleasantness,conservative,no,z,1,0.813983694891,1,181
2019_Oct_18,207,001,0,recog,93,SUPPORT,HF,target,right,yellow,pleasantness,conservative,no,z,1,0.680112870243,1,182
2019_Oct_18,207,001,0,recog,94,DOTTY,LF,lure,-,-,-,conservative,no,m,1,1.01358306932,3,185
2019_Oct_18,207,001,0,recog,95,EIGHT,HF,lure,-,-,-,conservative,no,m,1,0.7600506501,3,188
2019_Oct_18,207,001,1,source,0,BOTANIST,LF,target,right,yellow,pleasantness,liberal,no,9,1,3.57205687945,-,-
2019_Oct_18,207,001,1,source,1,MUSIC,HF,target,left,aqua,imageability,liberal,no,9,0,2.90566968773,-,-
2019_Oct_18,207,001,1,source,2,BUTCHERED,LF,target,left,aqua,imageability,liberal,no,9,0,1.0267155815,-,-
2019_Oct_18,207,001,1,source,3,INTEREST,HF,target,right,yellow,pleasantness,conservative,no,9,1,3.49229506983,-,-
2019_Oct_18,207,001,1,source,4,LIKELY,HF,target,left,aqua,imageability,conservative,no,1,1,0.746754998838,-,-
2019_Oct_18,207,001,1,source,5,WATCH,HF,target,right,yellow,pleasantness,liberal,no,9,1,0.613453511229,-,-
2019_Oct_18,207,001,1,source,6,PEGGED,LF,target,right,yellow,pleasantness,conservative,no,1,0,1.01341186494,-,-
2019_Oct_18,207,001,1,source,7,PLUGGING,LF,target,right,yellow,pleasantness,conservative,no,9,1,2.75933320478,-,-
2019_Oct_18,207,001,1,source,8,UNLESS,HF,target,left,aqua,imageability,liberal,no,1,1,0.733474011762,-,-
2019_Oct_18,207,001,1,source,9,WRITE,HF,target,right,yellow,pleasantness,conservative,yes,1,0,0.694564792608,-,-
2019_Oct_18,207,001,1,source,10,OPENED,HF,target,right,yellow,pleasantness,conservative,no,9,1,1.71975566533,-,-
2019_Oct_18,207,001,1,source,11,COILING,LF,target,right,yellow,pleasantness,conservative,no,9,1,0.746764897164,-,-
2019_Oct_18,207,001,1,source,12,PEDALLING,LF,target,left,aqua,imageability,liberal,no,1,1,0.906778666835,-,-
2019_Oct_18,207,001,1,source,13,RUNNING,HF,target,right,yellow,pleasantness,liberal,no,1,0,1.42767586576,-,-
2019_Oct_18,207,001,1,source,14,TRADE,HF,target,left,aqua,imageability,liberal,no,9,0,1.41292332757,-,-
2019_Oct_18,207,001,1,source,15,LOWED,LF,target,right,yellow,pleasantness,conservative,no,9,1,0.626807452633,-,-
2019_Oct_18,207,001,1,source,16,AUBURN,LF,target,left,aqua,imageability,liberal,no,1,1,0.89310138012,-,-
2019_Oct_18,207,001,1,source,17,REPORT,HF,target,left,aqua,imageability,conservative,no,9,0,1.94602076302,-,-
2019_Oct_18,207,001,1,source,18,EXACTLY,HF,target,left,aqua,imageability,conservative,no,1,1,0.519965656475,-,-
2019_Oct_18,207,001,1,source,19,ROTARY,LF,target,right,yellow,pleasantness,conservative,yes,1,0,0.453532125933,-,-
2019_Oct_18,207,001,1,source,20,SAVOURED,LF,target,right,yellow,pleasantness,liberal,no,9,1,0.693634349977,-,-
2019_Oct_18,207,001,1,source,21,JUBILANT,LF,target,right,yellow,pleasantness,liberal,no,9,1,0.693524001974,-,-
2019_Oct_18,207,001,1,source,22,AFRAID,HF,target,right,yellow,pleasantness,liberal,no,9,1,0.706494474901,-,-
2019_Oct_18,207,001,1,source,23,OMITTING,LF,target,left,aqua,imageability,conservative,no,1,1,0.759837652792,-,-
2019_Oct_18,207,001,1,source,24,SLIGHTLY,HF,target,right,yellow,pleasantness,liberal,no,1,0,0.746558132135,-,-
2019_Oct_18,207,001,1,source,25,MASKING,LF,target,left,aqua,imageability,conservative,no,9,0,0.480191616925,-,-
2019_Oct_18,207,001,1,source,26,MEDDLE,LF,target,left,aqua,imageability,conservative,no,1,1,0.74685031605,-,-
2019_Oct_18,207,001,1,source,27,DEVELOPED,HF,target,left,aqua,imageability,conservative,no,9,0,0.693499806066,-,-
2019_Oct_18,207,001,1,source,28,OUGHT,HF,target,left,aqua,imageability,liberal,no,1,1,0.733463746832,-,-
2019_Oct_18,207,001,1,source,29,NERVY,LF,target,left,aqua,imageability,conservative,yes,1,1,0.666518802786,-,-
2019_Oct_18,207,001,1,source,30,FENCED,LF,target,left,aqua,imageability,conservative,no,9,0,0.666518802787,-,-
2019_Oct_18,207,001,1,source,31,CAFETERIA,LF,target,right,yellow,pleasantness,liberal,no,9,1,0.800108441659,-,-
2019_Oct_18,207,001,1,source,32,FOUND,HF,target,right,yellow,pleasantness,conservative,yes,9,1,0.453646506588,-,-
2019_Oct_18,207,001,1,source,33,RABBIS,LF,target,left,aqua,imageability,liberal,no,1,1,1.14658284129,-,-
2019_Oct_18,207,001,1,source,34,FIELD,HF,target,left,aqua,imageability,conservative,no,1,1,0.840025823632,-,-
2019_Oct_18,207,001,1,source,35,SEEMED,HF,target,right,yellow,pleasantness,conservative,no,1,0,0.82668214716,-,-
2019_Oct_18,207,001,1,source,36,DIOCESE,LF,target,right,yellow,pleasantness,conservative,no,1,0,0.813395661014,-,-
2019_Oct_18,207,001,1,source,37,WHATEVER,HF,target,left,aqua,imageability,conservative,no,1,1,1.04000536709,-,-
2019_Oct_18,207,001,1,source,38,STAFF,HF,target,left,aqua,imageability,liberal,no,1,1,2.14596547904,-,-
2019_Oct_18,207,001,1,source,39,PARENTS,HF,target,right,yellow,pleasantness,liberal,no,1,0,1.1866527308,-,-
2019_Oct_18,207,001,1,source,40,YEARN,LF,target,left,aqua,imageability,conservative,no,1,1,0.986649724643,-,-
2019_Oct_18,207,001,1,source,41,SYRINGE,LF,target,right,yellow,pleasantness,liberal,no,1,0,1.05301506672,-,-
2019_Oct_18,207,001,1,source,42,DOING,HF,target,right,yellow,pleasantness,liberal,no,9,1,0.679161164542,-,-
2019_Oct_18,207,001,1,source,43,TOGETHER,HF,target,left,aqua,imageability,liberal,no,9,0,0.266697925824,-,-
2019_Oct_18,207,001,1,source,44,TAKEN,HF,target,right,yellow,pleasantness,conservative,no,1,0,0.453270736809,-,-
2019_Oct_18,207,001,1,source,45,UNOPENED,LF,target,left,aqua,imageability,liberal,no,9,0,0.240269395769,-,-
2019_Oct_18,207,001,1,source,46,TOADS,LF,target,right,yellow,pleasantness,liberal,no,1,0,0.080381738102,-,-
2019_Oct_18,207,001,1,source,47,JANGLING,LF,target,left,aqua,imageability,liberal,no,1,1,1.77274836916,-,-
2019_Oct_18,207,001,1,recog,0,AVAILABLE,HF,lure,-,-,-,conservative,no,m,1,1.53312749704,3,191
2019_Oct_18,207,001,1,recog,1,VALUE,HF,lure,-,-,-,conservative,no,m,1,1.00000366605,3,194
2019_Oct_18,207,001,1,recog,2,WRITE,HF,target,right,yellow,pleasantness,conservative,no,z,1,1.29323937011,1,195
2019_Oct_18,207,001,1,recog,3,CERTAIN,HF,lure,-,-,-,liberal,no,m,1,0.666739865397,1,196
2019_Oct_18,207,001,1,recog,4,PREPARED,HF,lure,-,-,-,liberal,no,m,1,0.746635852323,1,197
2019_Oct_18,207,001,1,recog,5,CHIEF,HF,lure,-,-,-,conservative,no,m,1,0.626862809937,3,200
2019_Oct_18,207,001,1,recog,6,OMITTING,LF,target,left,aqua,imageability,conservative,no,z,1,0.640154428548,1,201
2019_Oct_18,207,001,1,recog,7,RUNNING,HF,target,right,yellow,pleasantness,liberal,no,z,1,1.46637941969,3,204
2019_Oct_18,207,001,1,recog,8,SUFFERER,LF,lure,-,-,-,conservative,no,m,1,0.7067774937,3,207
2019_Oct_18,207,001,1,recog,9,DEVELOPED,HF,target,left,aqua,imageability,conservative,no,z,1,0.680133400104,1,208
2019_Oct_18,207,001,1,recog,10,ADULATION,LF,lure,-,-,-,liberal,no,m,1,0.666800355167,1,209
2019_Oct_18,207,001,1,recog,11,MUSIC,HF,target,left,aqua,imageability,liberal,no,z,1,0.586574424046,3,212
2019_Oct_18,207,001,1,recog,12,SARDINES,LF,lure,-,-,-,liberal,no,m,1,1.01328978559,1,213
2019_Oct_18,207,001,1,recog,13,AUBURN,LF,target,left,aqua,imageability,liberal,no,z,1,0.813257817661,3,216
2019_Oct_18,207,001,1,recog,14,NERVY,LF,target,left,aqua,imageability,conservative,no,m,0,0.560145527386,-1,215
2019_Oct_18,207,001,1,recog,15,AFRAID,HF,target,right,yellow,pleasantness,liberal,no,z,1,0.639912836076,3,218
2019_Oct_18,207,001,1,recog,16,DIOCESE,LF,target,right,yellow,pleasantness,conservative,no,z,1,0.613440313462,1,219
2019_Oct_18,207,001,1,recog,17,UNTIL,HF,lure,-,-,-,liberal,no,m,1,0.560133062828,1,220
2019_Oct_18,207,001,1,recog,18,TRADE,HF,target,left,aqua,imageability,liberal,no,z,1,0.746895408423,3,223
2019_Oct_18,207,001,1,recog,19,CASES,HF,lure,-,-,-,conservative,no,m,1,0.626519667974,3,226
2019_Oct_18,207,001,1,recog,20,FOUND,HF,target,right,yellow,pleasantness,conservative,no,z,1,0.640170925758,1,227
2019_Oct_18,207,001,1,recog,21,OPENED,HF,target,right,yellow,pleasantness,conservative,no,z,1,0.693610887279,1,228
2019_Oct_18,207,001,1,recog,22,STAFF,HF,target,left,aqua,imageability,liberal,no,z,1,0.560236445343,3,231
2019_Oct_18,207,001,1,recog,23,NEEDED,HF,lure,-,-,-,conservative,no,z,0,0.466839875149,-3,228
2019_Oct_18,207,001,1,recog,24,FENCED,LF,target,left,aqua,imageability,conservative,no,z,1,0.58674306219,1,229
2019_Oct_18,207,001,1,recog,25,PEGGED,LF,target,right,yellow,pleasantness,conservative,no,z,1,1.03971611601,1,230
2019_Oct_18,207,001,1,recog,26,SPOKE,HF,lure,-,-,-,liberal,no,m,1,0.519907366334,1,231
2019_Oct_18,207,001,1,recog,27,TAKEN,HF,target,right,yellow,pleasantness,conservative,no,m,0,2.93253044468,-1,230
2019_Oct_18,207,001,1,recog,28,ACORNS,LF,lure,-,-,-,conservative,yes,m,1,0.466913929291,3,233
2019_Oct_18,207,001,1,recog,29,UNLESS,HF,target,left,aqua,imageability,liberal,yes,m,0,1.95977760295,-3,230
2019_Oct_18,207,001,1,recog,30,NOSTRIL,LF,lure,-,-,-,liberal,no,m,1,1.22654225082,1,231
2019_Oct_18,207,001,1,recog,31,TOGETHER,HF,target,left,aqua,imageability,liberal,no,m,0,1.75966681502,-3,228
2019_Oct_18,207,001,1,recog,32,BUTCHERED,LF,target,left,aqua,imageability,liberal,no,z,1,0.680107004569,3,231
2019_Oct_18,207,001,1,recog,33,SYRINGE,LF,target,right,yellow,pleasantness,liberal,no,m,0,0.75992087205,-3,228
2019_Oct_18,207,001,1,recog,34,WATCH,HF,target,right,yellow,pleasantness,liberal,no,z,1,0.453521494398,3,231
2019_Oct_18,207,001,1,recog,35,REPORT,HF,target,left,aqua,imageability,conservative,no,z,1,0.546857941427,1,232
2019_Oct_18,207,001,1,recog,36,UNOPENED,LF,target,left,aqua,imageability,liberal,no,z,1,0.573424314834,3,235
2019_Oct_18,207,001,1,recog,37,KNEAD,LF,lure,-,-,-,liberal,no,m,1,0.760010690192,1,236
2019_Oct_18,207,001,1,recog,38,ADOPTIVE,LF,lure,-,-,-,conservative,no,m,1,0.719865646724,3,239
2019_Oct_18,207,001,1,recog,39,WHATEVER,HF,target,left,aqua,imageability,conservative,no,z,1,0.560179988225,1,240
2019_Oct_18,207,001,1,recog,40,DUGOUTS,LF,lure,-,-,-,conservative,no,z,0,0.893330874638,-3,237
2019_Oct_18,207,001,1,recog,41,TAVERNS,LF,lure,-,-,-,liberal,no,m,1,0.613477340532,1,238
2019_Oct_18,207,001,1,recog,42,VETOED,LF,lure,-,-,-,liberal,no,m,1,1.10664492945,1,239
2019_Oct_18,207,001,1,recog,43,STUDENT,HF,lure,-,-,-,liberal,no,m,1,0.61318772285,1,240
2019_Oct_18,207,001,1,recog,44,JEERED,LF,lure,-,-,-,conservative,no,z,0,0.640116668268,-3,237
2019_Oct_18,207,001,1,recog,45,BOTANIST,LF,target,right,yellow,pleasantness,liberal,no,z,1,0.573444478091,3,240
2019_Oct_18,207,001,1,recog,46,INNATELY,LF,lure,-,-,-,conservative,no,m,1,0.626904969473,3,243
2019_Oct_18,207,001,1,recog,47,YEARN,LF,target,left,aqua,imageability,conservative,no,z,1,0.693462412391,1,244
2019_Oct_18,207,001,1,recog,48,ERADICATE,LF,lure,-,-,-,liberal,no,m,1,0.64050930186,1,245
2019_Oct_18,207,001,1,recog,49,TOADS,LF,target,right,yellow,pleasantness,liberal,yes,m,0,0.493385718695,-3,242
2019_Oct_18,207,001,1,recog,50,PARENTS,HF,target,right,yellow,pleasantness,liberal,no,z,1,3.05252235005,3,245
2019_Oct_18,207,001,1,recog,51,PLUGGING,LF,target,right,yellow,pleasantness,conservative,no,z,1,0.86640742829,1,246
2019_Oct_18,207,001,1,recog,52,HUSBAND,HF,lure,-,-,-,conservative,no,m,1,0.640136098315,3,249
2019_Oct_18,207,001,1,recog,53,PIECE,HF,lure,-,-,-,liberal,no,m,1,0.600115700431,1,250
2019_Oct_18,207,001,1,recog,54,LABOUR,HF,lure,-,-,-,liberal,no,m,1,0.813374764548,1,251
2019_Oct_18,207,001,1,recog,55,FIELD,HF,target,left,aqua,imageability,conservative,no,z,1,0.506820679729,1,252
2019_Oct_18,207,001,1,recog,56,SEEMED,HF,target,right,yellow,pleasantness,conservative,no,z,1,0.586611084512,1,253
2019_Oct_18,207,001,1,recog,57,RECENT,HF,lure,-,-,-,conservative,no,m,1,0.813393461386,3,256
2019_Oct_18,207,001,1,recog,58,SLIGHTLY,HF,target,right,yellow,pleasantness,liberal,no,z,1,0.560172656131,3,259
2019_Oct_18,207,001,1,recog,59,MINISTER,HF,lure,-,-,-,conservative,no,m,1,0.653159362313,3,262
2019_Oct_18,207,001,1,recog,60,WHETHER,HF,lure,-,-,-,conservative,no,z,0,0.613446545741,-3,259
2019_Oct_18,207,001,1,recog,61,ANNALS,LF,lure,-,-,-,conservative,no,m,1,0.560256241994,3,262
2019_Oct_18,207,001,1,recog,62,ICEBOX,LF,lure,-,-,-,conservative,no,m,1,0.573507900697,3,265
2019_Oct_18,207,001,1,recog,63,MASKING,LF,target,left,aqua,imageability,conservative,no,z,1,0.920000997165,1,266
2019_Oct_18,207,001,1,recog,64,APART,HF,lure,-,-,-,liberal,no,m,1,0.626812951703,1,267
2019_Oct_18,207,001,1,recog,65,NEGATION,LF,lure,-,-,-,liberal,no,m,1,0.706519037413,1,268
2019_Oct_18,207,001,1,recog,66,SMIRK,LF,lure,-,-,-,conservative,no,m,1,0.586559393255,3,271
2019_Oct_18,207,001,1,recog,67,PASSED,HF,lure,-,-,-,liberal,no,m,1,0.720105772777,1,272
2019_Oct_18,207,001,1,recog,68,MEDDLE,LF,target,left,aqua,imageability,conservative,no,z,1,0.613472574672,1,273
2019_Oct_18,207,001,1,recog,69,CAFETERIA,LF,target,right,yellow,pleasantness,liberal,no,z,1,0.626773358399,3,276
2019_Oct_18,207,001,1,recog,70,LOWED,LF,target,right,yellow,pleasantness,conservative,no,z,1,0.520132828201,1,277
2019_Oct_18,207,001,1,recog,71,ROTARY,LF,target,right,yellow,pleasantness,conservative,no,z,1,1.01333157852,1,278
2019_Oct_18,207,001,1,recog,72,COILING,LF,target,right,yellow,pleasantness,conservative,no,z,1,0.586816016518,1,279
2019_Oct_18,207,001,1,recog,73,ALONE,HF,lure,-,-,-,liberal,no,m,1,0.680182525129,1,280
2019_Oct_18,207,001,1,recog,74,CARRIED,HF,lure,-,-,-,conservative,no,z,0,3.57228490755,-3,277
2019_Oct_18,207,001,1,recog,75,RABBIS,LF,target,left,aqua,imageability,liberal,no,m,0,0.480197115995,-3,274
2019_Oct_18,207,001,1,recog,76,SAVOURED,LF,target,right,yellow,pleasantness,liberal,yes,z,1,0.613417217368,3,277
2019_Oct_18,207,001,1,recog,77,PNEUMATIC,LF,lure,-,-,-,conservative,no,m,1,0.613483939416,3,280
2019_Oct_18,207,001,1,recog,78,DOING,HF,target,right,yellow,pleasantness,liberal,no,z,1,1.22649862487,3,283
2019_Oct_18,207,001,1,recog,79,JUBILANT,LF,target,right,yellow,pleasantness,liberal,no,z,1,0.533495201511,3,286
2019_Oct_18,207,001,1,recog,80,GIRLS,HF,lure,-,-,-,conservative,no,m,1,0.573517065814,3,289
2019_Oct_18,207,001,1,recog,81,EXACTLY,HF,target,left,aqua,imageability,conservative,no,z,1,0.600510167047,1,290
2019_Oct_18,207,001,1,recog,82,ENGULF,LF,lure,-,-,-,conservative,no,m,1,0.786780529186,3,293
2019_Oct_18,207,001,1,recog,83,JANGLING,LF,target,left,aqua,imageability,liberal,no,z,1,1.21313001928,3,296
2019_Oct_18,207,001,1,recog,84,OUGHT,HF,target,left,aqua,imageability,liberal,no,z,1,0.627072507803,3,299
2019_Oct_18,207,001,1,recog,85,TIDILY,LF,lure,-,-,-,liberal,no,z,0,0.773154933729,-1,298
2019_Oct_18,207,001,1,recog,86,SHRED,LF,lure,-,-,-,liberal,no,m,1,0.720040883752,1,299
2019_Oct_18,207,001,1,recog,87,LIKELY,HF,target,left,aqua,imageability,conservative,no,z,1,0.893337106917,1,300
2019_Oct_18,207,001,1,recog,88,LIVED,HF,lure,-,-,-,liberal,no,m,1,0.626849245564,1,301
2019_Oct_18,207,001,1,recog,89,INTEREST,HF,target,right,yellow,pleasantness,conservative,no,z,1,0.66709473871,1,302
2019_Oct_18,207,001,1,recog,90,TRIED,HF,lure,-,-,-,liberal,no,m,1,1.2265484831,1,303
2019_Oct_18,207,001,1,recog,91,PEDALLING,LF,target,left,aqua,imageability,liberal,no,z,1,0.773383695038,3,306
2019_Oct_18,207,001,1,recog,92,HOTEL,HF,lure,-,-,-,conservative,no,m,1,0.68043584895,3,309
2019_Oct_18,207,001,1,recog,93,BOLDNESS,LF,lure,-,-,-,liberal,no,m,1,0.893354703941,1,310
2019_Oct_18,207,001,1,recog,94,HURDLES,LF,lure,-,-,-,conservative,no,z,0,0.919947472884,-3,307
2019_Oct_18,207,001,1,recog,95,DINER,LF,lure,-,-,-,liberal,no,m,1,0.946767903322,1,308
2019_Oct_18,207,001,2,source,0,ABOVE,HF,target,right,yellow,pleasantness,liberal,no,1,0,2.01260093543,-,-
2019_Oct_18,207,001,2,source,1,DOCTOR,HF,target,right,yellow,pleasantness,liberal,no,9,1,0.320496793309,-,-
2019_Oct_18,207,001,2,source,2,BUBBLED,LF,target,right,yellow,pleasantness,liberal,yes,9,1,0.573580855025,-,-
2019_Oct_18,207,001,2,source,3,FUDGE,LF,target,right,yellow,pleasantness,liberal,no,9,1,0.626820650401,-,-
2019_Oct_18,207,001,2,source,4,COGENT,LF,target,right,yellow,pleasantness,liberal,no,1,0,1.29316861541,-,-
2019_Oct_18,207,001,2,source,5,LAGER,LF,target,left,aqua,imageability,conservative,yes,9,0,0.933378401266,-,-
2019_Oct_18,207,001,2,source,6,TRYING,HF,target,right,yellow,pleasantness,liberal,no,1,0,0.440185883228,-,-
2019_Oct_18,207,001,2,source,7,WOMAN,HF,target,left,aqua,imageability,liberal,no,1,1,0.333566982704,-,-
2019_Oct_18,207,001,2,source,8,NECESSARY,HF,target,right,yellow,pleasantness,liberal,no,9,1,2.03983416272,-,-
2019_Oct_18,207,001,2,source,9,LATER,HF,target,right,yellow,pleasantness,conservative,no,1,0,1.15993201683,-,-
2019_Oct_18,207,001,2,source,10,PUPPETS,LF,target,left,aqua,imageability,conservative,no,1,1,1.02652421387,-,-
2019_Oct_18,207,001,2,source,11,STOOD,HF,target,left,aqua,imageability,liberal,no,9,0,3.70571177395,-,-
2019_Oct_18,207,001,2,source,12,HYACINTHS,LF,target,left,aqua,imageability,liberal,no,2,1,0.4666001157,-,-
2019_Oct_18,207,001,2,source,13,MYSELF,HF,target,left,aqua,imageability,conservative,no,1,1,1.26656668136,-,-
2019_Oct_18,207,001,2,source,14,ELECTING,LF,target,left,aqua,imageability,conservative,no,2,1,3.58560658774,-,-
2019_Oct_18,207,001,2,source,15,FLICKS,LF,target,right,yellow,pleasantness,conservative,no,2,0,2.41281701222,-,-
2019_Oct_18,207,001,2,source,16,CUFFED,LF,target,right,yellow,pleasantness,conservative,no,9,1,0.226926819111,-,-
2019_Oct_18,207,001,2,source,17,SHALL,HF,target,right,yellow,pleasantness,conservative,no,9,1,1.11994021411,-,-
2019_Oct_18,207,001,2,source,18,HIMSELF,HF,target,left,aqua,imageability,conservative,no,9,0,3.26572459045,-,-
2019_Oct_18,207,001,2,source,19,GIVEN,HF,target,left,aqua,imageability,liberal,no,2,1,1.46650406528,-,-
2019_Oct_18,207,001,2,source,20,PROBABLY,HF,target,right,yellow,pleasantness,liberal,no,2,0,1.03976634085,-,-
2019_Oct_18,207,001,2,source,21,VULTURE,LF,target,left,aqua,imageability,conservative,no,9,0,0.266705257917,-,-
2019_Oct_18,207,001,2,source,22,IGNOBLE,LF,target,right,yellow,pleasantness,liberal,no,1,0,3.42564450933,-,-
2019_Oct_18,207,001,2,source,23,HIGHER,HF,target,right,yellow,pleasantness,conservative,no,9,1,1.06664909408,-,-
2019_Oct_18,207,001,2,source,24,ACTION,HF,target,left,aqua,imageability,liberal,no,2,1,0.56039115251,-,-
2019_Oct_18,207,001,2,source,25,LEVEL,HF,target,right,yellow,pleasantness,conservative,no,1,0,0.146730582967,-,-
2019_Oct_18,207,001,2,source,26,GOUGED,LF,target,left,aqua,imageability,liberal,yes,1,1,0.933724476067,-,-
2019_Oct_18,207,001,2,source,27,FILAMENTS,LF,target,left,aqua,imageability,liberal,no,1,1,1.83936996789,-,-
2019_Oct_18,207,001,2,source,28,CALLED,HF,target,right,yellow,pleasantness,conservative,no,None,-1,-1,-,-
2019_Oct_18,207,001,2,source,29,TODAY,HF,target,right,yellow,pleasantness,conservative,no,2,0,2.06599873741,-,-
2019_Oct_18,207,001,2,source,30,GYPSIES,LF,target,right,yellow,pleasantness,liberal,no,2,0,0.46701767841,-,-
2019_Oct_18,207,001,2,source,31,TWENTY,HF,target,left,aqua,imageability,liberal,no,9,0,0.373595812495,-,-
2019_Oct_18,207,001,2,source,32,MADDENED,LF,target,left,aqua,imageability,conservative,no,9,0,1.23985879855,-,-
2019_Oct_18,207,001,2,source,33,SPEAK,HF,target,right,yellow,pleasantness,liberal,no,9,1,0.320319356653,-,-
2019_Oct_18,207,001,2,source,34,BLIGHTED,LF,target,left,aqua,imageability,liberal,no,2,1,0.373559885238,-,-
2019_Oct_18,207,001,2,source,35,AMONG,HF,target,left,aqua,imageability,conservative,no,9,0,0.306915557015,-,-
2019_Oct_18,207,001,2,source,36,HEEDED,LF,target,right,yellow,pleasantness,conservative,no,9,1,3.01234907803,-,-
2019_Oct_18,207,001,2,source,37,NEITHER,HF,target,left,aqua,imageability,conservative,no,1,1,0.679838283352,-,-
2019_Oct_18,207,001,2,source,38,ACACIA,LF,target,right,yellow,pleasantness,conservative,no,9,1,0.519943293591,-,-
2019_Oct_18,207,001,2,source,39,CESSATION,LF,target,right,yellow,pleasantness,conservative,no,2,0,0.693709503932,-,-
2019_Oct_18,207,001,2,source,40,CANNOT,HF,target,left,aqua,imageability,conservative,no,9,0,6.54443175178,-,-
2019_Oct_18,207,001,2,source,41,DODGED,LF,target,left,aqua,imageability,conservative,no,9,0,0.306662599799,-,-
2019_Oct_18,207,001,2,source,42,DAWDLING,LF,target,left,aqua,imageability,liberal,no,9,0,0.360030706806,-,-
2019_Oct_18,207,001,2,source,43,ENCLOSE,LF,target,left,aqua,imageability,liberal,yes,2,1,0.546864173706,-,-
2019_Oct_18,207,001,2,source,44,USING,HF,target,left,aqua,imageability,conservative,no,2,1,0.653491872741,-,-
2019_Oct_18,207,001,2,source,45,ZIPPED,LF,target,right,yellow,pleasantness,liberal,no,1,0,0.560337994834,-,-
2019_Oct_18,207,001,2,source,46,MIDDLE,HF,target,left,aqua,imageability,liberal,no,1,1,1.02634751042,-,-
2019_Oct_18,207,001,2,source,47,MACARONI,LF,target,right,yellow,pleasantness,conservative,no,9,1,0.386870933896,-,-
2019_Oct_18,207,001,2,recog,0,TAWNY,LF,lure,-,-,-,conservative,no,m,1,2.58844960689,3,311
2019_Oct_18,207,001,2,recog,1,FONDLE,LF,lure,-,-,-,conservative,no,m,1,0.600145028804,3,314
2019_Oct_18,207,001,2,recog,2,PERHAPS,HF,lure,-,-,-,liberal,no,m,1,0.733185493894,1,315
2019_Oct_18,207,001,2,recog,3,FLICKS,LF,target,right,yellow,pleasantness,conservative,no,m,0,0.453543857282,-1,314
2019_Oct_18,207,001,2,recog,4,DOCTOR,HF,target,right,yellow,pleasantness,liberal,no,z,1,0.360371282537,3,317
2019_Oct_18,207,001,2,recog,5,ELECTING,LF,target,left,aqua,imageability,conservative,no,z,1,0.720095141242,1,318
2019_Oct_18,207,001,2,recog,6,LAGER,LF,target,left,aqua,imageability,conservative,no,z,1,0.50688996801,1,319
2019_Oct_18,207,001,2,recog,7,REVERE,LF,lure,-,-,-,conservative,no,m,1,0.666893839355,3,322
2019_Oct_18,207,001,2,recog,8,BELIEVE,HF,lure,-,-,-,conservative,no,m,1,1.03971318318,3,325
2019_Oct_18,207,001,2,recog,9,MYSELF,HF,target,left,aqua,imageability,conservative,no,m,0,0.560160558178,-1,324
2019_Oct_18,207,001,2,recog,10,CANNOT,HF,target,left,aqua,imageability,conservative,no,z,1,0.413710061172,1,325
2019_Oct_18,207,001,2,recog,11,NOXIOUS,LF,lure,-,-,-,liberal,no,z,0,0.453652738867,-1,324
2019_Oct_18,207,001,2,recog,12,IGNOBLE,LF,target,right,yellow,pleasantness,liberal,no,m,0,0.386916759479,-3,321
2019_Oct_18,207,001,2,recog,13,AFTERNOON,HF,lure,-,-,-,liberal,no,z,0,0.240483492892,-1,320
2019_Oct_18,207,001,2,recog,14,LARGE,HF,lure,-,-,-,liberal,no,z,0,0.133694487806,-1,319
2019_Oct_18,207,001,2,recog,15,FRIEND,HF,lure,-,-,-,conservative,no,z,0,0.879782999369,-3,316
2019_Oct_18,207,001,2,recog,16,ABOVE,HF,target,right,yellow,pleasantness,liberal,no,m,0,0.693633616768,-3,313
2019_Oct_18,207,001,2,recog,17,GYMKHANA,LF,lure,-,-,-,liberal,no,z,0,0.466826310776,-1,312
2019_Oct_18,207,001,2,recog,18,BINDINGS,LF,lure,-,-,-,liberal,no,z,0,0.600271507412,-1,311
2019_Oct_18,207,001,2,recog,19,DANDELION,LF,lure,-,-,-,conservative,no,z,0,0.48028876716,-3,308
2019_Oct_18,207,001,2,recog,20,EASILY,HF,lure,-,-,-,conservative,no,m,1,1.06634297919,3,311
2019_Oct_18,207,001,2,recog,21,REREAD,LF,lure,-,-,-,liberal,no,m,1,0.640138664548,1,312
2019_Oct_18,207,001,2,recog,22,TUFTS,LF,lure,-,-,-,liberal,no,z,0,1.2398866605,-1,311
2019_Oct_18,207,001,2,recog,23,SIFTED,LF,lure,-,-,-,conservative,yes,z,0,0.533649175469,-3,308
2019_Oct_18,207,001,2,recog,24,LEARN,HF,lure,-,-,-,conservative,no,m,1,0.22701957009,3,311
2019_Oct_18,207,001,2,recog,25,POLICE,HF,lure,-,-,-,liberal,no,m,1,0.586523832602,1,312
2019_Oct_18,207,001,2,recog,26,DAUGHTER,HF,lure,-,-,-,liberal,no,z,0,0.573465741161,-1,311
2019_Oct_18,207,001,2,recog,27,ATTACK,HF,lure,-,-,-,liberal,no,m,1,0.32039304419,1,312
2019_Oct_18,207,001,2,recog,28,HYACINTHS,LF,target,left,aqua,imageability,liberal,no,m,0,0.346667600286,-3,309
2019_Oct_18,207,001,2,recog,29,DODGED,LF,target,left,aqua,imageability,conservative,no,z,1,0.293620638963,1,310
2019_Oct_18,207,001,2,recog,30,SHALL,HF,target,right,yellow,pleasantness,conservative,no,z,1,0.306904192271,1,311
2019_Oct_18,207,001,2,recog,31,GUMMED,LF,lure,-,-,-,conservative,no,m,1,0.240275994654,3,314
2019_Oct_18,207,001,2,recog,32,TODAY,HF,target,right,yellow,pleasantness,conservative,no,z,1,0.746493976319,1,315
2019_Oct_18,207,001,2,recog,33,HAUNCHES,LF,lure,-,-,-,liberal,no,m,1,0.480180618785,1,316
2019_Oct_18,207,001,2,recog,34,HIMSELF,HF,target,left,aqua,imageability,conservative,no,z,1,0.266926687133,1,317
2019_Oct_18,207,001,2,recog,35,REACHED,HF,lure,-,-,-,liberal,no,m,1,0.280339651887,1,318
2019_Oct_18,207,001,2,recog,36,TRYING,HF,target,right,yellow,pleasantness,liberal,no,z,1,0.0270290284902,3,321
2019_Oct_18,207,001,2,recog,37,ADENOIDS,LF,lure,-,-,-,conservative,yes,m,1,0.0934643920555,3,324
2019_Oct_18,207,001,2,recog,38,BLIGHTED,LF,target,left,aqua,imageability,liberal,no,z,1,1.28009512658,3,327
2019_Oct_18,207,001,2,recog,39,HIGHER,HF,target,right,yellow,pleasantness,conservative,no,z,1,1.01342762894,1,328
2019_Oct_18,207,001,2,recog,40,SEVEN,HF,lure,-,-,-,conservative,no,m,1,1.01305699163,3,331
2019_Oct_18,207,001,2,recog,41,ACACIA,LF,target,right,yellow,pleasantness,conservative,no,z,1,0.801520602815,1,332
2019_Oct_18,207,001,2,recog,42,ENCLOSE,LF,target,left,aqua,imageability,liberal,no,z,1,0.959734343598,3,335
2019_Oct_18,207,001,2,recog,43,ABATED,LF,lure,-,-,-,conservative,no,z,0,1.0399899697,-3,332
2019_Oct_18,207,001,2,recog,44,MARKET,HF,lure,-,-,-,liberal,no,z,0,1.4666547398,-1,331
2019_Oct_18,207,001,2,recog,45,UPLIFT,LF,lure,-,-,-,liberal,no,z,0,1.85300326205,-1,330
2019_Oct_18,207,001,2,recog,46,NEITHER,HF,target,left,aqua,imageability,conservative,no,z,1,0.306958449761,1,331
2019_Oct_18,207,001,2,recog,47,LEVEL,HF,target,right,yellow,pleasantness,conservative,no,m,0,1.53308643731,-1,330
2019_Oct_18,207,001,2,recog,48,SHORT,HF,lure,-,-,-,conservative,no,m,1,0.466853072917,3,333
2019_Oct_18,207,001,2,recog,49,WOMAN,HF,target,left,aqua,imageability,liberal,no,z,1,0.89333417408,3,336
2019_Oct_18,207,001,2,recog,50,ACTION,HF,target,left,aqua,imageability,liberal,no,z,1,0.453507196816,3,339
2019_Oct_18,207,001,2,recog,51,UNJUSTLY,LF,lure,-,-,-,conservative,no,None,-1,-1,-3,336
2019_Oct_18,207,001,2,recog,52,AMONG,HF,target,left,aqua,imageability,conservative,no,z,1,2.1195384154,1,337
2019_Oct_18,207,001,2,recog,53,ZIPPED,LF,target,right,yellow,pleasantness,liberal,no,z,1,0.826390329849,3,340
2019_Oct_18,207,001,2,recog,54,GYPSIES,LF,target,right,yellow,pleasantness,liberal,yes,z,1,1.47951963058,3,343
2019_Oct_18,207,001,2,recog,55,CUFFED,LF,target,right,yellow,pleasantness,conservative,yes,z,1,0.560143694363,1,344
2019_Oct_18,207,001,2,recog,56,SPEAK,HF,target,right,yellow,pleasantness,liberal,no,z,1,1.46643990946,3,347
2019_Oct_18,207,001,2,recog,57,MACARONI,LF,target,right,yellow,pleasantness,conservative,no,z,1,0.853373532756,1,348
2019_Oct_18,207,001,2,recog,58,FUDGE,LF,target,right,yellow,pleasantness,liberal,no,z,1,0.826740070696,3,351
2019_Oct_18,207,001,2,recog,59,PROBABLY,HF,target,right,yellow,pleasantness,liberal,no,z,1,2.01302399721,3,354
2019_Oct_18,207,001,2,recog,60,ELICIT,LF,lure,-,-,-,liberal,no,m,1,0.640249745759,1,355
2019_Oct_18,207,001,2,recog,61,NECESSARY,HF,target,right,yellow,pleasantness,liberal,no,m,0,0.706778593514,-3,352
2019_Oct_18,207,001,2,recog,62,GOUGED,LF,target,left,aqua,imageability,liberal,no,z,1,0.600201119317,3,355
2019_Oct_18,207,001,2,recog,63,SLOWLY,HF,lure,-,-,-,conservative,no,m,1,0.640143063803,3,358
2019_Oct_18,207,001,2,recog,64,BLACK,HF,lure,-,-,-,liberal,no,m,1,0.800110274682,1,359
2019_Oct_18,207,001,2,recog,65,TWENTY,HF,target,left,aqua,imageability,liberal,no,z,1,0.560159824968,3,362
2019_Oct_18,207,001,2,recog,66,PLODDED,LF,lure,-,-,-,liberal,no,z,0,1.11998054062,-1,361
2019_Oct_18,207,001,2,recog,67,CALLED,HF,target,right,yellow,pleasantness,conservative,no,z,1,0.546808449797,1,362
2019_Oct_18,207,001,2,recog,68,ICILY,LF,lure,-,-,-,liberal,no,z,0,0.706508772483,-1,361
2019_Oct_18,207,001,2,recog,69,BABBLED,LF,lure,-,-,-,conservative,no,z,0,0.626785456353,-3,358
2019_Oct_18,207,001,2,recog,70,RATHER,HF,lure,-,-,-,conservative,no,m,1,0.706767228769,3,361
2019_Oct_18,207,001,2,recog,71,USING,HF,target,left,aqua,imageability,conservative,no,m,0,0.560157258736,-1,360
2019_Oct_18,207,001,2,recog,72,SIMILAR,HF,lure,-,-,-,conservative,no,z,0,0.626899837007,-3,357
2019_Oct_18,207,001,2,recog,73,AREAS,HF,lure,-,-,-,liberal,no,m,1,0.106978539696,1,358
2019_Oct_18,207,001,2,recog,74,PLYWOOD,LF,lure,-,-,-,liberal,no,m,1,0.920060020515,1,359
2019_Oct_18,207,001,2,recog,75,MADDENED,LF,target,left,aqua,imageability,conservative,no,z,1,0.906928608141,1,360
2019_Oct_18,207,001,2,recog,76,HEEDED,LF,target,right,yellow,pleasantness,conservative,no,z,1,0.533495934721,1,361
2019_Oct_18,207,001,2,recog,77,COGENT,LF,target,right,yellow,pleasantness,liberal,no,m,0,0.586807218006,-3,358
2019_Oct_18,207,001,2,recog,78,MIDDLE,HF,target,left,aqua,imageability,liberal,no,z,1,1.35959078121,3,361
2019_Oct_18,207,001,2,recog,79,BROUGHT,HF,lure,-,-,-,conservative,no,z,0,4.10517631118,-3,358
2019_Oct_18,207,001,2,recog,80,DESERTER,LF,lure,-,-,-,conservative,no,z,0,0.333487429493,-3,355
2019_Oct_18,207,001,2,recog,81,LATER,HF,target,right,yellow,pleasantness,conservative,no,m,0,0.320420172935,-1,354
2019_Oct_18,207,001,2,recog,82,SUMMER,HF,lure,-,-,-,liberal,no,z,0,0.213610271383,-1,353
2019_Oct_18,207,001,2,recog,83,BUBBLED,LF,target,right,yellow,pleasantness,liberal,no,z,1,0.0670123993027,3,356
2019_Oct_18,207,001,2,recog,84,FILAMENTS,LF,target,left,aqua,imageability,liberal,no,m,0,0.773213590475,-3,353
2019_Oct_18,207,001,2,recog,85,PUPPETS,LF,target,left,aqua,imageability,conservative,no,z,1,0.720112005056,1,354
2019_Oct_18,207,001,2,recog,86,GIVEN,HF,target,left,aqua,imageability,liberal,no,m,0,0.520225212575,-3,351
2019_Oct_18,207,001,2,recog,87,STOOD,HF,target,left,aqua,imageability,liberal,no,m,0,0.573500201999,-3,348
2019_Oct_18,207,001,2,recog,88,VULTURE,LF,target,left,aqua,imageability,conservative,no,m,0,0.466872136359,-1,347
2019_Oct_18,207,001,2,recog,89,ECONOMIC,HF,lure,-,-,-,conservative,no,m,1,0.320250801581,3,350
2019_Oct_18,207,001,2,recog,90,DAWDLING,LF,target,left,aqua,imageability,liberal,no,m,0,0.360225007277,-3,347
2019_Oct_18,207,001,2,recog,91,COMES,HF,lure,-,-,-,conservative,no,z,0,0.280645400175,-3,344
2019_Oct_18,207,001,2,recog,92,SAWDUST,LF,lure,-,-,-,conservative,no,m,1,0.293604874963,3,347
2019_Oct_18,207,001,2,recog,93,CESSATION,LF,target,right,yellow,pleasantness,conservative,no,m,0,0.840047453307,-1,346
2019_Oct_18,207,001,2,recog,94,GROUND,HF,lure,-,-,-,liberal,no,z,0,5.46486130979,-1,345
2019_Oct_18,207,001,2,recog,95,COLDEST,LF,lure,-,-,-,liberal,no,z,0,0.0269850359309,-1,344
2019_Oct_18,207,001,3,source,0,BUSINESS,HF,target,right,yellow,pleasantness,liberal,no,9,1,2.54607597368,-,-
2019_Oct_18,207,001,3,source,1,TWINE,LF,target,left,aqua,imageability,conservative,no,1,1,0.306885862038,-,-
2019_Oct_18,207,001,3,source,2,EFFECT,HF,target,left,aqua,imageability,liberal,no,1,1,0.266925953924,-,-
2019_Oct_18,207,001,3,source,3,TOWARDS,HF,target,left,aqua,imageability,liberal,no,9,0,0.746867179865,-,-
2019_Oct_18,207,001,3,source,4,CEASELESS,LF,target,left,aqua,imageability,liberal,yes,1,1,0.719841817421,-,-
2019_Oct_18,207,001,3,source,5,TUBERS,LF,target,right,yellow,pleasantness,conservative,no,1,0,0.493881001593,-,-
2019_Oct_18,207,001,3,source,6,HANDS,HF,target,left,aqua,imageability,liberal,no,1,1,0.866486614897,-,-
2019_Oct_18,207,001,3,source,7,FEELING,HF,target,right,yellow,pleasantness,conservative,no,9,1,0.453568419794,-,-
2019_Oct_18,207,001,3,source,8,UNEARTHED,LF,target,right,yellow,pleasantness,liberal,no,9,1,1.71975089946,-,-
2019_Oct_18,207,001,3,source,9,TELEPHONE,HF,target,right,yellow,pleasantness,conservative,no,1,0,0.413270502183,-,-
2019_Oct_18,207,001,3,source,10,NUANCE,LF,target,left,aqua,imageability,liberal,no,1,1,0.293327721838,-,-
2019_Oct_18,207,001,3,source,11,LOBBIES,LF,target,left,aqua,imageability,liberal,no,9,0,0.306958816365,-,-
2019_Oct_18,207,001,3,source,12,SAINTLY,LF,target,right,yellow,pleasantness,liberal,no,9,1,1.51953672902,-,-
2019_Oct_18,207,001,3,source,13,DIGESTING,LF,target,left,aqua,imageability,conservative,no,1,1,0.400227808137,-,-
2019_Oct_18,207,001,3,source,14,NORTH,HF,target,left,aqua,imageability,conservative,no,1,1,0.267051332718,-,-
2019_Oct_18,207,001,3,source,15,VINEYARDS,LF,target,right,yellow,pleasantness,conservative,no,9,1,0.293582512078,-,-
2019_Oct_18,207,001,3,source,16,TEETERED,LF,target,left,aqua,imageability,conservative,no,1,1,0.82677343172,-,-
2019_Oct_18,207,001,3,source,17,UNKEMPT,LF,target,right,yellow,pleasantness,liberal,no,9,1,3.83863565876,-,-
2019_Oct_18,207,001,3,source,18,DECIDED,HF,target,left,aqua,imageability,conservative,no,9,0,0.21364069957,-,-
2019_Oct_18,207,001,3,source,19,REJOICED,LF,target,left,aqua,imageability,conservative,no,9,0,0.132415770746,-,-
2019_Oct_18,207,001,3,source,20,OFFER,HF,target,right,yellow,pleasantness,conservative,no,1,0,0.280233336535,-,-
2019_Oct_18,207,001,3,source,21,SNEAKED,LF,target,right,yellow,pleasantness,liberal,no,9,1,0.200290790818,-,-
2019_Oct_18,207,001,3,source,22,TAILED,LF,target,left,aqua,imageability,liberal,no,1,1,0.480312229858,-,-
2019_Oct_18,207,001,3,source,23,ADDED,HF,target,right,yellow,pleasantness,liberal,no,9,1,0.466860771615,-,-
2019_Oct_18,207,001,3,source,24,CRACKLE,LF,target,left,aqua,imageability,conservative,no,1,1,0.253627003219,-,-
2019_Oct_18,207,001,3,source,25,ASKED,HF,target,right,yellow,pleasantness,conservative,no,1,0,0.733217021894,-,-
2019_Oct_18,207,001,3,source,26,ABUSING,LF,target,right,yellow,pleasantness,conservative,no,9,1,4.15875374945,-,-
2019_Oct_18,207,001,3,source,27,SERIOUS,HF,target,left,aqua,imageability,conservative,no,9,0,0.879778966717,-,-
2019_Oct_18,207,001,3,source,28,MILES,HF,target,right,yellow,pleasantness,conservative,no,1,0,3.63867957799,-,-
2019_Oct_18,207,001,3,source,29,HOSPITAL,HF,target,left,aqua,imageability,conservative,no,1,1,0.45356255412,-,-
2019_Oct_18,207,001,3,source,30,VARIOUS,HF,target,left,aqua,imageability,liberal,no,1,1,0.213673327385,-,-
2019_Oct_18,207,001,3,source,31,TICKLE,LF,target,right,yellow,pleasantness,liberal,no,1,0,0.266975078948,-,-
2019_Oct_18,207,001,3,source,32,SNAGS,LF,target,left,aqua,imageability,liberal,no,9,0,0.360260567929,-,-
2019_Oct_18,207,001,3,source,33,LEPROSY,LF,target,left,aqua,imageability,conservative,no,1,1,0.77342475476,-,-
2019_Oct_18,207,001,3,source,34,FRUGAL,LF,target,right,yellow,pleasantness,conservative,no,9,1,0.866411094337,-,-
2019_Oct_18,207,001,3,source,35,WANTED,HF,target,left,aqua,imageability,conservative,no,1,1,0.613466342392,-,-
2019_Oct_18,207,001,3,source,36,FIFTIETH,LF,target,left,aqua,imageability,liberal,no,9,0,0.466896332267,-,-
2019_Oct_18,207,001,3,source,37,OCHRE,LF,target,right,yellow,pleasantness,conservative,no,1,0,0.586923431683,-,-
2019_Oct_18,207,001,3,source,38,WITHIN,HF,target,right,yellow,pleasantness,liberal,yes,1,0,0.533564856397,-,-
2019_Oct_18,207,001,3,source,39,APOSTLE,LF,target,right,yellow,pleasantness,liberal,no,9,1,0.719839984397,-,-
2019_Oct_18,207,001,3,source,40,FEVERS,LF,target,right,yellow,pleasantness,conservative,no,9,1,0.400196280136,-,-
2019_Oct_18,207,001,3,source,41,MAKES,HF,target,right,yellow,pleasantness,conservative,yes,1,0,0.800170764452,-,-
2019_Oct_18,207,001,3,source,42,SYSTEM,HF,target,right,yellow,pleasantness,liberal,no,9,1,0.853084281679,-,-
2019_Oct_18,207,001,3,source,43,FIGURE,HF,target,right,yellow,pleasantness,liberal,no,1,0,0.280249100535,-,-
2019_Oct_18,207,001,3,source,44,ENTIRELY,HF,target,left,aqua,imageability,liberal,yes,1,1,0.6398596784,-,-
2019_Oct_18,207,001,3,source,45,PUBLIC,HF,target,right,yellow,pleasantness,liberal,no,1,0,1.39963280877,-,-
2019_Oct_18,207,001,3,source,46,SORRY,HF,target,left,aqua,imageability,liberal,no,1,1,0.293708624081,-,-
2019_Oct_18,207,001,3,source,47,THOUSAND,HF,target,left,aqua,imageability,conservative,no,9,0,0.347013675087,-,-
2019_Oct_18,207,001,3,recog,0,JOYFULLY,LF,lure,-,-,-,conservative,no,z,0,0.120347878495,-3,341
2019_Oct_18,207,001,3,recog,1,OUTSIDE,HF,lure,-,-,-,liberal,no,m,1,0.58686807438,1,342
2019_Oct_18,207,001,3,recog,2,MEETING,HF,lure,-,-,-,conservative,no,z,0,0.746753899024,-3,339
2019_Oct_18,207,001,3,recog,3,VINEYARDS,LF,target,right,yellow,pleasantness,conservative,no,m,0,0.773566630764,-1,338
2019_Oct_18,207,001,3,recog,4,REEDY,LF,lure,-,-,-,conservative,yes,z,0,0.400214243764,-3,335
2019_Oct_18,207,001,3,recog,5,ROSEBUD,LF,lure,-,-,-,liberal,no,m,1,1.07999533679,1,336
2019_Oct_18,207,001,3,recog,6,THING,HF,lure,-,-,-,conservative,no,m,1,0.546863807101,3,339
2019_Oct_18,207,001,3,recog,7,ALMOST,HF,lure,-,-,-,liberal,no,m,1,0.639865544074,1,340
2019_Oct_18,207,001,3,recog,8,COVER,HF,lure,-,-,-,liberal,no,z,0,0.85352714011,-1,339
2019_Oct_18,207,001,3,recog,9,IDLING,LF,lure,-,-,-,conservative,no,m,1,0.426604280329,3,342
2019_Oct_18,207,001,3,recog,10,SORRY,HF,target,left,aqua,imageability,liberal,no,m,0,0.320273164466,-3,339
2019_Oct_18,207,001,3,recog,11,HOEING,LF,lure,-,-,-,conservative,no,m,1,0.320283062791,3,342
2019_Oct_18,207,001,3,recog,12,HANDS,HF,target,left,aqua,imageability,liberal,no,z,1,0.546833378914,3,345
2019_Oct_18,207,001,3,recog,13,GARDEN,HF,lure,-,-,-,liberal,no,m,1,0.826694245113,1,346
2019_Oct_18,207,001,3,recog,14,SAINTLY,LF,target,right,yellow,pleasantness,liberal,no,z,1,0.33345810112,3,349
2019_Oct_18,207,001,3,recog,15,SPRATS,LF,lure,-,-,-,liberal,no,z,0,0.786745701744,-1,348
2019_Oct_18,207,001,3,recog,16,ABUSING,LF,target,right,yellow,pleasantness,conservative,no,z,1,0.346781247732,1,349
2019_Oct_18,207,001,3,recog,17,KITCHEN,HF,lure,-,-,-,liberal,no,z,0,0.453546790119,-1,348
2019_Oct_18,207,001,3,recog,18,ASKED,HF,target,right,yellow,pleasantness,conservative,no,z,1,0.453507563421,1,349
2019_Oct_18,207,001,3,recog,19,MOISTENED,LF,lure,-,-,-,conservative,no,m,1,0.586904001636,3,352
2019_Oct_18,207,001,3,recog,20,THOUSAND,HF,target,left,aqua,imageability,conservative,no,m,0,0.559887804309,-1,351
2019_Oct_18,207,001,3,recog,21,TICKLE,LF,target,right,yellow,pleasantness,liberal,yes,m,0,0.853314142801,-3,348
2019_Oct_18,207,001,3,recog,22,SYSTEM,HF,target,right,yellow,pleasantness,liberal,no,m,0,0.933341740801,-3,345
2019_Oct_18,207,001,3,recog,23,BEREAVED,LF,lure,-,-,-,liberal,no,m,1,0.602577450734,1,346
2019_Oct_18,207,001,3,recog,24,HOSPITAL,HF,target,left,aqua,imageability,conservative,no,m,0,2.1728823265,-1,345
2019_Oct_18,207,001,3,recog,25,HITCHING,LF,lure,-,-,-,conservative,no,z,0,0.600050444802,-3,342
2019_Oct_18,207,001,3,recog,26,FRUGAL,LF,target,right,yellow,pleasantness,conservative,no,m,0,0.840064317122,-1,341
2019_Oct_18,207,001,3,recog,27,CEASELESS,LF,target,left,aqua,imageability,liberal,no,z,1,0.213643999012,3,344
2019_Oct_18,207,001,3,recog,28,FIFTIETH,LF,target,left,aqua,imageability,liberal,no,m,0,0.813337004268,-3,341
2019_Oct_18,207,001,3,recog,29,WITHIN,HF,target,right,yellow,pleasantness,liberal,no,z,1,0.533449009325,3,344
2019_Oct_18,207,001,3,recog,30,ONCOMING,LF,lure,-,-,-,liberal,no,m,1,0.986640926131,1,345
2019_Oct_18,207,001,3,recog,31,OFFER,HF,target,right,yellow,pleasantness,conservative,no,z,1,0.61346927523,1,346
2019_Oct_18,207,001,3,recog,32,TELEPHONE,HF,target,right,yellow,pleasantness,conservative,no,z,1,0.306908958132,1,347
2019_Oct_18,207,001,3,recog,33,PUBLIC,HF,target,right,yellow,pleasantness,liberal,no,z,1,0.267039234764,3,350
2019_Oct_18,207,001,3,recog,34,FINAL,HF,lure,-,-,-,conservative,no,z,0,0.413490098374,-3,347
2019_Oct_18,207,001,3,recog,35,MAKES,HF,target,right,yellow,pleasantness,conservative,no,z,1,0.440214111787,1,348
2019_Oct_18,207,001,3,recog,36,FEVERS,LF,target,right,yellow,pleasantness,conservative,no,m,0,0.680162361873,-1,347
2019_Oct_18,207,001,3,recog,37,FRACTIONS,LF,lure,-,-,-,liberal,no,m,1,0.426861636802,1,348
2019_Oct_18,207,001,3,recog,38,MILES,HF,target,right,yellow,pleasantness,conservative,no,m,0,0.226889058831,-1,347
2019_Oct_18,207,001,3,recog,39,SITTING,HF,lure,-,-,-,conservative,no,m,1,0.173746047085,3,350
2019_Oct_18,207,001,3,recog,40,LEPROSY,LF,target,left,aqua,imageability,conservative,no,m,0,0.0669640074875,-1,349
2019_Oct_18,207,001,3,recog,41,TAILED,LF,target,left,aqua,imageability,liberal,no,m,0,0.493484701954,-3,346
2019_Oct_18,207,001,3,recog,42,SNAGS,LF,target,left,aqua,imageability,liberal,no,m,0,2.22623173667,-3,343
2019_Oct_18,207,001,3,recog,43,THUDDING,LF,lure,-,-,-,liberal,no,z,0,1.14659713887,-1,342
2019_Oct_18,207,001,3,recog,44,APOSTLE,LF,target,right,yellow,pleasantness,liberal,no,z,1,1.85296550177,3,345
2019_Oct_18,207,001,3,recog,45,WANTED,HF,target,left,aqua,imageability,conservative,yes,z,1,0.120344579053,1,346
2019_Oct_18,207,001,3,recog,46,TOWARDS,HF,target,left,aqua,imageability,liberal,no,m,0,0.600179856247,-3,343
2019_Oct_18,207,001,3,recog,47,ENERGY,HF,lure,-,-,-,conservative,no,z,0,1.07994804479,-3,340
2019_Oct_18,207,001,3,recog,48,OCHRE,LF,target,right,yellow,pleasantness,conservative,no,m,0,0.906776100602,-1,339
2019_Oct_18,207,001,3,recog,49,STRAIGHT,HF,lure,-,-,-,liberal,no,z,0,0.680119835732,-1,338
2019_Oct_18,207,001,3,recog,50,LETTER,HF,lure,-,-,-,conservative,no,z,0,0.280258998861,-3,335
2019_Oct_18,207,001,3,recog,51,ALABASTER,LF,lure,-,-,-,conservative,no,m,1,0.999982402976,3,338
2019_Oct_18,207,001,3,recog,52,PLEASE,HF,lure,-,-,-,liberal,no,m,1,0.9333259768,1,339
2019_Oct_18,207,001,3,recog,53,INLAID,LF,lure,-,-,-,conservative,no,m,1,2.17293768381,3,342
2019_Oct_18,207,001,3,recog,54,UNKEMPT,LF,target,right,yellow,pleasantness,liberal,no,m,0,0.413291032044,-3,339
2019_Oct_18,207,001,3,recog,55,DOGMAS,LF,lure,-,-,-,liberal,no,z,0,0.773391027131,-1,338
2019_Oct_18,207,001,3,recog,56,TALKING,HF,lure,-,-,-,conservative,no,z,0,1.22656351389,-3,335
2019_Oct_18,207,001,3,recog,57,NICETIES,LF,lure,-,-,-,liberal,no,z,0,0.426639474377,-1,334
2019_Oct_18,207,001,3,recog,58,TWINE,LF,target,left,aqua,imageability,conservative,no,m,0,0.293670497197,-1,333
2019_Oct_18,207,001,3,recog,59,SOVIET,HF,lure,-,-,-,conservative,no,m,1,0.293604874962,3,336
2019_Oct_18,207,001,3,recog,60,BEYOND,HF,lure,-,-,-,liberal,no,z,0,0.4535845504,-1,335
2019_Oct_18,207,001,3,recog,61,DUELLING,LF,lure,-,-,-,liberal,no,m,1,0.25378354341,1,336
2019_Oct_18,207,001,3,recog,62,DEPARTS,LF,lure,-,-,-,liberal,no,m,1,0.280505723799,1,337
2019_Oct_18,207,001,3,recog,63,SOCIAL,HF,lure,-,-,-,liberal,no,z,0,0.933290782752,-1,336
2019_Oct_18,207,001,3,recog,64,LAYERED,LF,lure,-,-,-,conservative,no,z,0,0.107032063977,-3,333
2019_Oct_18,207,001,3,recog,65,BREAK,HF,lure,-,-,-,conservative,no,m,1,1.90625955463,3,336
2019_Oct_18,207,001,3,recog,66,MIGHTILY,LF,lure,-,-,-,liberal,yes,z,0,1.59972856591,-1,335
2019_Oct_18,207,001,3,recog,67,BUSINESS,HF,target,right,yellow,pleasantness,liberal,no,z,1,6.34468463567,3,338
2019_Oct_18,207,001,3,recog,68,REJOICED,LF,target,left,aqua,imageability,conservative,no,m,0,0.533646609237,-1,337
2019_Oct_18,207,001,3,recog,69,POACHED,LF,lure,-,-,-,conservative,no,z,0,0.293712290128,-3,334
2019_Oct_18,207,001,3,recog,70,EFFECT,HF,target,left,aqua,imageability,liberal,no,z,1,0.200264028677,3,337
2019_Oct_18,207,001,3,recog,71,SNEAKED,LF,target,right,yellow,pleasantness,liberal,no,z,1,0.253677228058,3,340
2019_Oct_18,207,001,3,recog,72,VARIOUS,HF,target,left,aqua,imageability,liberal,no,z,1,0.120302052913,3,343
2019_Oct_18,207,001,3,recog,73,LOBBIES,LF,target,left,aqua,imageability,liberal,no,m,0,0.0800730569767,-3,340
2019_Oct_18,207,001,3,recog,74,ARRIVED,HF,lure,-,-,-,liberal,no,z,0,0.25357274573,-1,339
2019_Oct_18,207,001,3,recog,75,DIGESTING,LF,target,left,aqua,imageability,conservative,no,z,1,1.23991672209,1,340
2019_Oct_18,207,001,3,recog,76,TUBERS,LF,target,right,yellow,pleasantness,conservative,no,z,1,0.866739205509,1,341
2019_Oct_18,207,001,3,recog,77,ADDED,HF,target,right,yellow,pleasantness,liberal,no,m,0,1.55984124552,-3,338
2019_Oct_18,207,001,3,recog,78,UNEARTHED,LF,target,right,yellow,pleasantness,liberal,no,m,0,0.720076444404,-3,335
2019_Oct_18,207,001,3,recog,79,NORTH,HF,target,left,aqua,imageability,conservative,no,m,0,3.06586016085,-1,334
2019_Oct_18,207,001,3,recog,80,FORCE,HF,lure,-,-,-,liberal,no,z,0,0.75967158088,-1,333
2019_Oct_18,207,001,3,recog,81,VANDALS,LF,lure,-,-,-,conservative,no,m,1,0.413526392236,3,336
2019_Oct_18,207,001,3,recog,82,CRACKLE,LF,target,left,aqua,imageability,conservative,no,m,0,5.35802354628,-1,335
2019_Oct_18,207,001,3,recog,83,ENTIRELY,HF,target,left,aqua,imageability,liberal,no,m,0,0.213646931849,-3,332
2019_Oct_18,207,001,3,recog,84,FEELING,HF,target,right,yellow,pleasantness,conservative,no,z,1,0.200321585609,1,333
2019_Oct_18,207,001,3,recog,85,HUMAN,HF,lure,-,-,-,conservative,no,m,1,1.3599676508,3,336
2019_Oct_18,207,001,3,recog,86,NUANCE,LF,target,left,aqua,imageability,liberal,no,z,1,0.280223438209,3,339
2019_Oct_18,207,001,3,recog,87,DECIDED,HF,target,left,aqua,imageability,conservative,no,m,0,0.44019394853,-1,338
2019_Oct_18,207,001,3,recog,88,LEMURS,LF,lure,-,-,-,liberal,no,z,0,0.360522323658,-1,337
2019_Oct_18,207,001,3,recog,89,AHEAD,HF,lure,-,-,-,conservative,no,z,0,0.133487356172,-3,334
2019_Oct_18,207,001,3,recog,90,SERIOUS,HF,target,left,aqua,imageability,conservative,no,m,0,0.147086556094,-1,333
2019_Oct_18,207,001,3,recog,91,TEETERED,LF,target,left,aqua,imageability,conservative,no,m,0,1.54642388151,-1,332
2019_Oct_18,207,001,3,recog,92,INSIDE,HF,lure,-,-,-,conservative,no,z,0,2.82589394714,-3,329
2019_Oct_18,207,001,3,recog,93,FIGURE,HF,target,right,yellow,pleasantness,liberal,no,z,1,1.62611603624,3,332
2019_Oct_18,207,001,3,recog,94,SPUDS,LF,lure,-,-,-,conservative,no,z,0,0.600139529734,-3,329
2019_Oct_18,207,001,3,recog,95,SAYING,HF,lure,-,-,-,liberal,no,z,0,0.666578559346,-1,328
2019_Oct_18,207,001,4,source,0,HATCHES,LF,target,right,yellow,pleasantness,liberal,no,9,1,2.10619950479,-,-
2019_Oct_18,207,001,4,source,1,DIFFERENT,HF,target,left,aqua,imageability,conservative,no,1,1,1.08004116237,-,-
2019_Oct_18,207,001,4,source,2,RIPEN,LF,target,right,yellow,pleasantness,conservative,no,1,0,0.466632743516,-,-
2019_Oct_18,207,001,4,source,3,MOTHER,HF,target,left,aqua,imageability,liberal,no,9,0,0.706749265141,-,-
2019_Oct_18,207,001,4,source,4,WAKED,LF,target,left,aqua,imageability,conservative,no,9,0,1.05309681956,-,-
2019_Oct_18,207,001,4,source,5,RUDIMENTS,LF,target,right,yellow,pleasantness,conservative,no,9,1,0.69348514188,-,-
2019_Oct_18,207,001,4,source,6,GULLIBLE,LF,target,right,yellow,pleasantness,conservative,no,9,1,0.919979000885,-,-
2019_Oct_18,207,001,4,source,7,BASIC,HF,target,left,aqua,imageability,liberal,no,1,1,0.573226714922,-,-
2019_Oct_18,207,001,4,source,8,OLDER,HF,target,left,aqua,imageability,liberal,no,1,1,0.493562788747,-,-
2019_Oct_18,207,001,4,source,9,BULBOUS,LF,target,right,yellow,pleasantness,conservative,no,9,1,0.666912169588,-,-
2019_Oct_18,207,001,4,source,10,CICADAS,LF,target,left,aqua,imageability,conservative,no,9,0,0.680131567081,-,-
2019_Oct_18,207,001,4,source,11,BLEACH,LF,target,left,aqua,imageability,liberal,no,1,1,0.840069816192,-,-
2019_Oct_18,207,001,4,source,12,SWIFTNESS,LF,target,left,aqua,imageability,liberal,no,9,0,0.786460116712,-,-
2019_Oct_18,207,001,4,source,13,POWER,HF,target,right,yellow,pleasantness,conservative,no,9,1,0.640137198129,-,-
2019_Oct_18,207,001,4,source,14,LOUDEST,LF,target,left,aqua,imageability,liberal,no,1,1,0.573505334464,-,-
2019_Oct_18,207,001,4,source,15,STICKER,LF,target,left,aqua,imageability,liberal,no,9,0,0.746494342923,-,-
2019_Oct_18,207,001,4,source,16,EXPECT,HF,target,left,aqua,imageability,liberal,yes,9,0,1.10657417475,-,-
2019_Oct_18,207,001,4,source,17,DEJECTED,LF,target,left,aqua,imageability,conservative,no,1,1,0.760223320896,-,-
2019_Oct_18,207,001,4,source,18,ROUND,HF,target,left,aqua,imageability,liberal,no,1,1,0.799853651419,-,-
2019_Oct_18,207,001,4,source,19,JOURNEYED,LF,target,right,yellow,pleasantness,conservative,no,9,1,0.853371333129,-,-
2019_Oct_18,207,001,4,source,20,OTHERS,HF,target,right,yellow,pleasantness,liberal,no,9,1,0.746524771111,-,-
2019_Oct_18,207,001,4,source,21,WHOLE,HF,target,left,aqua,imageability,conservative,yes,9,0,0.786765131791,-,-
2019_Oct_18,207,001,4,source,22,ALTHOUGH,HF,target,left,aqua,imageability,liberal,no,1,1,1.21320810607,-,-
2019_Oct_18,207,001,4,source,23,SINCE,HF,target,right,yellow,pleasantness,liberal,no,1,0,0.826512409201,-,-
2019_Oct_18,207,001,4,source,24,EJECTED,LF,target,left,aqua,imageability,liberal,no,1,1,0.760103074567,-,-
2019_Oct_18,207,001,4,source,25,INDEED,HF,target,right,yellow,pleasantness,liberal,no,9,1,0.746467214179,-,-
2019_Oct_18,207,001,4,source,26,KRAALS,LF,target,right,yellow,pleasantness,liberal,no,9,1,0.720057014357,-,-
2019_Oct_18,207,001,4,source,27,JOSTLED,LF,target,right,yellow,pleasantness,liberal,no,9,1,0.653477208555,-,-
2019_Oct_18,207,001,4,source,28,APPEARED,HF,target,right,yellow,pleasantness,liberal,no,1,0,0.746465014551,-,-
2019_Oct_18,207,001,4,source,29,ALLOWED,HF,target,right,yellow,pleasantness,conservative,no,1,0,0.693418786436,-,-
2019_Oct_18,207,001,4,source,30,BLUECOATS,LF,target,left,aqua,imageability,conservative,no,1,1,0.693448848018,-,-
2019_Oct_18,207,001,4,source,31,EUPHEMISM,LF,target,right,yellow,pleasantness,liberal,no,9,1,0.680352629692,-,-
2019_Oct_18,207,001,4,source,32,TURNED,HF,target,left,aqua,imageability,conservative,no,9,0,0.719854281979,-,-
2019_Oct_18,207,001,4,source,33,RETURN,HF,target,right,yellow,pleasantness,conservative,no,1,0,0.866750203649,-,-
2019_Oct_18,207,001,4,source,34,SOMEONE,HF,target,left,aqua,imageability,conservative,no,9,0,0.506919296383,-,-
2019_Oct_18,207,001,4,source,35,TABLE,HF,target,left,aqua,imageability,conservative,no,9,0,0.693402655831,-,-
2019_Oct_18,207,001,4,source,36,DEGREE,HF,target,right,yellow,pleasantness,conservative,no,1,0,0.733222520964,-,-
2019_Oct_18,207,001,4,source,37,SUAVE,LF,target,right,yellow,pleasantness,liberal,no,9,1,0.546793785611,-,-
2019_Oct_18,207,001,4,source,38,IMPORTANT,HF,target,right,yellow,pleasantness,conservative,no,9,1,0.933401130756,-,-
2019_Oct_18,207,001,4,source,39,REQUIRED,HF,target,right,yellow,pleasantness,conservative,no,9,1,0.653430649762,-,-
2019_Oct_18,207,001,4,source,40,CHLORIDE,LF,target,right,yellow,pleasantness,liberal,no,9,1,0.906417927848,-,-
2019_Oct_18,207,001,4,source,41,ALIAS,LF,target,left,aqua,imageability,conservative,no,9,0,0.586554260789,-,-
2019_Oct_18,207,001,4,source,42,MODERN,HF,target,right,yellow,pleasantness,liberal,no,1,0,0.626854378029,-,-
2019_Oct_18,207,001,4,source,43,ASHEN,LF,target,right,yellow,pleasantness,conservative,no,1,0,0.840023990609,-,-
2019_Oct_18,207,001,4,source,44,DAPPER,LF,target,left,aqua,imageability,conservative,yes,1,1,0.666768827166,-,-
2019_Oct_18,207,001,4,source,45,SLEEP,HF,target,left,aqua,imageability,conservative,no,9,0,0.586823715215,-,-
2019_Oct_18,207,001,4,source,46,MAJOR,HF,target,right,yellow,pleasantness,liberal,yes,9,1,0.346680064845,-,-
2019_Oct_18,207,001,4,source,47,AFFABLE,LF,target,left,aqua,imageability,liberal,no,1,1,0.573496535952,-,-
2019_Oct_18,207,001,4,recog,0,POWER,HF,target,right,yellow,pleasantness,conservative,no,z,1,0.946600731596,1,329
2019_Oct_18,207,001,4,recog,1,INDEED,HF,target,right,yellow,pleasantness,liberal,no,z,1,0.600189387968,3,332
2019_Oct_18,207,001,4,recog,2,BRING,HF,lure,-,-,-,liberal,no,m,1,0.786487978667,1,333
2019_Oct_18,207,001,4,recog,3,DOUBT,HF,lure,-,-,-,conservative,no,m,1,0.560162391201,3,336
2019_Oct_18,207,001,4,recog,4,BEAUTIFUL,HF,lure,-,-,-,conservative,no,m,1,0.813505642412,3,339
2019_Oct_18,207,001,4,recog,5,EUPHEMISM,LF,target,right,yellow,pleasantness,liberal,no,z,1,0.746759398094,3,342
2019_Oct_18,207,001,4,recog,6,BASIC,HF,target,left,aqua,imageability,liberal,no,z,1,0.480165221389,3,345
2019_Oct_18,207,001,4,recog,7,ALERTING,LF,lure,-,-,-,liberal,no,m,1,0.960005631047,1,346
2019_Oct_18,207,001,4,recog,8,APPEARED,HF,target,right,yellow,pleasantness,liberal,no,m,0,0.720167728965,-3,343
2019_Oct_18,207,001,4,recog,9,GULLIBLE,LF,target,right,yellow,pleasantness,conservative,no,z,1,0.506874570614,1,344
2019_Oct_18,207,001,4,recog,10,DUPLICITY,LF,lure,-,-,-,conservative,no,m,1,0.800016790493,3,347
2019_Oct_18,207,001,4,recog,11,BEHIND,HF,lure,-,-,-,conservative,no,z,0,0.586616216977,-3,344
2019_Oct_18,207,001,4,recog,12,GLASS,HF,lure,-,-,-,liberal,no,m,1,0.75979585986,1,345
2019_Oct_18,207,001,4,recog,13,NIPPED,LF,lure,-,-,-,conservative,no,m,1,0.759819689163,3,348
2019_Oct_18,207,001,4,recog,14,TERMS,HF,lure,-,-,-,liberal,no,m,1,0.653366493947,1,349
2019_Oct_18,207,001,4,recog,15,REQUIRED,HF,target,right,yellow,pleasantness,conservative,no,z,1,0.640122900547,1,350
2019_Oct_18,207,001,4,recog,16,DRINK,HF,lure,-,-,-,liberal,yes,z,0,0.813184130124,-1,349
2019_Oct_18,207,001,4,recog,17,DAPPER,LF,target,left,aqua,imageability,conservative,no,m,0,0.69348990774,-1,348
2019_Oct_18,207,001,4,recog,18,CICADAS,LF,target,left,aqua,imageability,conservative,no,z,1,0.786685945184,1,349
2019_Oct_18,207,001,4,recog,19,JOURNEYED,LF,target,right,yellow,pleasantness,conservative,no,z,1,0.666889806704,1,350
2019_Oct_18,207,001,4,recog,20,PATCHY,LF,lure,-,-,-,conservative,no,m,1,0.760128370288,3,353
2019_Oct_18,207,001,4,recog,21,YOUNG,HF,lure,-,-,-,liberal,no,m,1,0.613490904905,1,354
2019_Oct_18,207,001,4,recog,22,SOMEONE,HF,target,left,aqua,imageability,conservative,no,z,1,0.653568493115,1,355
2019_Oct_18,207,001,4,recog,23,HAVING,HF,lure,-,-,-,liberal,no,m,1,0.733200524684,1,356
2019_Oct_18,207,001,4,recog,24,TABLE,HF,target,left,aqua,imageability,conservative,yes,m,0,0.933310212799,-1,355
2019_Oct_18,207,001,4,recog,25,LIMELIGHT,LF,lure,-,-,-,conservative,no,m,1,0.693455446902,3,358
2019_Oct_18,207,001,4,recog,26,SLEEP,HF,target,left,aqua,imageability,conservative,no,z,1,0.813424989386,1,359
2019_Oct_18,207,001,4,recog,27,ALIAS,LF,target,left,aqua,imageability,conservative,no,z,1,0.586552427766,1,360
2019_Oct_18,207,001,4,recog,28,RASCAL,LF,lure,-,-,-,liberal,no,z,0,0.919746940134,-1,359
2019_Oct_18,207,001,4,recog,29,RIPEN,LF,target,right,yellow,pleasantness,conservative,no,z,1,0.546904500219,1,360
2019_Oct_18,207,001,4,recog,30,MOTHER,HF,target,left,aqua,imageability,liberal,no,z,1,0.946672219505,3,363
2019_Oct_18,207,001,4,recog,31,ARTIFACTS,LF,lure,-,-,-,liberal,no,m,1,0.839955802142,1,364
2019_Oct_18,207,001,4,recog,32,MODERN,HF,target,right,yellow,pleasantness,liberal,no,z,1,0.586788521168,3,367
2019_Oct_18,207,001,4,recog,33,WHOLE,HF,target,left,aqua,imageability,conservative,no,z,1,0.626576125092,1,368
2019_Oct_18,207,001,4,recog,34,RETURN,HF,target,right,yellow,pleasantness,conservative,no,z,1,0.773552699787,1,369
2019_Oct_18,207,001,4,recog,35,SINCE,HF,target,right,yellow,pleasantness,liberal,no,m,0,0.70676099649,-3,366
2019_Oct_18,207,001,4,recog,36,ROUND,HF,target,left,aqua,imageability,liberal,no,z,1,0.533498134349,3,369
2019_Oct_18,207,001,4,recog,37,MONEY,HF,lure,-,-,-,conservative,no,m,1,0.666767360747,3,372
2019_Oct_18,207,001,4,recog,38,EJECTED,LF,target,left,aqua,imageability,liberal,no,z,1,0.573475639487,3,375
2019_Oct_18,207,001,4,recog,39,KRAALS,LF,target,right,yellow,pleasantness,liberal,no,z,1,0.586939562289,3,378
2019_Oct_18,207,001,4,recog,40,ALTHOUGH,HF,target,left,aqua,imageability,liberal,no,z,1,0.640188522781,3,381
2019_Oct_18,207,001,4,recog,41,MAJOR,HF,target,right,yellow,pleasantness,liberal,no,z,1,0.626582723975,3,384
2019_Oct_18,207,001,4,recog,42,IMPORTANT,HF,target,right,yellow,pleasantness,conservative,no,z,1,0.640246812922,1,385
2019_Oct_18,207,001,4,recog,43,HERSELF,HF,lure,-,-,-,conservative,no,z,0,0.879825892114,-3,382
2019_Oct_18,207,001,4,recog,44,FURTHER,HF,lure,-,-,-,liberal,no,z,0,0.720502072416,-1,381
2019_Oct_18,207,001,4,recog,45,JOSTLED,LF,target,right,yellow,pleasantness,liberal,no,z,1,0.480154589854,3,384
2019_Oct_18,207,001,4,recog,46,LOUDEST,LF,target,left,aqua,imageability,liberal,no,z,1,0.320335120653,3,387
2019_Oct_18,207,001,4,recog,47,SWIFTNESS,LF,target,left,aqua,imageability,liberal,yes,z,1,0.280165514673,3,390
2019_Oct_18,207,001,4,recog,48,SECOND,HF,lure,-,-,-,conservative,no,z,0,0.33353362168,-3,387
2019_Oct_18,207,001,4,recog,49,QUESTION,HF,lure,-,-,-,conservative,no,m,1,0.706795090724,3,390
2019_Oct_18,207,001,4,recog,50,HILLSIDES,LF,lure,-,-,-,conservative,no,m,1,0.746689009999,3,393
2019_Oct_18,207,001,4,recog,51,BLUECOATS,LF,target,left,aqua,imageability,conservative,no,z,1,1.53308240466,1,394
2019_Oct_18,207,001,4,recog,52,ABSENCES,LF,lure,-,-,-,liberal,no,z,0,0.786747901372,-1,393
2019_Oct_18,207,001,4,recog,53,RUDIMENTS,LF,target,right,yellow,pleasantness,conservative,no,m,0,0.586876139682,-1,392
2019_Oct_18,207,001,4,recog,54,RESEARCH,HF,lure,-,-,-,conservative,no,m,1,0.6002311809,3,395
2019_Oct_18,207,001,4,recog,55,GERANIUMS,LF,lure,-,-,-,conservative,no,m,1,0.720074244776,3,398
2019_Oct_18,207,001,4,recog,56,CAVERN,LF,lure,-,-,-,liberal,no,m,1,0.640070109475,1,399
2019_Oct_18,207,001,4,recog,57,JUTTED,LF,lure,-,-,-,liberal,no,z,0,0.600149794665,-1,398
2019_Oct_18,207,001,4,recog,58,WAKED,LF,target,left,aqua,imageability,conservative,no,z,1,0.733416088226,1,399
2019_Oct_18,207,001,4,recog,59,TOFFEE,LF,lure,-,-,-,conservative,no,z,0,0.626848145751,-3,396
2019_Oct_18,207,001,4,recog,60,ASHEN,LF,target,right,yellow,pleasantness,conservative,no,z,1,0.720112371661,1,397
2019_Oct_18,207,001,4,recog,61,ORCHARDS,LF,lure,-,-,-,liberal,no,m,1,0.786900408911,1,398
2019_Oct_18,207,001,4,recog,62,EXPECT,HF,target,left,aqua,imageability,liberal,no,m,0,0.506823245962,-3,395
2019_Oct_18,207,001,4,recog,63,BILATERAL,LF,lure,-,-,-,liberal,no,m,1,0.720187159012,1,396
2019_Oct_18,207,001,4,recog,64,BULBOUS,LF,target,right,yellow,pleasantness,conservative,no,m,0,0.680079875824,-1,395
2019_Oct_18,207,001,4,recog,65,HATCHES,LF,target,right,yellow,pleasantness,liberal,no,z,1,0.586539963208,3,398
2019_Oct_18,207,001,4,recog,66,WINDOW,HF,lure,-,-,-,liberal,no,z,0,0.626816251145,-1,397
2019_Oct_18,207,001,4,recog,67,GUESSWORK,LF,lure,-,-,-,conservative,no,z,0,0.733423786924,-3,394
2019_Oct_18,207,001,4,recog,68,DAFFODILS,LF,lure,-,-,-,liberal,no,z,0,0.533472838627,-1,393
2019_Oct_18,207,001,4,recog,69,DEGREE,HF,target,right,yellow,pleasantness,conservative,no,m,0,0.466851973103,-1,392
2019_Oct_18,207,001,4,recog,70,PEOPLED,LF,lure,-,-,-,liberal,no,z,0,0.506823245962,-1,391
2019_Oct_18,207,001,4,recog,71,STICKER,LF,target,left,aqua,imageability,liberal,no,m,0,0.107037563047,-3,388
2019_Oct_18,207,001,4,recog,72,HOVELS,LF,lure,-,-,-,conservative,no,m,1,0.666886507262,3,391
2019_Oct_18,207,001,4,recog,73,BOXCAR,LF,lure,-,-,-,liberal,no,m,1,0.973067021931,1,392
2019_Oct_18,207,001,4,recog,74,OLDER,HF,target,left,aqua,imageability,liberal,no,m,0,1.73301978859,-3,389
2019_Oct_18,207,001,4,recog,75,FLYWHEEL,LF,lure,-,-,-,conservative,no,m,1,0.706762829514,3,392
2019_Oct_18,207,001,4,recog,76,CHLORIDE,LF,target,right,yellow,pleasantness,liberal,no,z,1,0.613490904905,3,395
2019_Oct_18,207,001,4,recog,77,EITHER,HF,lure,-,-,-,liberal,no,m,1,1.25297224729,1,396
2019_Oct_18,207,001,4,recog,78,TURNED,HF,target,left,aqua,imageability,conservative,no,z,1,0.800051251332,1,397
2019_Oct_18,207,001,4,recog,79,DEJECTED,LF,target,left,aqua,imageability,conservative,no,z,1,0.719742467557,1,398
2019_Oct_18,207,001,4,recog,80,TAMING,LF,lure,-,-,-,conservative,no,m,1,1.84004048782,3,401
2019_Oct_18,207,001,4,recog,81,VORACIOUS,LF,lure,-,-,-,conservative,no,z,0,0.946462888243,-3,398
2019_Oct_18,207,001,4,recog,82,WRONG,HF,lure,-,-,-,conservative,no,m,1,0.439946490384,3,401
2019_Oct_18,207,001,4,recog,83,DIFFERENT,HF,target,left,aqua,imageability,conservative,no,m,0,0.73349820767,-1,400
2019_Oct_18,207,001,4,recog,84,SENSE,HF,lure,-,-,-,conservative,no,m,1,0.746862414004,3,403
2019_Oct_18,207,001,4,recog,85,MOUTH,HF,lure,-,-,-,conservative,no,z,0,0.613459743509,-3,400
2019_Oct_18,207,001,4,recog,86,ARCADES,LF,lure,-,-,-,liberal,no,m,1,0.733400324225,1,401
2019_Oct_18,207,001,4,recog,87,SUAVE,LF,target,right,yellow,pleasantness,liberal,yes,m,0,0.760125437451,-3,398
2019_Oct_18,207,001,4,recog,88,VOICE,HF,lure,-,-,-,liberal,no,m,1,0.559834646634,1,399
2019_Oct_18,207,001,4,recog,89,SUDDENLY,HF,lure,-,-,-,liberal,no,z,0,1.74632863762,-1,398
2019_Oct_18,207,001,4,recog,90,ALLOWED,HF,target,right,yellow,pleasantness,conservative,no,z,1,0.57323991269,1,399
2019_Oct_18,207,001,4,recog,91,AFFABLE,LF,target,left,aqua,imageability,liberal,no,z,1,0.413513927678,3,402
2019_Oct_18,207,001,4,recog,92,OTHERS,HF,target,right,yellow,pleasantness,liberal,no,z,1,0.6668186854,3,405
2019_Oct_18,207,001,4,recog,93,SOUND,HF,lure,-,-,-,conservative,no,z,0,0.520317963555,-3,402
2019_Oct_18,207,001,4,recog,94,BLEACH,LF,target,left,aqua,imageability,liberal,no,z,1,0.586793653633,3,405
2019_Oct_18,207,001,4,recog,95,WAITING,HF,lure,-,-,-,liberal,no,z,0,0.680142198616,-1,404
