date,subj,session,cycle,task,trial,item,wf,type,source,colour,encoding,bias,null,response,corr,rt,points,total
2019_Oct_22,208,001,0,source,0,NUMBER,HF,target,right,aqua,pleasantness,liberal,no,None,-1,-1,-,-
2019_Oct_22,208,001,0,source,1,SWOOPING,LF,target,left,yellow,imageability,liberal,no,1,1,2.09296177706,-,-
2019_Oct_22,208,001,0,source,2,OBTAINS,LF,target,left,yellow,imageability,conservative,no,8,0,4.5583454985,-,-
2019_Oct_22,208,001,0,source,3,QUESTION,HF,target,left,yellow,imageability,liberal,no,7,0,6.2643285599,-,-
2019_Oct_22,208,001,0,source,4,OCHRE,LF,target,right,aqua,pleasantness,liberal,no,9,1,3.14559850777,-,-
2019_Oct_22,208,001,0,source,5,TALKING,HF,target,left,yellow,imageability,conservative,no,2,1,2.78596923307,-,-
2019_Oct_22,208,001,0,source,6,MUTATIONS,LF,target,right,aqua,pleasantness,conservative,no,9,1,2.91924982421,-,-
2019_Oct_22,208,001,0,source,7,TILTS,LF,target,right,aqua,pleasantness,liberal,no,9,1,1.6397335664,-,-
2019_Oct_22,208,001,0,source,8,SMEARING,LF,target,left,yellow,imageability,conservative,no,3,1,3.9186199974,-,-
2019_Oct_22,208,001,0,source,9,RETURN,HF,target,left,yellow,imageability,conservative,no,3,1,2.18595031627,-,-
2019_Oct_22,208,001,0,source,10,ATTACK,HF,target,right,aqua,pleasantness,conservative,no,7,1,2.35928173348,-,-
2019_Oct_22,208,001,0,source,11,GERANIUMS,LF,target,right,aqua,pleasantness,conservative,no,9,1,2.29285773466,-,-
2019_Oct_22,208,001,0,source,12,PADDLE,LF,target,left,yellow,imageability,liberal,no,3,1,1.94604569214,-,-
2019_Oct_22,208,001,0,source,13,PAWNS,LF,target,right,aqua,pleasantness,conservative,no,8,1,2.74573253844,-,-
2019_Oct_22,208,001,0,source,14,DAPPER,LF,target,right,aqua,pleasantness,liberal,no,8,1,2.83928454901,-,-
2019_Oct_22,208,001,0,source,15,WOBBLE,LF,target,left,yellow,imageability,liberal,no,8,0,1.95956827169,-,-
2019_Oct_22,208,001,0,source,16,MOMENT,HF,target,right,aqua,pleasantness,liberal,no,9,1,1.78608214731,-,-
2019_Oct_22,208,001,0,source,17,DURING,HF,target,right,aqua,pleasantness,liberal,no,7,1,2.1996682961,-,-
2019_Oct_22,208,001,0,source,18,LANGUAGE,HF,target,left,yellow,imageability,liberal,no,7,0,3.57233733201,-,-
2019_Oct_22,208,001,0,source,19,DEBACLE,LF,target,left,yellow,imageability,liberal,no,2,1,3.29243540609,-,-
2019_Oct_22,208,001,0,source,20,SARDINES,LF,target,right,aqua,pleasantness,conservative,no,1,0,2.35943130818,-,-
2019_Oct_22,208,001,0,source,21,CAPITAL,HF,target,left,yellow,imageability,conservative,yes,3,1,1.55974372868,-,-
2019_Oct_22,208,001,0,source,22,STUDENT,HF,target,right,aqua,pleasantness,conservative,no,7,1,2.26617038172,-,-
2019_Oct_22,208,001,0,source,23,PAPER,HF,target,right,aqua,pleasantness,conservative,no,9,1,2.78577676562,-,-
2019_Oct_22,208,001,0,source,24,GRIEVE,LF,target,right,aqua,pleasantness,liberal,no,8,1,2.74597083147,-,-
2019_Oct_22,208,001,0,source,25,VILLAGE,HF,target,left,yellow,imageability,liberal,no,9,0,3.13251805345,-,-
2019_Oct_22,208,001,0,source,26,HOTEL,HF,target,left,yellow,imageability,conservative,no,1,1,1.90630171417,-,-
2019_Oct_22,208,001,0,source,27,ADVERSELY,LF,target,left,yellow,imageability,liberal,no,7,0,3.19919024362,-,-
2019_Oct_22,208,001,0,source,28,DEGREE,HF,target,right,aqua,pleasantness,conservative,no,3,0,3.66562062137,-,-
2019_Oct_22,208,001,0,source,29,CANNOT,HF,target,left,yellow,imageability,liberal,no,2,1,2.39943594207,-,-
2019_Oct_22,208,001,0,source,30,VULTURE,LF,target,left,yellow,imageability,liberal,yes,7,0,1.8663451055,-,-
2019_Oct_22,208,001,0,source,31,QUICKLY,HF,target,left,yellow,imageability,conservative,yes,2,1,1.23992038813,-,-
2019_Oct_22,208,001,0,source,32,CLEAR,HF,target,right,aqua,pleasantness,conservative,yes,3,0,1.0266444602,-,-
2019_Oct_22,208,001,0,source,33,SABLE,LF,target,right,aqua,pleasantness,liberal,no,7,1,3.4790258141,-,-
2019_Oct_22,208,001,0,source,34,UNION,HF,target,left,yellow,imageability,liberal,no,2,1,3.02561210147,-,-
2019_Oct_22,208,001,0,source,35,CAGED,LF,target,left,yellow,imageability,conservative,no,2,1,1.58834769079,-,-
2019_Oct_22,208,001,0,source,36,SAYING,HF,target,left,yellow,imageability,conservative,no,3,1,1.99932984668,-,-
2019_Oct_22,208,001,0,source,37,CALLED,HF,target,right,aqua,pleasantness,conservative,no,2,0,1.89299249854,-,-
2019_Oct_22,208,001,0,source,38,EVENING,HF,target,right,aqua,pleasantness,liberal,no,7,1,1.97293761049,-,-
2019_Oct_22,208,001,0,source,39,SAFARI,LF,target,left,yellow,imageability,conservative,no,2,1,2.23926783183,-,-
2019_Oct_22,208,001,0,source,40,SERIOUS,HF,target,right,aqua,pleasantness,liberal,no,2,0,3.10584316506,-,-
2019_Oct_22,208,001,0,source,41,AFRAID,HF,target,right,aqua,pleasantness,liberal,no,9,1,3.46561834842,-,-
2019_Oct_22,208,001,0,source,42,ZEALOTS,LF,target,left,yellow,imageability,conservative,no,9,0,2.13287732601,-,-
2019_Oct_22,208,001,0,source,43,SAMENESS,LF,target,left,yellow,imageability,conservative,no,3,1,2.50610800027,-,-
2019_Oct_22,208,001,0,source,44,SPACE,HF,target,left,yellow,imageability,liberal,no,1,1,1.98592531383,-,-
2019_Oct_22,208,001,0,source,45,CHEEKBONE,LF,target,right,aqua,pleasantness,conservative,no,9,1,1.73308614403,-,-
2019_Oct_22,208,001,0,source,46,BOASTS,LF,target,right,aqua,pleasantness,conservative,no,3,0,2.42586483873,-,-
2019_Oct_22,208,001,0,source,47,DIGESTING,LF,target,right,aqua,pleasantness,liberal,no,9,1,2.45273622721,-,-
2019_Oct_22,208,001,0,recog,0,TAMING,LF,lure,-,-,-,liberal,no,m,1,4.71851544175,1,1
2019_Oct_22,208,001,0,recog,1,RAMBLE,LF,lure,-,-,-,liberal,no,m,1,2.3858649707,1,2
2019_Oct_22,208,001,0,recog,2,ALREADY,HF,lure,-,-,-,conservative,no,z,0,2.93259643352,-3,-1
2019_Oct_22,208,001,0,recog,3,BICEPS,LF,lure,-,-,-,conservative,yes,m,1,1.67949990725,3,2
2019_Oct_22,208,001,0,recog,4,PAWNS,LF,target,right,aqua,pleasantness,conservative,no,z,1,3.43901568115,1,3
2019_Oct_22,208,001,0,recog,5,EXPECT,HF,lure,-,-,-,liberal,no,m,1,1.31986366706,1,4
2019_Oct_22,208,001,0,recog,6,DAPPER,LF,target,right,aqua,pleasantness,liberal,no,z,1,1.03997823835,3,7
2019_Oct_22,208,001,0,recog,7,SAVOURED,LF,lure,-,-,-,liberal,no,z,0,2.39941211276,-1,6
2019_Oct_22,208,001,0,recog,8,DEBACLE,LF,target,left,yellow,imageability,liberal,no,z,1,1.73278332858,3,9
2019_Oct_22,208,001,0,recog,9,GESTURING,LF,lure,-,-,-,conservative,no,m,1,1.85301352698,3,12
2019_Oct_22,208,001,0,recog,10,USING,HF,lure,-,-,-,liberal,no,m,1,2.90592411137,1,13
2019_Oct_22,208,001,0,recog,11,ARTIFACTS,LF,lure,-,-,-,conservative,no,m,1,1.19989815722,3,16
2019_Oct_22,208,001,0,recog,12,REACHED,HF,lure,-,-,-,liberal,no,m,1,1.33323043963,1,17
2019_Oct_22,208,001,0,recog,13,THING,HF,lure,-,-,-,conservative,no,m,1,0.813157734588,3,20
2019_Oct_22,208,001,0,recog,14,ATTACK,HF,target,right,aqua,pleasantness,conservative,no,z,1,0.933356404987,1,21
2019_Oct_22,208,001,0,recog,15,PADDLE,LF,target,left,yellow,imageability,liberal,no,z,1,1.55978588821,3,24
2019_Oct_22,208,001,0,recog,16,BORAX,LF,lure,-,-,-,conservative,no,m,1,1.09335441066,3,27
2019_Oct_22,208,001,0,recog,17,SABLE,LF,target,right,aqua,pleasantness,liberal,no,z,1,2.07978050646,3,30
2019_Oct_22,208,001,0,recog,18,WAITING,HF,lure,-,-,-,conservative,no,z,0,2.46610666583,-3,27
2019_Oct_22,208,001,0,recog,19,QUESTION,HF,target,left,yellow,imageability,liberal,no,z,1,1.94627445345,3,30
2019_Oct_22,208,001,0,recog,20,PAPER,HF,target,right,aqua,pleasantness,conservative,no,z,1,1.69295686456,1,31
2019_Oct_22,208,001,0,recog,21,MIGHTILY,LF,lure,-,-,-,conservative,no,m,1,2.53269746977,3,34
2019_Oct_22,208,001,0,recog,22,AGELESS,LF,lure,-,-,-,liberal,no,m,1,1.47980374919,1,35
2019_Oct_22,208,001,0,recog,23,DEGREE,HF,target,right,aqua,pleasantness,conservative,no,z,1,1.78638752899,1,36
2019_Oct_22,208,001,0,recog,24,CAPITAL,HF,target,left,yellow,imageability,conservative,no,z,1,2.29280384378,1,37
2019_Oct_22,208,001,0,recog,25,SMEARING,LF,target,left,yellow,imageability,conservative,no,z,1,0.813412891433,1,38
2019_Oct_22,208,001,0,recog,26,EDUCATION,HF,lure,-,-,-,conservative,no,m,1,1.07998250563,3,41
2019_Oct_22,208,001,0,recog,27,CHEEKBONE,LF,target,right,aqua,pleasantness,conservative,no,z,1,1.62640675374,1,42
2019_Oct_22,208,001,0,recog,28,ADVERSELY,LF,target,left,yellow,imageability,liberal,no,z,1,1.22634721714,3,45
2019_Oct_22,208,001,0,recog,29,UNION,HF,target,left,yellow,imageability,liberal,no,z,1,1.49312872883,3,48
2019_Oct_22,208,001,0,recog,30,TALKING,HF,target,left,yellow,imageability,conservative,no,z,1,0.880075549889,1,49
2019_Oct_22,208,001,0,recog,31,BOASTS,LF,target,right,aqua,pleasantness,conservative,no,z,1,0.906700213437,1,50
2019_Oct_22,208,001,0,recog,32,STUDENT,HF,target,right,aqua,pleasantness,conservative,no,z,1,0.651556933337,1,51
2019_Oct_22,208,001,0,recog,33,HICKORY,LF,lure,-,-,-,liberal,no,m,1,0.706752197978,1,52
2019_Oct_22,208,001,0,recog,34,GRIEVE,LF,target,right,aqua,pleasantness,liberal,no,z,1,0.826710375718,3,55
2019_Oct_22,208,001,0,recog,35,MOTHER,HF,lure,-,-,-,conservative,no,m,1,0.746814022188,3,58
2019_Oct_22,208,001,0,recog,36,DOCTOR,HF,lure,-,-,-,liberal,no,m,1,0.893343705801,1,59
2019_Oct_22,208,001,0,recog,37,MYTHIC,LF,lure,-,-,-,liberal,no,m,1,0.613510334952,1,60
2019_Oct_22,208,001,0,recog,38,DIGESTING,LF,target,right,aqua,pleasantness,liberal,no,z,1,0.706861079563,3,63
2019_Oct_22,208,001,0,recog,39,CAGED,LF,target,left,yellow,imageability,conservative,no,z,1,0.746726403674,1,64
2019_Oct_22,208,001,0,recog,40,NUMBER,HF,target,right,aqua,pleasantness,liberal,no,z,1,0.667160360944,3,67
2019_Oct_22,208,001,0,recog,41,FREEDOM,HF,lure,-,-,-,liberal,no,m,1,0.826727972742,1,68
2019_Oct_22,208,001,0,recog,42,VILLAGE,HF,target,left,yellow,imageability,liberal,no,z,1,0.973137043421,3,71
2019_Oct_22,208,001,0,recog,43,MOUTH,HF,lure,-,-,-,conservative,no,m,1,0.786735070208,3,74
2019_Oct_22,208,001,0,recog,44,TERMS,HF,lure,-,-,-,liberal,no,z,0,0.813163966868,-1,73
2019_Oct_22,208,001,0,recog,45,BLOOD,HF,lure,-,-,-,liberal,no,m,1,2.30617354918,1,74
2019_Oct_22,208,001,0,recog,46,MUTATIONS,LF,target,right,aqua,pleasantness,conservative,no,z,1,0.84012077424,1,75
2019_Oct_22,208,001,0,recog,47,SAFARI,LF,target,left,yellow,imageability,conservative,no,z,1,0.719845850072,1,76
2019_Oct_22,208,001,0,recog,48,OBTAINS,LF,target,left,yellow,imageability,conservative,no,z,1,0.693432350808,1,77
2019_Oct_22,208,001,0,recog,49,DIFFERENT,HF,lure,-,-,-,liberal,no,m,1,0.840050752749,1,78
2019_Oct_22,208,001,0,recog,50,AFRAID,HF,target,right,aqua,pleasantness,liberal,no,z,1,1.01330848243,3,81
2019_Oct_22,208,001,0,recog,51,LANGUAGE,HF,target,left,yellow,imageability,liberal,no,z,1,1.38648966505,3,84
2019_Oct_22,208,001,0,recog,52,THANK,HF,lure,-,-,-,conservative,no,m,1,0.933378034662,3,87
2019_Oct_22,208,001,0,recog,53,KNUCKLE,LF,lure,-,-,-,conservative,no,m,1,2.13287989225,3,90
2019_Oct_22,208,001,0,recog,54,HERSELF,HF,lure,-,-,-,liberal,no,m,1,2.17288012687,1,91
2019_Oct_22,208,001,0,recog,55,RAGES,LF,lure,-,-,-,liberal,no,m,1,1.03976047518,1,92
2019_Oct_22,208,001,0,recog,56,CICADAS,LF,lure,-,-,-,conservative,no,m,1,0.839870749861,3,95
2019_Oct_22,208,001,0,recog,57,GERANIUMS,LF,target,right,aqua,pleasantness,conservative,no,z,1,0.893632590275,1,96
2019_Oct_22,208,001,0,recog,58,JOSTLED,LF,lure,-,-,-,liberal,no,m,1,0.76046198053,1,97
2019_Oct_22,208,001,0,recog,59,JUNCTURE,LF,lure,-,-,-,conservative,no,m,1,0.800071047983,3,100
2019_Oct_22,208,001,0,recog,60,SIESTA,LF,lure,-,-,-,conservative,no,m,1,0.773450783691,3,103
2019_Oct_22,208,001,0,recog,61,SWOOPING,LF,target,left,yellow,imageability,liberal,no,z,1,0.693470844298,3,106
2019_Oct_22,208,001,0,recog,62,QUICKLY,HF,target,left,yellow,imageability,conservative,no,z,1,1.13326299412,1,107
2019_Oct_22,208,001,0,recog,63,COMES,HF,lure,-,-,-,conservative,no,m,1,1.18658454233,3,110
2019_Oct_22,208,001,0,recog,64,FRIEND,HF,lure,-,-,-,conservative,no,m,1,1.58643841372,3,113
2019_Oct_22,208,001,0,recog,65,SARDINES,LF,target,right,aqua,pleasantness,conservative,no,z,1,2.30613835513,1,114
2019_Oct_22,208,001,0,recog,66,RETURN,HF,target,left,yellow,imageability,conservative,no,z,1,0.99997800372,1,115
2019_Oct_22,208,001,0,recog,67,BUSINESS,HF,lure,-,-,-,conservative,no,m,1,1.21325613128,3,118
2019_Oct_22,208,001,0,recog,68,SAMENESS,LF,target,left,yellow,imageability,conservative,yes,z,1,1.10660240331,1,119
2019_Oct_22,208,001,0,recog,69,HOTEL,HF,target,left,yellow,imageability,conservative,no,z,1,2.91923625984,1,120
2019_Oct_22,208,001,0,recog,70,SAYING,HF,target,left,yellow,imageability,conservative,no,z,1,0.826743370138,1,121
2019_Oct_22,208,001,0,recog,71,SADDER,LF,lure,-,-,-,conservative,no,m,1,1.17290798883,3,124
2019_Oct_22,208,001,0,recog,72,SERIOUS,HF,target,right,aqua,pleasantness,liberal,no,m,0,3.23887043238,-3,121
2019_Oct_22,208,001,0,recog,73,MOMENT,HF,target,right,aqua,pleasantness,liberal,no,z,1,1.49324567571,3,124
2019_Oct_22,208,001,0,recog,74,EVENING,HF,target,right,aqua,pleasantness,liberal,no,z,1,0.826883413119,3,127
2019_Oct_22,208,001,0,recog,75,WOBBLE,LF,target,left,yellow,imageability,liberal,no,z,1,1.95956203941,3,130
2019_Oct_22,208,001,0,recog,76,WETTER,LF,lure,-,-,-,conservative,no,m,1,0.840050386145,3,133
2019_Oct_22,208,001,0,recog,77,ADHERE,LF,lure,-,-,-,conservative,no,m,1,0.86702002468,3,136
2019_Oct_22,208,001,0,recog,78,CANNOT,HF,target,left,yellow,imageability,liberal,no,z,1,1.21325466486,3,139
2019_Oct_22,208,001,0,recog,79,CALLED,HF,target,right,aqua,pleasantness,conservative,no,z,1,1.09326532572,1,140
2019_Oct_22,208,001,0,recog,80,GAZELLE,LF,lure,-,-,-,liberal,no,m,1,0.720122636591,1,141
2019_Oct_22,208,001,0,recog,81,DURING,HF,target,right,aqua,pleasantness,liberal,no,z,1,1.41322577641,3,144
2019_Oct_22,208,001,0,recog,82,SPACE,HF,target,left,yellow,imageability,liberal,no,z,1,1.29324670221,3,147
2019_Oct_22,208,001,0,recog,83,ANYONE,HF,lure,-,-,-,conservative,yes,z,0,1.01333451136,-3,144
2019_Oct_22,208,001,0,recog,84,ZEALOTS,LF,target,left,yellow,imageability,conservative,no,z,1,1.85279063134,1,145
2019_Oct_22,208,001,0,recog,85,SEPULCHRE,LF,lure,-,-,-,liberal,no,m,1,2.0662333644,1,146
2019_Oct_22,208,001,0,recog,86,CLEAR,HF,target,right,aqua,pleasantness,conservative,no,z,1,1.00001466419,1,147
2019_Oct_22,208,001,0,recog,87,TILTS,LF,target,right,aqua,pleasantness,liberal,no,z,1,0.773372696898,3,150
2019_Oct_22,208,001,0,recog,88,FLOOR,HF,lure,-,-,-,liberal,no,m,1,1.7197692297,1,151
2019_Oct_22,208,001,0,recog,89,OCHRE,LF,target,right,aqua,pleasantness,liberal,no,z,1,0.986672454132,3,154
2019_Oct_22,208,001,0,recog,90,RODENTS,LF,lure,-,-,-,liberal,no,m,1,0.680134866523,1,155
2019_Oct_22,208,001,0,recog,91,ANIMAL,HF,lure,-,-,-,conservative,no,m,1,2.83924275608,3,158
2019_Oct_22,208,001,0,recog,92,VULTURE,LF,target,left,yellow,imageability,liberal,no,z,1,1.33295108687,3,161
2019_Oct_22,208,001,0,recog,93,JOCKEYS,LF,lure,-,-,-,liberal,no,m,1,0.800100376356,1,162
2019_Oct_22,208,001,0,recog,94,TRADE,HF,lure,-,-,-,liberal,no,z,0,2.47915045969,-1,161
2019_Oct_22,208,001,0,recog,95,EITHER,HF,lure,-,-,-,liberal,yes,z,0,1.25323436963,-1,160
2019_Oct_22,208,001,1,source,0,HACKNEY,LF,target,right,aqua,pleasantness,liberal,yes,3,0,3.87884045878,-,-
2019_Oct_22,208,001,1,source,1,TRIED,HF,target,right,aqua,pleasantness,liberal,no,2,0,3.30572409187,-,-
2019_Oct_22,208,001,1,source,2,ENROLMENT,LF,target,left,yellow,imageability,liberal,no,2,1,2.11956407773,-,-
2019_Oct_22,208,001,1,source,3,REPORT,HF,target,left,yellow,imageability,liberal,no,8,0,1.03972491453,-,-
2019_Oct_22,208,001,1,source,4,UNDER,HF,target,left,yellow,imageability,liberal,no,2,1,1.57312443222,-,-
2019_Oct_22,208,001,1,source,5,FEIGNED,LF,target,left,yellow,imageability,liberal,yes,7,0,0.773442718388,-,-
2019_Oct_22,208,001,1,source,6,LUNACY,LF,target,left,yellow,imageability,liberal,no,7,0,2.02646299089,-,-
2019_Oct_22,208,001,1,source,7,CLOSE,HF,target,right,aqua,pleasantness,liberal,no,7,1,2.17259527505,-,-
2019_Oct_22,208,001,1,source,8,VERBALLY,LF,target,left,yellow,imageability,conservative,no,3,1,0.999799100646,-,-
2019_Oct_22,208,001,1,source,9,TASSELS,LF,target,right,aqua,pleasantness,liberal,no,8,1,2.13293378313,-,-
2019_Oct_22,208,001,1,source,10,OOZED,LF,target,left,yellow,imageability,conservative,no,2,1,2.85257946706,-,-
2019_Oct_22,208,001,1,source,11,STAFF,HF,target,right,aqua,pleasantness,liberal,no,8,1,1.15994668102,-,-
2019_Oct_22,208,001,1,source,12,TIGHTNESS,LF,target,right,aqua,pleasantness,liberal,no,2,0,2.21297824495,-,-
2019_Oct_22,208,001,1,source,13,AXLES,LF,target,right,aqua,pleasantness,liberal,no,9,1,1.77296906517,-,-
2019_Oct_22,208,001,1,source,14,WESTERN,HF,target,right,aqua,pleasantness,liberal,no,9,1,0.973318512729,-,-
2019_Oct_22,208,001,1,source,15,OMELETTE,LF,target,right,aqua,pleasantness,liberal,no,9,1,0.720091475195,-,-
2019_Oct_22,208,001,1,source,16,AFTERNOON,HF,target,right,aqua,pleasantness,liberal,no,9,1,0.813391994967,-,-
2019_Oct_22,208,001,1,source,17,IMPORTANT,HF,target,left,yellow,imageability,conservative,no,3,1,1.35959151442,-,-
2019_Oct_22,208,001,1,source,18,YELLOWED,LF,target,left,yellow,imageability,liberal,no,1,1,1.0797603432,-,-
2019_Oct_22,208,001,1,source,19,JEWELLED,LF,target,left,yellow,imageability,conservative,no,1,1,0.853405060757,-,-
2019_Oct_22,208,001,1,source,20,COVER,HF,target,left,yellow,imageability,liberal,no,1,1,1.35984483824,-,-
2019_Oct_22,208,001,1,source,21,RUMBLED,LF,target,right,aqua,pleasantness,conservative,no,2,0,2.61256156209,-,-
2019_Oct_22,208,001,1,source,22,HARDLY,HF,target,left,yellow,imageability,conservative,no,7,0,1.09329172126,-,-
2019_Oct_22,208,001,1,source,23,ACROSS,HF,target,left,yellow,imageability,liberal,no,7,0,0.919953338559,-,-
2019_Oct_22,208,001,1,source,24,ONCOMING,LF,target,left,yellow,imageability,liberal,no,8,0,2.02602563153,-,-
2019_Oct_22,208,001,1,source,25,TYCOONS,LF,target,right,aqua,pleasantness,liberal,no,9,1,0.919790199484,-,-
2019_Oct_22,208,001,1,source,26,LEOPARDS,LF,target,left,yellow,imageability,conservative,no,1,1,2.63933176769,-,-
2019_Oct_22,208,001,1,source,27,DWARFED,LF,target,left,yellow,imageability,liberal,no,8,0,1.97269638462,-,-
2019_Oct_22,208,001,1,source,28,PRIVATE,HF,target,left,yellow,imageability,liberal,no,3,1,1.71948804392,-,-
2019_Oct_22,208,001,1,source,29,ANSWER,HF,target,left,yellow,imageability,liberal,no,3,1,1.09338740508,-,-
2019_Oct_22,208,001,1,source,30,GOADED,LF,target,left,yellow,imageability,conservative,no,2,1,1.55979981919,-,-
2019_Oct_22,208,001,1,source,31,PONCE,LF,target,right,aqua,pleasantness,conservative,no,9,1,1.63974419793,-,-
2019_Oct_22,208,001,1,source,32,CERTAIN,HF,target,left,yellow,imageability,conservative,no,8,0,3.7188574839,-,-
2019_Oct_22,208,001,1,source,33,APART,HF,target,left,yellow,imageability,conservative,no,8,0,1.97299810025,-,-
2019_Oct_22,208,001,1,source,34,RINSING,LF,target,right,aqua,pleasantness,conservative,no,7,1,2.02625072679,-,-
2019_Oct_22,208,001,1,source,35,FOLLOWED,HF,target,right,aqua,pleasantness,conservative,no,3,0,0.746761597722,-,-
2019_Oct_22,208,001,1,source,36,LEARN,HF,target,right,aqua,pleasantness,conservative,no,3,0,0.680153563361,-,-
2019_Oct_22,208,001,1,source,37,HEALTH,HF,target,right,aqua,pleasantness,conservative,no,2,0,0.973121279421,-,-
2019_Oct_22,208,001,1,source,38,LETTER,HF,target,right,aqua,pleasantness,liberal,yes,8,1,1.01333267833,-,-
2019_Oct_22,208,001,1,source,39,ELATION,LF,target,right,aqua,pleasantness,conservative,no,8,1,2.50608087152,-,-
2019_Oct_22,208,001,1,source,40,CUFFED,LF,target,left,yellow,imageability,conservative,no,7,0,1.29303260509,-,-
2019_Oct_22,208,001,1,source,41,LOOKED,HF,target,right,aqua,pleasantness,conservative,yes,7,1,0.81340006027,-,-
2019_Oct_22,208,001,1,source,42,UTTERANCE,LF,target,right,aqua,pleasantness,conservative,no,9,1,2.17284823227,-,-
2019_Oct_22,208,001,1,source,43,MATERIAL,HF,target,left,yellow,imageability,conservative,no,3,1,3.49236655774,-,-
2019_Oct_22,208,001,1,source,44,TWENTY,HF,target,right,aqua,pleasantness,conservative,no,7,1,1.74626631482,-,-
2019_Oct_22,208,001,1,source,45,CLASS,HF,target,left,yellow,imageability,conservative,no,8,0,0.866708410718,-,-
2019_Oct_22,208,001,1,source,46,SUAVE,LF,target,right,aqua,pleasantness,conservative,no,9,1,1.06660656794,-,-
2019_Oct_22,208,001,1,source,47,QUALITY,HF,target,right,aqua,pleasantness,conservative,no,3,0,0.89312887547,-,-
2019_Oct_22,208,001,1,recog,0,JEWELLED,LF,target,left,yellow,imageability,conservative,no,z,1,1.30653575459,1,161
2019_Oct_22,208,001,1,recog,1,HOARD,LF,lure,-,-,-,liberal,no,m,1,0.946719144902,1,162
2019_Oct_22,208,001,1,recog,2,HUMAN,HF,lure,-,-,-,liberal,no,m,1,0.733420487481,1,163
2019_Oct_22,208,001,1,recog,3,APART,HF,target,left,yellow,imageability,conservative,no,z,1,0.960002331606,1,164
2019_Oct_22,208,001,1,recog,4,ACROSS,HF,target,left,yellow,imageability,liberal,no,z,1,1.82627191654,3,167
2019_Oct_22,208,001,1,recog,5,HEALTH,HF,target,right,aqua,pleasantness,conservative,no,z,1,1.6261677275,1,168
2019_Oct_22,208,001,1,recog,6,BYPASS,LF,lure,-,-,-,conservative,no,m,1,1.63956456165,3,171
2019_Oct_22,208,001,1,recog,7,ROTARY,LF,lure,-,-,-,conservative,no,z,0,1.05330211817,-3,168
2019_Oct_22,208,001,1,recog,8,VERBALLY,LF,target,left,yellow,imageability,conservative,no,z,1,1.10659873727,1,169
2019_Oct_22,208,001,1,recog,9,HAMLETS,LF,lure,-,-,-,conservative,no,m,1,0.773509440437,3,172
2019_Oct_22,208,001,1,recog,10,WANTED,HF,lure,-,-,-,conservative,no,m,1,0.933386833174,3,175
2019_Oct_22,208,001,1,recog,11,ANSWER,HF,target,left,yellow,imageability,liberal,no,z,1,0.920015661351,3,178
2019_Oct_22,208,001,1,recog,12,FUSELAGE,LF,lure,-,-,-,liberal,no,m,1,1.4931265292,1,179
2019_Oct_22,208,001,1,recog,13,UNLESS,HF,lure,-,-,-,conservative,no,m,1,2.15958850826,3,182
2019_Oct_22,208,001,1,recog,14,AFTERNOON,HF,target,right,aqua,pleasantness,liberal,no,z,1,0.706787392026,3,185
2019_Oct_22,208,001,1,recog,15,RINSING,LF,target,right,aqua,pleasantness,conservative,no,z,1,2.39945573872,1,186
2019_Oct_22,208,001,1,recog,16,PIPELINES,LF,lure,-,-,-,liberal,yes,m,1,1.02667708802,1,187
2019_Oct_22,208,001,1,recog,17,YELLOWED,LF,target,left,yellow,imageability,liberal,no,z,1,1.66617016175,3,190
2019_Oct_22,208,001,1,recog,18,TYCOONS,LF,target,right,aqua,pleasantness,liberal,no,z,1,0.653481241206,3,193
2019_Oct_22,208,001,1,recog,19,CRONE,LF,lure,-,-,-,conservative,no,m,1,2.25289159427,3,196
2019_Oct_22,208,001,1,recog,20,ORDER,HF,lure,-,-,-,liberal,no,m,1,1.55976829119,1,197
2019_Oct_22,208,001,1,recog,21,SAWDUST,LF,lure,-,-,-,liberal,no,z,0,1.70642042076,-1,196
2019_Oct_22,208,001,1,recog,22,WALKED,HF,lure,-,-,-,conservative,no,z,0,2.46611913038,-3,193
2019_Oct_22,208,001,1,recog,23,FEIGNED,LF,target,left,yellow,imageability,liberal,yes,m,0,0.933123244422,-3,190
2019_Oct_22,208,001,1,recog,24,CLASS,HF,target,left,yellow,imageability,conservative,no,z,1,2.479473805,1,191
2019_Oct_22,208,001,1,recog,25,HACKNEY,LF,target,right,aqua,pleasantness,liberal,no,z,1,1.30655628445,3,194
2019_Oct_22,208,001,1,recog,26,SOCIAL,HF,lure,-,-,-,conservative,no,m,1,1.30657828073,3,197
2019_Oct_22,208,001,1,recog,27,DEEPEN,LF,lure,-,-,-,conservative,no,m,1,2.59934876348,3,200
2019_Oct_22,208,001,1,recog,28,GOBBLE,LF,lure,-,-,-,liberal,no,m,1,1.30654015384,1,201
2019_Oct_22,208,001,1,recog,29,UNDER,HF,target,left,yellow,imageability,liberal,no,z,1,0.77344675104,3,204
2019_Oct_22,208,001,1,recog,30,REPORT,HF,target,left,yellow,imageability,liberal,no,z,1,2.43960114879,3,207
2019_Oct_22,208,001,1,recog,31,BEYOND,HF,lure,-,-,-,conservative,no,m,1,0.733462280413,3,210
2019_Oct_22,208,001,1,recog,32,LIVED,HF,lure,-,-,-,liberal,no,m,1,0.786748634581,1,211
2019_Oct_22,208,001,1,recog,33,COVER,HF,target,left,yellow,imageability,liberal,no,z,1,0.906706445717,3,214
2019_Oct_22,208,001,1,recog,34,MYSELF,HF,lure,-,-,-,liberal,no,m,1,1.29322140649,1,215
2019_Oct_22,208,001,1,recog,35,ACTION,HF,lure,-,-,-,liberal,no,m,1,0.773377829363,1,216
2019_Oct_22,208,001,1,recog,36,ELATION,LF,target,right,aqua,pleasantness,conservative,no,z,1,0.653230850222,1,217
2019_Oct_22,208,001,1,recog,37,SUGARY,LF,lure,-,-,-,liberal,no,m,1,1.19995644737,1,218
2019_Oct_22,208,001,1,recog,38,NEWMARKET,LF,lure,-,-,-,conservative,no,m,1,1.10640333698,3,221
2019_Oct_22,208,001,1,recog,39,SUPPORT,HF,lure,-,-,-,conservative,no,z,0,0.693365262155,-3,218
2019_Oct_22,208,001,1,recog,40,ONCOMING,LF,target,left,yellow,imageability,liberal,no,z,1,0.706839449888,3,221
2019_Oct_22,208,001,1,recog,41,PIGLETS,LF,lure,-,-,-,liberal,no,m,1,0.666765161119,1,222
2019_Oct_22,208,001,1,recog,42,LOOKED,HF,target,right,aqua,pleasantness,conservative,no,z,1,0.853420091549,1,223
2019_Oct_22,208,001,1,recog,43,DWARFED,LF,target,left,yellow,imageability,liberal,no,z,1,0.880056119842,3,226
2019_Oct_22,208,001,1,recog,44,MATERIAL,HF,target,left,yellow,imageability,conservative,no,z,1,0.773454083133,1,227
2019_Oct_22,208,001,1,recog,45,POINT,HF,lure,-,-,-,liberal,no,m,1,0.746746200326,1,228
2019_Oct_22,208,001,1,recog,46,OTHERS,HF,lure,-,-,-,liberal,no,z,0,1.0799964366,-1,227
2019_Oct_22,208,001,1,recog,47,UNBEATEN,LF,lure,-,-,-,liberal,no,m,1,1.66641652009,1,228
2019_Oct_22,208,001,1,recog,48,UTTERANCE,LF,target,right,aqua,pleasantness,conservative,no,m,0,0.586795120052,-1,227
2019_Oct_22,208,001,1,recog,49,HARDLY,HF,target,left,yellow,imageability,conservative,no,z,1,1.07998617167,1,228
2019_Oct_22,208,001,1,recog,50,OOZED,LF,target,left,yellow,imageability,conservative,no,z,1,0.799839353837,1,229
2019_Oct_22,208,001,1,recog,51,DOUBT,HF,lure,-,-,-,conservative,no,m,1,1.98626222352,3,232
2019_Oct_22,208,001,1,recog,52,TRIED,HF,target,right,aqua,pleasantness,liberal,no,z,1,2.07934241389,3,235
2019_Oct_22,208,001,1,recog,53,WESTERN,HF,target,right,aqua,pleasantness,liberal,no,z,1,0.626806352819,3,238
2019_Oct_22,208,001,1,recog,54,FENCED,LF,lure,-,-,-,conservative,no,m,1,0.786731770767,3,241
2019_Oct_22,208,001,1,recog,55,TIGHTNESS,LF,target,right,aqua,pleasantness,liberal,no,z,1,0.653447513577,3,244
2019_Oct_22,208,001,1,recog,56,TRUTH,HF,lure,-,-,-,conservative,no,m,1,0.893234824217,3,247
2019_Oct_22,208,001,1,recog,57,LIZARD,LF,lure,-,-,-,liberal,no,m,1,0.760117372148,1,248
2019_Oct_22,208,001,1,recog,58,SUDDENLY,HF,lure,-,-,-,liberal,no,m,1,1.09328438917,1,249
2019_Oct_22,208,001,1,recog,59,DREADING,LF,lure,-,-,-,liberal,no,m,1,0.706789591654,1,250
2019_Oct_22,208,001,1,recog,60,OMELETTE,LF,target,right,aqua,pleasantness,liberal,no,z,1,0.600391020532,3,253
2019_Oct_22,208,001,1,recog,61,PRIVATE,HF,target,left,yellow,imageability,liberal,no,m,0,1.02663529508,-3,250
2019_Oct_22,208,001,1,recog,62,OUTSIDE,HF,lure,-,-,-,liberal,no,m,1,1.8263159091,1,251
2019_Oct_22,208,001,1,recog,63,LEOPARDS,LF,target,left,yellow,imageability,conservative,no,z,1,1.89297270188,1,252
2019_Oct_22,208,001,1,recog,64,BREAK,HF,lure,-,-,-,conservative,no,m,1,0.626788389191,3,255
2019_Oct_22,208,001,1,recog,65,DROLL,LF,lure,-,-,-,conservative,no,z,0,0.640148196268,-3,252
2019_Oct_22,208,001,1,recog,66,STAFF,HF,target,right,aqua,pleasantness,liberal,yes,m,0,0.746755732047,-3,249
2019_Oct_22,208,001,1,recog,67,RAYON,LF,lure,-,-,-,conservative,no,m,1,1.81324278687,3,252
2019_Oct_22,208,001,1,recog,68,QUALITY,HF,target,right,aqua,pleasantness,conservative,no,m,0,0.826795061395,-1,251
2019_Oct_22,208,001,1,recog,69,ROSEBUD,LF,lure,-,-,-,conservative,no,m,1,1.22658954282,3,254
2019_Oct_22,208,001,1,recog,70,BLEACH,LF,lure,-,-,-,liberal,no,m,1,0.813394194595,1,255
2019_Oct_22,208,001,1,recog,71,LETTER,HF,target,right,aqua,pleasantness,liberal,no,z,1,0.826499944643,3,258
2019_Oct_22,208,001,1,recog,72,CENTRAL,HF,lure,-,-,-,liberal,no,m,1,0.706780793142,1,259
2019_Oct_22,208,001,1,recog,73,FOLLOWED,HF,target,right,aqua,pleasantness,conservative,no,z,1,0.973082052722,1,260
2019_Oct_22,208,001,1,recog,74,ENERGY,HF,lure,-,-,-,conservative,no,m,1,0.560174489155,3,263
2019_Oct_22,208,001,1,recog,75,TWENTY,HF,target,right,aqua,pleasantness,conservative,yes,m,0,1.13326812658,-1,262
2019_Oct_22,208,001,1,recog,76,IMPORTANT,HF,target,left,yellow,imageability,conservative,no,z,1,1.49314669246,1,263
2019_Oct_22,208,001,1,recog,77,ENROLMENT,LF,target,left,yellow,imageability,liberal,no,z,1,0.853412026246,3,266
2019_Oct_22,208,001,1,recog,78,AXLES,LF,target,right,aqua,pleasantness,liberal,no,z,1,0.733592791672,3,269
2019_Oct_22,208,001,1,recog,79,HIGHER,HF,lure,-,-,-,conservative,no,m,1,0.986665488644,3,272
2019_Oct_22,208,001,1,recog,80,GOADED,LF,target,left,yellow,imageability,conservative,no,z,1,0.84042908876,1,273
2019_Oct_22,208,001,1,recog,81,TASSELS,LF,target,right,aqua,pleasantness,liberal,no,z,1,0.613522066301,3,276
2019_Oct_22,208,001,1,recog,82,RUMBLED,LF,target,right,aqua,pleasantness,conservative,no,z,1,0.73344944925,1,277
2019_Oct_22,208,001,1,recog,83,WRONG,HF,lure,-,-,-,conservative,no,m,1,0.786782728815,3,280
2019_Oct_22,208,001,1,recog,84,LEARN,HF,target,right,aqua,pleasantness,conservative,no,z,1,1.05317050709,1,281
2019_Oct_22,208,001,1,recog,85,DAGGERS,LF,lure,-,-,-,liberal,no,m,1,0.60015969299,1,282
2019_Oct_22,208,001,1,recog,86,YONDER,LF,lure,-,-,-,conservative,no,z,0,0.573264108597,-3,279
2019_Oct_22,208,001,1,recog,87,PONCE,LF,target,right,aqua,pleasantness,conservative,no,z,1,1.19978450978,1,280
2019_Oct_22,208,001,1,recog,88,CERTAIN,HF,target,left,yellow,imageability,conservative,no,z,1,0.81342682241,1,281
2019_Oct_22,208,001,1,recog,89,SUAVE,LF,target,right,aqua,pleasantness,conservative,no,z,1,0.800255450128,1,282
2019_Oct_22,208,001,1,recog,90,CUFFED,LF,target,left,yellow,imageability,conservative,no,z,1,0.5469030338,1,283
2019_Oct_22,208,001,1,recog,91,VALUE,HF,lure,-,-,-,liberal,no,z,0,0.826498844829,-1,282
2019_Oct_22,208,001,1,recog,92,CLOSE,HF,target,right,aqua,pleasantness,liberal,no,m,0,0.640122533942,-3,279
2019_Oct_22,208,001,1,recog,93,LUNACY,LF,target,left,yellow,imageability,liberal,no,z,1,0.906731008229,3,282
2019_Oct_22,208,001,1,recog,94,NEARLY,HF,lure,-,-,-,liberal,no,m,1,0.840105010239,1,283
2019_Oct_22,208,001,1,recog,95,INACTION,LF,lure,-,-,-,conservative,no,z,0,1.62638219123,-3,280
2019_Oct_22,208,001,2,source,0,REGAINING,LF,target,right,aqua,pleasantness,conservative,no,1,0,3.0791858737,-,-
2019_Oct_22,208,001,2,source,1,SUING,LF,target,right,aqua,pleasantness,liberal,no,9,1,2.03956837434,-,-
2019_Oct_22,208,001,2,source,2,FELLS,LF,target,right,aqua,pleasantness,liberal,no,7,1,2.54579478791,-,-
2019_Oct_22,208,001,2,source,3,HALLMARK,LF,target,left,yellow,imageability,liberal,no,3,1,1.93264482534,-,-
2019_Oct_22,208,001,2,source,4,HOURS,HF,target,left,yellow,imageability,liberal,no,2,1,1.15970655496,-,-
2019_Oct_22,208,001,2,source,5,MEMBERS,HF,target,right,aqua,pleasantness,conservative,yes,3,0,0.960036792444,-,-
2019_Oct_22,208,001,2,source,6,SEABED,LF,target,right,aqua,pleasantness,liberal,no,9,1,1.58619572143,-,-
2019_Oct_22,208,001,2,source,7,TAILED,LF,target,left,yellow,imageability,conservative,yes,7,0,0.786747901372,-,-
2019_Oct_22,208,001,2,source,8,OFFER,HF,target,left,yellow,imageability,conservative,no,8,0,2.22620497453,-,-
2019_Oct_22,208,001,2,source,9,BAUXITE,LF,target,left,yellow,imageability,liberal,no,3,1,1.88000259556,-,-
2019_Oct_22,208,001,2,source,10,WITHIN,HF,target,left,yellow,imageability,conservative,no,2,1,1.6529302344,-,-
2019_Oct_22,208,001,2,source,11,WOMAN,HF,target,left,yellow,imageability,liberal,no,9,0,1.67973490084,-,-
2019_Oct_22,208,001,2,source,12,WHATEVER,HF,target,left,yellow,imageability,conservative,no,2,1,1.30652988891,-,-
2019_Oct_22,208,001,2,source,13,TABLE,HF,target,right,aqua,pleasantness,liberal,no,8,1,1.63972146844,-,-
2019_Oct_22,208,001,2,source,14,BILATERAL,LF,target,right,aqua,pleasantness,conservative,no,9,1,1.21324330012,-,-
2019_Oct_22,208,001,2,source,15,TOUSLED,LF,target,left,yellow,imageability,conservative,no,8,0,1.38628033379,-,-
2019_Oct_22,208,001,2,source,16,EFFECT,HF,target,right,aqua,pleasantness,conservative,no,8,1,1.75967121428,-,-
2019_Oct_22,208,001,2,source,17,WASHBASIN,LF,target,right,aqua,pleasantness,liberal,no,9,1,1.18639244149,-,-
2019_Oct_22,208,001,2,source,18,HAPPEN,HF,target,left,yellow,imageability,liberal,no,2,1,1.35982284196,-,-
2019_Oct_22,208,001,2,source,19,ITSELF,HF,target,left,yellow,imageability,liberal,no,3,1,1.05341943166,-,-
2019_Oct_22,208,001,2,source,20,DOLPHIN,LF,target,right,aqua,pleasantness,liberal,no,9,1,1.48006770455,-,-
2019_Oct_22,208,001,2,source,21,FAILINGS,LF,target,left,yellow,imageability,liberal,yes,3,1,1.14661143645,-,-
2019_Oct_22,208,001,2,source,22,GOVERNS,LF,target,left,yellow,imageability,conservative,no,3,1,2.17262167059,-,-
2019_Oct_22,208,001,2,source,23,EMPATHY,LF,target,right,aqua,pleasantness,conservative,no,7,1,1.54620721815,-,-
2019_Oct_22,208,001,2,source,24,SOMEONE,HF,target,right,aqua,pleasantness,conservative,no,2,0,2.41275138998,-,-
2019_Oct_22,208,001,2,source,25,BEAUTIFUL,HF,target,left,yellow,imageability,liberal,no,2,1,2.75940689231,-,-
2019_Oct_22,208,001,2,source,26,CAUGHT,HF,target,right,aqua,pleasantness,conservative,no,8,1,0.906695447577,-,-
2019_Oct_22,208,001,2,source,27,PASSED,HF,target,left,yellow,imageability,conservative,no,7,0,1.13332238407,-,-
2019_Oct_22,208,001,2,source,28,GLASS,HF,target,right,aqua,pleasantness,liberal,no,8,1,1.55975509342,-,-
2019_Oct_22,208,001,2,source,29,LEVEL,HF,target,left,yellow,imageability,conservative,no,2,1,1.34655798549,-,-
2019_Oct_22,208,001,2,source,30,CYNIC,LF,target,left,yellow,imageability,liberal,no,2,1,2.15954818175,-,-
2019_Oct_22,208,001,2,source,31,GROUND,HF,target,right,aqua,pleasantness,liberal,no,2,0,1.89302952561,-,-
2019_Oct_22,208,001,2,source,32,AMBIENCE,LF,target,left,yellow,imageability,conservative,no,8,0,1.62679902073,-,-
2019_Oct_22,208,001,2,source,33,SLEEP,HF,target,right,aqua,pleasantness,conservative,no,1,0,2.41273562598,-,-
2019_Oct_22,208,001,2,source,34,AHEAD,HF,target,right,aqua,pleasantness,liberal,yes,7,1,1.42651482879,-,-
2019_Oct_22,208,001,2,source,35,VOYAGES,LF,target,right,aqua,pleasantness,conservative,no,9,1,2.70574660139,-,-
2019_Oct_22,208,001,2,source,36,CONCERNED,HF,target,right,aqua,pleasantness,liberal,no,3,0,1.10664786229,-,-
2019_Oct_22,208,001,2,source,37,ENLIGHTEN,LF,target,left,yellow,imageability,conservative,no,2,1,1.39990592924,-,-
2019_Oct_22,208,001,2,source,38,VACATED,LF,target,left,yellow,imageability,conservative,no,3,1,1.34662580736,-,-
2019_Oct_22,208,001,2,source,39,ANAEMIC,LF,target,right,aqua,pleasantness,conservative,no,7,1,0.866484048665,-,-
2019_Oct_22,208,001,2,source,40,LATER,HF,target,right,aqua,pleasantness,liberal,no,7,1,2.22616354821,-,-
2019_Oct_22,208,001,2,source,41,ICONS,LF,target,left,yellow,imageability,liberal,no,8,0,1.38653952328,-,-
2019_Oct_22,208,001,2,source,42,BIRCHES,LF,target,right,aqua,pleasantness,liberal,no,8,1,0.786926804446,-,-
2019_Oct_22,208,001,2,source,43,SHALL,HF,target,left,yellow,imageability,conservative,no,3,1,1.30655738426,-,-
2019_Oct_22,208,001,2,source,44,SMALL,HF,target,left,yellow,imageability,liberal,no,2,1,1.51979628512,-,-
2019_Oct_22,208,001,2,source,45,INUNDATED,LF,target,left,yellow,imageability,liberal,no,8,0,1.33297784901,-,-
2019_Oct_22,208,001,2,source,46,SCRABBLE,LF,target,right,aqua,pleasantness,conservative,no,9,1,1.2532244713,-,-
2019_Oct_22,208,001,2,source,47,TURNED,HF,target,right,aqua,pleasantness,conservative,no,7,1,0.906993863771,-,-
2019_Oct_22,208,001,2,recog,0,OFFER,HF,target,left,yellow,imageability,conservative,no,z,1,1.34651179331,1,281
2019_Oct_22,208,001,2,recog,1,SUING,LF,target,right,aqua,pleasantness,liberal,no,z,1,0.693480742624,3,284
2019_Oct_22,208,001,2,recog,2,CAUGHT,HF,target,right,aqua,pleasantness,conservative,no,z,1,0.533517197791,1,285
2019_Oct_22,208,001,2,recog,3,FIGURE,HF,lure,-,-,-,conservative,no,z,0,0.546589586814,-3,282
2019_Oct_22,208,001,2,recog,4,PANACHE,LF,lure,-,-,-,liberal,no,z,0,4.13209352525,-1,281
2019_Oct_22,208,001,2,recog,5,ITSELF,HF,target,left,yellow,imageability,liberal,no,z,1,0.866712443369,3,284
2019_Oct_22,208,001,2,recog,6,GLOBULAR,LF,lure,-,-,-,liberal,no,m,1,0.720079377241,1,285
2019_Oct_22,208,001,2,recog,7,SPOKE,HF,lure,-,-,-,conservative,no,m,1,0.600185721921,3,288
2019_Oct_22,208,001,2,recog,8,HOWEVER,HF,lure,-,-,-,liberal,no,m,1,0.626797554307,1,289
2019_Oct_22,208,001,2,recog,9,MEETING,HF,lure,-,-,-,liberal,no,m,1,0.546632112955,1,290
2019_Oct_22,208,001,2,recog,10,PASSED,HF,target,left,yellow,imageability,conservative,no,z,1,0.693551130719,1,291
2019_Oct_22,208,001,2,recog,11,EMPATHY,LF,target,right,aqua,pleasantness,conservative,no,z,1,0.666597622789,1,292
2019_Oct_22,208,001,2,recog,12,POLICE,HF,lure,-,-,-,conservative,no,m,1,0.626733031886,3,295
2019_Oct_22,208,001,2,recog,13,ECONOMIC,HF,lure,-,-,-,liberal,no,z,0,0.613486139044,-1,294
2019_Oct_22,208,001,2,recog,14,SUFFERER,LF,lure,-,-,-,liberal,no,z,0,1.23992698702,-1,293
2019_Oct_22,208,001,2,recog,15,LATER,HF,target,right,aqua,pleasantness,liberal,no,m,0,0.506845242242,-3,290
2019_Oct_22,208,001,2,recog,16,COLDEST,LF,lure,-,-,-,liberal,no,m,1,0.973352606962,1,291
2019_Oct_22,208,001,2,recog,17,REGAINING,LF,target,right,aqua,pleasantness,conservative,no,m,0,1.42648916647,-1,290
2019_Oct_22,208,001,2,recog,18,NATIONAL,HF,lure,-,-,-,conservative,no,m,1,1.3598650015,3,293
2019_Oct_22,208,001,2,recog,19,SMALL,HF,target,left,yellow,imageability,liberal,no,z,1,0.866703278252,3,296
2019_Oct_22,208,001,2,recog,20,HUNDRED,HF,lure,-,-,-,liberal,no,m,1,0.893371201151,1,297
2019_Oct_22,208,001,2,recog,21,GLASS,HF,target,right,aqua,pleasantness,liberal,no,z,1,0.746519638645,3,300
2019_Oct_22,208,001,2,recog,22,SALAMI,LF,lure,-,-,-,conservative,no,m,1,1.05335124319,3,303
2019_Oct_22,208,001,2,recog,23,CYNIC,LF,target,left,yellow,imageability,liberal,no,z,1,1.18657207778,3,306
2019_Oct_22,208,001,2,recog,24,SWIFTNESS,LF,lure,-,-,-,conservative,no,m,1,0.760084377729,3,309
2019_Oct_22,208,001,2,recog,25,WITHIN,HF,target,left,yellow,imageability,conservative,no,z,1,1.6261596622,1,310
2019_Oct_22,208,001,2,recog,26,MAYBE,HF,lure,-,-,-,conservative,no,m,1,1.45303207717,3,313
2019_Oct_22,208,001,2,recog,27,MINISTER,HF,lure,-,-,-,conservative,yes,m,1,1.03998923649,3,316
2019_Oct_22,208,001,2,recog,28,UNHEEDED,LF,lure,-,-,-,liberal,yes,m,1,1.47985873989,1,317
2019_Oct_22,208,001,2,recog,29,RIVER,HF,lure,-,-,-,conservative,no,m,1,1.31993222213,3,320
2019_Oct_22,208,001,2,recog,30,APPEARED,HF,lure,-,-,-,liberal,no,z,0,1.30655298501,-1,319
2019_Oct_22,208,001,2,recog,31,PAVILIONS,LF,lure,-,-,-,conservative,no,m,1,0.720153064778,3,322
2019_Oct_22,208,001,2,recog,32,EFFECT,HF,target,right,aqua,pleasantness,conservative,no,z,1,1.43982881029,1,323
2019_Oct_22,208,001,2,recog,33,AMBIENCE,LF,target,left,yellow,imageability,conservative,no,z,1,0.840074948657,1,324
2019_Oct_22,208,001,2,recog,34,LIMELIGHT,LF,lure,-,-,-,conservative,no,m,1,0.973124945468,3,327
2019_Oct_22,208,001,2,recog,35,DOLPHIN,LF,target,right,aqua,pleasantness,liberal,no,z,1,0.999983136186,3,330
2019_Oct_22,208,001,2,recog,36,TOGETHER,HF,lure,-,-,-,liberal,no,m,1,2.87924115768,1,331
2019_Oct_22,208,001,2,recog,37,BEAUTIFUL,HF,target,left,yellow,imageability,liberal,no,z,1,1.66616466268,3,334
2019_Oct_22,208,001,2,recog,38,AHEAD,HF,target,right,aqua,pleasantness,liberal,no,z,1,0.893415926919,3,337
2019_Oct_22,208,001,2,recog,39,MIDDLE,HF,lure,-,-,-,conservative,no,z,0,1.0930589273,-3,334
2019_Oct_22,208,001,2,recog,40,HUSBAND,HF,lure,-,-,-,liberal,no,m,1,0.8138113907,1,335
2019_Oct_22,208,001,2,recog,41,CAKED,LF,lure,-,-,-,liberal,no,m,1,0.626559994486,1,336
2019_Oct_22,208,001,2,recog,42,ENLIGHTEN,LF,target,left,yellow,imageability,conservative,no,z,1,0.853436222154,1,337
2019_Oct_22,208,001,2,recog,43,MEMBERS,HF,target,right,aqua,pleasantness,conservative,no,m,0,0.706805355654,-1,336
2019_Oct_22,208,001,2,recog,44,BIDDER,LF,lure,-,-,-,conservative,no,z,0,0.680131200476,-3,333
2019_Oct_22,208,001,2,recog,45,NORTH,HF,lure,-,-,-,conservative,no,m,1,1.11997980742,3,336
2019_Oct_22,208,001,2,recog,46,TURNED,HF,target,right,aqua,pleasantness,conservative,no,z,1,0.933383167127,1,337
2019_Oct_22,208,001,2,recog,47,FELLS,LF,target,right,aqua,pleasantness,liberal,no,z,1,0.693510437601,3,340
2019_Oct_22,208,001,2,recog,48,CONCERNED,HF,target,right,aqua,pleasantness,liberal,no,m,0,0.773393959968,-3,337
2019_Oct_22,208,001,2,recog,49,PAUNCH,LF,lure,-,-,-,conservative,no,m,1,0.880055386632,3,340
2019_Oct_22,208,001,2,recog,50,FOCUSES,LF,lure,-,-,-,liberal,no,z,0,0.853284814428,-1,339
2019_Oct_22,208,001,2,recog,51,VOYAGES,LF,target,right,aqua,pleasantness,conservative,no,z,1,1.14655607915,1,340
2019_Oct_22,208,001,2,recog,52,HOURS,HF,target,left,yellow,imageability,liberal,no,z,1,1.21305779816,3,343
2019_Oct_22,208,001,2,recog,53,WHATEVER,HF,target,left,yellow,imageability,conservative,no,m,0,1.49307080529,-1,342
2019_Oct_22,208,001,2,recog,54,ANAEMIC,LF,target,right,aqua,pleasantness,conservative,no,z,1,0.986639459713,1,343
2019_Oct_22,208,001,2,recog,55,INUNDATED,LF,target,left,yellow,imageability,liberal,no,z,1,0.906471452128,3,346
2019_Oct_22,208,001,2,recog,56,HADJI,LF,lure,-,-,-,conservative,no,m,1,0.733434051854,3,349
2019_Oct_22,208,001,2,recog,57,DENIALS,LF,lure,-,-,-,conservative,no,z,0,0.626616085,-3,346
2019_Oct_22,208,001,2,recog,58,STRAIGHT,HF,lure,-,-,-,liberal,no,m,1,2.23954351854,1,347
2019_Oct_22,208,001,2,recog,59,BARBARIAN,LF,lure,-,-,-,liberal,yes,z,0,1.22666139734,-1,346
2019_Oct_22,208,001,2,recog,60,SLOWLY,HF,lure,-,-,-,liberal,no,m,1,1.87949961397,1,347
2019_Oct_22,208,001,2,recog,61,SLEEP,HF,target,right,aqua,pleasantness,conservative,no,z,1,1.70642262039,1,348
2019_Oct_22,208,001,2,recog,62,BIRCHES,LF,target,right,aqua,pleasantness,liberal,no,z,1,0.559928864031,3,351
2019_Oct_22,208,001,2,recog,63,WOMAN,HF,target,left,yellow,imageability,liberal,no,z,1,0.439931826197,3,354
2019_Oct_22,208,001,2,recog,64,OUGHT,HF,lure,-,-,-,conservative,no,m,1,0.786761832349,3,357
2019_Oct_22,208,001,2,recog,65,HALLMARK,LF,target,left,yellow,imageability,liberal,no,z,1,0.586865508147,3,360
2019_Oct_22,208,001,2,recog,66,VACATED,LF,target,left,yellow,imageability,conservative,no,z,1,1.00000953172,1,361
2019_Oct_22,208,001,2,recog,67,SEABED,LF,target,right,aqua,pleasantness,liberal,no,z,1,0.626844846308,3,364
2019_Oct_22,208,001,2,recog,68,SOMEONE,HF,target,right,aqua,pleasantness,conservative,no,z,1,0.440116961551,1,365
2019_Oct_22,208,001,2,recog,69,BAUXITE,LF,target,left,yellow,imageability,liberal,no,z,1,0.573503868046,3,368
2019_Oct_22,208,001,2,recog,70,BILATERAL,LF,target,right,aqua,pleasantness,conservative,yes,m,0,0.58682481503,-1,367
2019_Oct_22,208,001,2,recog,71,LONGER,HF,lure,-,-,-,liberal,no,z,0,0.50659741749,-1,366
2019_Oct_22,208,001,2,recog,72,WASHBASIN,LF,target,right,aqua,pleasantness,liberal,no,z,1,0.866679448949,3,369
2019_Oct_22,208,001,2,recog,73,KEENER,LF,lure,-,-,-,conservative,no,m,1,1.45316258843,3,372
2019_Oct_22,208,001,2,recog,74,TABLE,HF,target,right,aqua,pleasantness,liberal,no,z,1,0.960092149748,3,375
2019_Oct_22,208,001,2,recog,75,SCRABBLE,LF,target,right,aqua,pleasantness,conservative,no,z,1,0.906693247949,1,376
2019_Oct_22,208,001,2,recog,76,ICONS,LF,target,left,yellow,imageability,liberal,no,z,1,0.720171395011,3,379
2019_Oct_22,208,001,2,recog,77,GOVERNS,LF,target,left,yellow,imageability,conservative,no,m,0,0.693771093516,-1,378
2019_Oct_22,208,001,2,recog,78,TAILED,LF,target,left,yellow,imageability,conservative,no,z,1,1.29297688118,1,379
2019_Oct_22,208,001,2,recog,79,LAUNCHER,LF,lure,-,-,-,liberal,no,z,0,0.853384530896,-1,378
2019_Oct_22,208,001,2,recog,80,GROUND,HF,target,right,aqua,pleasantness,liberal,no,z,1,1.09334817838,3,381
2019_Oct_22,208,001,2,recog,81,DECIDED,HF,lure,-,-,-,conservative,no,m,1,1.61308873959,3,384
2019_Oct_22,208,001,2,recog,82,STEADFAST,LF,lure,-,-,-,conservative,no,m,1,0.626818084168,3,387
2019_Oct_22,208,001,2,recog,83,OLDER,HF,lure,-,-,-,conservative,no,m,1,0.61345827709,3,390
2019_Oct_22,208,001,2,recog,84,TOPICAL,LF,lure,-,-,-,liberal,no,m,1,0.653458878322,1,391
2019_Oct_22,208,001,2,recog,85,HAPPEN,HF,target,left,yellow,imageability,liberal,no,z,1,0.733197591847,3,394
2019_Oct_22,208,001,2,recog,86,KILOWATT,LF,lure,-,-,-,conservative,no,m,1,0.706831384585,3,397
2019_Oct_22,208,001,2,recog,87,SHALL,HF,target,left,yellow,imageability,conservative,no,z,1,0.506972820664,1,398
2019_Oct_22,208,001,2,recog,88,JINGLE,LF,lure,-,-,-,conservative,no,m,1,0.573532463209,3,401
2019_Oct_22,208,001,2,recog,89,BECAME,HF,lure,-,-,-,liberal,no,z,0,0.40022964116,-1,400
2019_Oct_22,208,001,2,recog,90,LEVEL,HF,target,left,yellow,imageability,conservative,no,m,0,0.906689948507,-1,399
2019_Oct_22,208,001,2,recog,91,FAILINGS,LF,target,left,yellow,imageability,liberal,no,z,1,1.03974764402,3,402
2019_Oct_22,208,001,2,recog,92,UMPIRE,LF,lure,-,-,-,liberal,no,m,1,0.813444419434,1,403
2019_Oct_22,208,001,2,recog,93,DUGOUTS,LF,lure,-,-,-,liberal,no,m,1,1.11993031579,1,404
2019_Oct_22,208,001,2,recog,94,TOUSLED,LF,target,left,yellow,imageability,conservative,no,z,1,0.74672530386,1,405
2019_Oct_22,208,001,2,recog,95,POUNDS,HF,lure,-,-,-,liberal,no,m,1,0.866693013322,1,406
2019_Oct_22,208,001,3,source,0,ARDENTLY,LF,target,right,aqua,pleasantness,conservative,yes,3,0,3.18586013152,-,-
2019_Oct_22,208,001,3,source,1,SONAR,LF,target,left,yellow,imageability,conservative,no,7,0,1.38654942161,-,-
2019_Oct_22,208,001,3,source,2,FIANCE,LF,target,left,yellow,imageability,liberal,no,2,1,1.31986183404,-,-
2019_Oct_22,208,001,3,source,3,HAVING,HF,target,right,aqua,pleasantness,conservative,no,2,0,1.82612637449,-,-
2019_Oct_22,208,001,3,source,4,HELICAL,LF,target,right,aqua,pleasantness,conservative,no,7,1,1.27987809662,-,-
2019_Oct_22,208,001,3,source,5,UNFAILING,LF,target,left,yellow,imageability,liberal,no,8,0,2.19950918968,-,-
2019_Oct_22,208,001,3,source,6,SYSTEM,HF,target,right,aqua,pleasantness,liberal,no,8,1,1.18634881554,-,-
2019_Oct_22,208,001,3,source,7,UTILIZE,LF,target,right,aqua,pleasantness,liberal,no,8,1,0.960011496722,-,-
2019_Oct_22,208,001,3,source,8,SPLASHES,LF,target,right,aqua,pleasantness,conservative,no,9,1,1.11959743875,-,-
2019_Oct_22,208,001,3,source,9,SUNBURN,LF,target,left,yellow,imageability,conservative,no,9,0,0.933397831313,-,-
2019_Oct_22,208,001,3,source,10,GIRLS,HF,target,left,yellow,imageability,conservative,no,9,0,1.00004472577,-,-
2019_Oct_22,208,001,3,source,11,PELTED,LF,target,right,aqua,pleasantness,conservative,no,2,0,1.00000329944,-,-
2019_Oct_22,208,001,3,source,12,PUBLIC,HF,target,right,aqua,pleasantness,conservative,no,3,0,1.69282195405,-,-
2019_Oct_22,208,001,3,source,13,EXCEPT,HF,target,left,yellow,imageability,liberal,no,3,1,1.8796990469,-,-
2019_Oct_22,208,001,3,source,14,POSITION,HF,target,right,aqua,pleasantness,liberal,no,3,0,0.773416689457,-,-
2019_Oct_22,208,001,3,source,15,ADDED,HF,target,left,yellow,imageability,conservative,no,3,1,0.9200273927,-,-
2019_Oct_22,208,001,3,source,16,WAKED,LF,target,right,aqua,pleasantness,liberal,no,7,1,1.46647766974,-,-
2019_Oct_22,208,001,3,source,17,DOING,HF,target,right,aqua,pleasantness,conservative,no,7,1,0.853401761316,-,-
2019_Oct_22,208,001,3,source,18,CHOICE,HF,target,left,yellow,imageability,liberal,no,2,1,0.719863813701,-,-
2019_Oct_22,208,001,3,source,19,PEPPERED,LF,target,left,yellow,imageability,conservative,no,1,1,1.87940429675,-,-
2019_Oct_22,208,001,3,source,20,RUSSET,LF,target,right,aqua,pleasantness,liberal,no,9,1,1.07972551576,-,-
2019_Oct_22,208,001,3,source,21,SECOND,HF,target,left,yellow,imageability,conservative,no,3,1,1.06643609677,-,-
2019_Oct_22,208,001,3,source,22,CODING,LF,target,left,yellow,imageability,liberal,no,2,1,1.10662989866,-,-
2019_Oct_22,208,001,3,source,23,RESEARCH,HF,target,right,aqua,pleasantness,liberal,yes,8,1,0.626818084168,-,-
2019_Oct_22,208,001,3,source,24,PLACE,HF,target,right,aqua,pleasantness,conservative,yes,8,1,0.466676002865,-,-
2019_Oct_22,208,001,3,source,25,SPRATS,LF,target,left,yellow,imageability,conservative,no,7,0,1.71951297304,-,-
2019_Oct_22,208,001,3,source,26,SANDAL,LF,target,left,yellow,imageability,conservative,no,7,0,1.27988726173,-,-
2019_Oct_22,208,001,3,source,27,HANDS,HF,target,right,aqua,pleasantness,conservative,no,2,0,2.31948313142,-,-
2019_Oct_22,208,001,3,source,28,LASER,LF,target,right,aqua,pleasantness,liberal,no,7,1,2.22626326467,-,-
2019_Oct_22,208,001,3,source,29,ROUND,HF,target,left,yellow,imageability,liberal,yes,7,0,0.746816221816,-,-
2019_Oct_22,208,001,3,source,30,SORRY,HF,target,left,yellow,imageability,liberal,no,7,0,0.479984851896,-,-
2019_Oct_22,208,001,3,source,31,BUCKED,LF,target,left,yellow,imageability,conservative,no,2,1,2.5327238653,-,-
2019_Oct_22,208,001,3,source,32,PARENTS,HF,target,right,aqua,pleasantness,liberal,no,8,1,3.17243763505,-,-
2019_Oct_22,208,001,3,source,33,FAMILY,HF,target,right,aqua,pleasantness,liberal,no,2,0,1.79966558323,-,-
2019_Oct_22,208,001,3,source,34,GENERAL,HF,target,left,yellow,imageability,conservative,no,3,1,1.74613690338,-,-
2019_Oct_22,208,001,3,source,35,TODAY,HF,target,right,aqua,pleasantness,conservative,no,3,0,0.64015222892,-,-
2019_Oct_22,208,001,3,source,36,WRITE,HF,target,left,yellow,imageability,conservative,no,2,1,1.57316659176,-,-
2019_Oct_22,208,001,3,source,37,TRYING,HF,target,left,yellow,imageability,conservative,no,8,0,0.760072279775,-,-
2019_Oct_22,208,001,3,source,38,SEVEN,HF,target,right,aqua,pleasantness,liberal,no,8,1,1.02641276605,-,-
2019_Oct_22,208,001,3,source,39,SINCE,HF,target,left,yellow,imageability,liberal,no,8,0,0.880017259748,-,-
2019_Oct_22,208,001,3,source,40,RIMMED,LF,target,left,yellow,imageability,liberal,no,2,1,0.826743370138,-,-
2019_Oct_22,208,001,3,source,41,HOSPITAL,HF,target,left,yellow,imageability,liberal,no,2,1,1.89293714123,-,-
2019_Oct_22,208,001,3,source,42,UNEARTHED,LF,target,right,aqua,pleasantness,liberal,no,1,0,1.4531754196,-,-
2019_Oct_22,208,001,3,source,43,ENCLOSE,LF,target,right,aqua,pleasantness,conservative,no,8,1,1.94626125568,-,-
2019_Oct_22,208,001,3,source,44,UNVEILED,LF,target,left,yellow,imageability,liberal,no,2,1,1.62639428918,-,-
2019_Oct_22,208,001,3,source,45,DIOCESE,LF,target,left,yellow,imageability,liberal,no,2,1,1.09329098805,-,-
2019_Oct_22,208,001,3,source,46,DAILIES,LF,target,right,aqua,pleasantness,liberal,no,8,1,0.773408990759,-,-
2019_Oct_22,208,001,3,source,47,ASHEN,LF,target,right,aqua,pleasantness,conservative,no,2,0,1.19990915536,-,-
2019_Oct_22,208,001,3,recog,0,PELTED,LF,target,right,aqua,pleasantness,conservative,no,m,0,2.01281649897,-1,405
2019_Oct_22,208,001,3,recog,1,FORCE,HF,lure,-,-,-,liberal,no,m,1,0.90648025064,1,406
2019_Oct_22,208,001,3,recog,2,LASER,LF,target,right,aqua,pleasantness,liberal,no,m,0,0.733426719761,-3,403
2019_Oct_22,208,001,3,recog,3,DAILIES,LF,target,right,aqua,pleasantness,liberal,no,z,1,0.733463013622,3,406
2019_Oct_22,208,001,3,recog,4,CHOICE,HF,target,left,yellow,imageability,liberal,no,z,1,0.546823480589,3,409
2019_Oct_22,208,001,3,recog,5,RAPACIOUS,LF,lure,-,-,-,conservative,no,z,0,2.41282104487,-3,406
2019_Oct_22,208,001,3,recog,6,POOLED,LF,lure,-,-,-,conservative,no,z,0,1.06665312673,-3,403
2019_Oct_22,208,001,3,recog,7,OBVIOUSLY,HF,lure,-,-,-,liberal,no,z,0,1.46645457365,-1,402
2019_Oct_22,208,001,3,recog,8,SIMILAR,HF,lure,-,-,-,liberal,no,m,1,1.51977575526,1,403
2019_Oct_22,208,001,3,recog,9,RIMMED,LF,target,left,yellow,imageability,liberal,yes,m,0,0.626868675611,-3,400
2019_Oct_22,208,001,3,recog,10,SANDAL,LF,target,left,yellow,imageability,conservative,no,z,1,1.73304618412,1,401
2019_Oct_22,208,001,3,recog,11,ENCLOSE,LF,target,right,aqua,pleasantness,conservative,no,z,1,0.666782024934,1,402
2019_Oct_22,208,001,3,recog,12,WAKED,LF,target,right,aqua,pleasantness,liberal,no,z,1,1.10661523448,3,405
2019_Oct_22,208,001,3,recog,13,SITTING,HF,lure,-,-,-,liberal,no,m,1,1.22659027603,1,406
2019_Oct_22,208,001,3,recog,14,AIRBED,LF,lure,-,-,-,liberal,yes,z,0,0.999986069023,-1,405
2019_Oct_22,208,001,3,recog,15,ADDED,HF,target,left,yellow,imageability,conservative,no,m,0,2.67932613664,-1,404
2019_Oct_22,208,001,3,recog,16,GADGET,LF,lure,-,-,-,conservative,no,m,1,0.880064551749,3,407
2019_Oct_22,208,001,3,recog,17,VARIOUS,HF,lure,-,-,-,conservative,no,z,0,0.800174797102,-3,404
2019_Oct_22,208,001,3,recog,18,SORRY,HF,target,left,yellow,imageability,liberal,no,z,1,0.826737871068,3,407
2019_Oct_22,208,001,3,recog,19,DOING,HF,target,right,aqua,pleasantness,conservative,no,m,0,1.3332363053,-1,406
2019_Oct_22,208,001,3,recog,20,RUNNING,HF,lure,-,-,-,conservative,no,m,1,0.89372974051,3,409
2019_Oct_22,208,001,3,recog,21,BUCKED,LF,target,left,yellow,imageability,conservative,no,z,1,0.853415692293,1,410
2019_Oct_22,208,001,3,recog,22,SIDED,LF,lure,-,-,-,liberal,no,m,1,0.826722473672,1,411
2019_Oct_22,208,001,3,recog,23,TAKEN,HF,lure,-,-,-,liberal,no,z,0,1.06652004924,-1,410
2019_Oct_22,208,001,3,recog,24,TODAY,HF,target,right,aqua,pleasantness,conservative,no,m,0,0.840051852563,-1,409
2019_Oct_22,208,001,3,recog,25,LUSCIOUS,LF,lure,-,-,-,conservative,no,m,1,1.2265565484,3,412
2019_Oct_22,208,001,3,recog,26,SONAR,LF,target,left,yellow,imageability,conservative,no,z,1,0.760095742473,1,413
2019_Oct_22,208,001,3,recog,27,OFTEN,HF,lure,-,-,-,conservative,no,m,1,0.946720244716,3,416
2019_Oct_22,208,001,3,recog,28,GORGED,LF,lure,-,-,-,conservative,no,z,0,0.89340969464,-3,413
2019_Oct_22,208,001,3,recog,29,ANNALS,LF,lure,-,-,-,liberal,no,m,1,1.46654732463,1,414
2019_Oct_22,208,001,3,recog,30,SPRATS,LF,target,left,yellow,imageability,conservative,no,m,0,0.920037291026,-1,413
2019_Oct_22,208,001,3,recog,31,AREAS,HF,lure,-,-,-,conservative,no,m,1,1.78635526778,3,416
2019_Oct_22,208,001,3,recog,32,BOTANIST,LF,lure,-,-,-,liberal,no,m,1,0.720257180502,1,417
2019_Oct_22,208,001,3,recog,33,ADULATION,LF,lure,-,-,-,liberal,no,m,1,1.18636347972,1,418
2019_Oct_22,208,001,3,recog,34,SCHOOL,HF,lure,-,-,-,liberal,no,z,0,0.866719042252,-1,417
2019_Oct_22,208,001,3,recog,35,SUNBURN,LF,target,left,yellow,imageability,conservative,no,z,1,0.680141098802,1,418
2019_Oct_22,208,001,3,recog,36,PEPPERED,LF,target,left,yellow,imageability,conservative,no,z,1,1.35961827656,1,419
2019_Oct_22,208,001,3,recog,37,SPEAK,HF,lure,-,-,-,conservative,no,m,1,1.13328682342,3,422
2019_Oct_22,208,001,3,recog,38,RUSSET,LF,target,right,aqua,pleasantness,liberal,no,z,1,0.986657789946,3,425
2019_Oct_22,208,001,3,recog,39,SECOND,HF,target,left,yellow,imageability,conservative,no,z,1,1.4797887184,1,426
2019_Oct_22,208,001,3,recog,40,PIQUE,LF,lure,-,-,-,liberal,no,m,1,0.773236686568,1,427
2019_Oct_22,208,001,3,recog,41,METABOLIC,LF,lure,-,-,-,liberal,no,m,1,0.880110010727,1,428
2019_Oct_22,208,001,3,recog,42,RESEARCH,HF,target,right,aqua,pleasantness,liberal,no,z,1,0.826729439161,3,431
2019_Oct_22,208,001,3,recog,43,GENERAL,HF,target,left,yellow,imageability,conservative,no,m,0,0.453575385283,-1,430
2019_Oct_22,208,001,3,recog,44,NOMAD,LF,lure,-,-,-,conservative,no,m,1,1.29318584583,3,433
2019_Oct_22,208,001,3,recog,45,WRITE,HF,target,left,yellow,imageability,conservative,no,z,1,0.746750966186,1,434
2019_Oct_22,208,001,3,recog,46,MOISTENED,LF,lure,-,-,-,conservative,no,m,1,0.746505341063,3,437
2019_Oct_22,208,001,3,recog,47,AVAILABLE,HF,lure,-,-,-,liberal,no,m,1,0.946738941554,1,438
2019_Oct_22,208,001,3,recog,48,ARDENTLY,LF,target,right,aqua,pleasantness,conservative,no,m,0,1.16000497116,-1,437
2019_Oct_22,208,001,3,recog,49,UNFAILING,LF,target,left,yellow,imageability,liberal,no,z,1,0.653448979996,3,440
2019_Oct_22,208,001,3,recog,50,ROUND,HF,target,left,yellow,imageability,liberal,no,z,1,0.373578582076,3,443
2019_Oct_22,208,001,3,recog,51,PUNCTUAL,LF,lure,-,-,-,liberal,no,m,1,0.973105148816,1,444
2019_Oct_22,208,001,3,recog,52,WIZENED,LF,lure,-,-,-,liberal,no,z,0,0.786751567418,-1,443
2019_Oct_22,208,001,3,recog,53,POSITION,HF,target,right,aqua,pleasantness,liberal,no,m,0,0.920010162281,-3,440
2019_Oct_22,208,001,3,recog,54,UTILIZE,LF,target,right,aqua,pleasantness,liberal,no,z,1,0.840054785401,3,443
2019_Oct_22,208,001,3,recog,55,PLEASE,HF,lure,-,-,-,liberal,no,m,1,0.920051222003,1,444
2019_Oct_22,208,001,3,recog,56,PLACE,HF,target,right,aqua,pleasantness,conservative,no,m,0,1.3998788005,-1,443
2019_Oct_22,208,001,3,recog,57,TRYING,HF,target,left,yellow,imageability,conservative,no,z,1,0.693441882529,1,444
2019_Oct_22,208,001,3,recog,58,DIOCESE,LF,target,left,yellow,imageability,liberal,no,z,1,0.746761231117,3,447
2019_Oct_22,208,001,3,recog,59,SEVEN,HF,target,right,aqua,pleasantness,liberal,no,z,1,0.533590885328,3,450
2019_Oct_22,208,001,3,recog,60,WEBBED,LF,lure,-,-,-,liberal,no,z,0,0.93310821363,-1,449
2019_Oct_22,208,001,3,recog,61,EASILY,HF,lure,-,-,-,conservative,no,m,1,1.09326935838,3,452
2019_Oct_22,208,001,3,recog,62,UPTIGHT,LF,lure,-,-,-,conservative,no,m,1,0.826553835528,3,455
2019_Oct_22,208,001,3,recog,63,CAVERN,LF,lure,-,-,-,liberal,no,z,0,0.920017494374,-1,454
2019_Oct_22,208,001,3,recog,64,KRONOR,LF,lure,-,-,-,conservative,no,m,1,1.00000659888,3,457
2019_Oct_22,208,001,3,recog,65,EXCEPT,HF,target,left,yellow,imageability,liberal,yes,m,0,0.880020559189,-3,454
2019_Oct_22,208,001,3,recog,66,SYSTEM,HF,target,right,aqua,pleasantness,liberal,no,z,1,0.680139632384,3,457
2019_Oct_22,208,001,3,recog,67,UNEARTHED,LF,target,right,aqua,pleasantness,liberal,no,z,1,1.11995231207,3,460
2019_Oct_22,208,001,3,recog,68,ASHEN,LF,target,right,aqua,pleasantness,conservative,no,m,0,0.693442615739,-1,459
2019_Oct_22,208,001,3,recog,69,UPSTART,LF,lure,-,-,-,liberal,yes,m,1,0.813356434315,1,460
2019_Oct_22,208,001,3,recog,70,HOSPITAL,HF,target,left,yellow,imageability,liberal,no,z,1,1.02662649657,3,463
2019_Oct_22,208,001,3,recog,71,GIRLS,HF,target,left,yellow,imageability,conservative,no,z,1,0.933347606474,1,464
2019_Oct_22,208,001,3,recog,72,NURTURING,LF,lure,-,-,-,conservative,no,m,1,0.88001982598,3,467
2019_Oct_22,208,001,3,recog,73,BIGNESS,LF,lure,-,-,-,conservative,no,z,0,0.613494204347,-3,464
2019_Oct_22,208,001,3,recog,74,HELICAL,LF,target,right,aqua,pleasantness,conservative,no,m,0,0.333635537776,-1,463
2019_Oct_22,208,001,3,recog,75,HANDS,HF,target,right,aqua,pleasantness,conservative,no,z,1,0.760179694941,1,464
2019_Oct_22,208,001,3,recog,76,TOTAL,HF,lure,-,-,-,conservative,no,z,0,1.03987595565,-3,461
2019_Oct_22,208,001,3,recog,77,UDDER,LF,lure,-,-,-,conservative,no,m,1,0.520159223737,3,464
2019_Oct_22,208,001,3,recog,78,FAMILY,HF,target,right,aqua,pleasantness,liberal,no,z,1,1.00003079479,3,467
2019_Oct_22,208,001,3,recog,79,NEITHER,HF,lure,-,-,-,liberal,no,m,1,1.07997114088,1,468
2019_Oct_22,208,001,3,recog,80,IDEAS,HF,lure,-,-,-,conservative,no,z,0,1.02665399192,-3,465
2019_Oct_22,208,001,3,recog,81,PUBLIC,HF,target,right,aqua,pleasantness,conservative,no,m,0,0.986239127422,-1,464
2019_Oct_22,208,001,3,recog,82,FIANCE,LF,target,left,yellow,imageability,liberal,no,z,1,0.880086181424,3,467
2019_Oct_22,208,001,3,recog,83,SPLASHES,LF,target,right,aqua,pleasantness,conservative,no,z,1,0.746783594001,1,468
2019_Oct_22,208,001,3,recog,84,SEEMED,HF,lure,-,-,-,conservative,no,z,0,0.600125598757,-3,465
2019_Oct_22,208,001,3,recog,85,CODING,LF,target,left,yellow,imageability,liberal,no,z,1,0.813399327061,3,468
2019_Oct_22,208,001,3,recog,86,PARENTS,HF,target,right,aqua,pleasantness,liberal,no,z,1,0.706689141976,3,471
2019_Oct_22,208,001,3,recog,87,SINCE,HF,target,left,yellow,imageability,liberal,no,z,1,0.840029123075,3,474
2019_Oct_22,208,001,3,recog,88,UNVEILED,LF,target,left,yellow,imageability,liberal,no,z,1,0.693470844298,3,477
2019_Oct_22,208,001,3,recog,89,UNTIL,HF,lure,-,-,-,liberal,no,z,0,0.360236372022,-1,476
2019_Oct_22,208,001,3,recog,90,HAVING,HF,target,right,aqua,pleasantness,conservative,no,z,1,0.666789723632,1,477
2019_Oct_22,208,001,3,recog,91,WEEKS,HF,lure,-,-,-,conservative,no,z,0,0.466623578399,-3,474
2019_Oct_22,208,001,3,recog,92,NUCLEAR,HF,lure,-,-,-,liberal,no,m,1,2.279262934,1,475
2019_Oct_22,208,001,3,recog,93,SUMMER,HF,lure,-,-,-,conservative,no,m,1,0.599896104239,3,478
2019_Oct_22,208,001,3,recog,94,ENTIRELY,HF,lure,-,-,-,conservative,no,m,1,0.653440181484,3,481
2019_Oct_22,208,001,3,recog,95,PROBABLY,HF,lure,-,-,-,liberal,no,m,1,0.786753767046,1,482
2019_Oct_22,208,001,4,source,0,HOODLUMS,LF,target,right,aqua,pleasantness,liberal,no,7,1,2.43978518433,-,-
2019_Oct_22,208,001,4,source,1,GIVEN,HF,target,left,yellow,imageability,liberal,no,3,1,0.746548600413,-,-
2019_Oct_22,208,001,4,source,2,ABETTED,LF,target,right,aqua,pleasantness,liberal,no,7,1,0.640159927618,-,-
2019_Oct_22,208,001,4,source,3,ENFORCING,LF,target,left,yellow,imageability,conservative,yes,2,1,0.573498735581,-,-
2019_Oct_22,208,001,4,source,4,TOWARDS,HF,target,left,yellow,imageability,liberal,yes,8,0,0.373561351657,-,-
2019_Oct_22,208,001,4,source,5,LIKELY,HF,target,right,aqua,pleasantness,conservative,no,7,1,1.01333561117,-,-
2019_Oct_22,208,001,4,source,6,RANGE,HF,target,left,yellow,imageability,liberal,no,8,0,0.600146861827,-,-
2019_Oct_22,208,001,4,source,7,LABOUR,HF,target,right,aqua,pleasantness,liberal,no,2,0,0.760074846008,-,-
2019_Oct_22,208,001,4,source,8,COERCION,LF,target,right,aqua,pleasantness,conservative,no,9,1,1.26631958981,-,-
2019_Oct_22,208,001,4,source,9,BRING,HF,target,right,aqua,pleasantness,liberal,no,2,0,0.706795823933,-,-
2019_Oct_22,208,001,4,source,10,JARRED,LF,target,right,aqua,pleasantness,conservative,no,3,0,1.27967829708,-,-
2019_Oct_22,208,001,4,source,11,LOUDEST,LF,target,left,yellow,imageability,conservative,no,2,1,1.19990218988,-,-
2019_Oct_22,208,001,4,source,12,DYEING,LF,target,left,yellow,imageability,liberal,no,2,1,0.90671854367,-,-
2019_Oct_22,208,001,4,source,13,TYPHOID,LF,target,right,aqua,pleasantness,conservative,no,2,0,1.06661829929,-,-
2019_Oct_22,208,001,4,source,14,TEXTURES,LF,target,left,yellow,imageability,conservative,no,1,1,2.10625779493,-,-
2019_Oct_22,208,001,4,source,15,BLACK,HF,target,left,yellow,imageability,conservative,no,2,1,1.14637534305,-,-
2019_Oct_22,208,001,4,source,16,BONANZA,LF,target,left,yellow,imageability,liberal,no,1,1,0.893359103197,-,-
2019_Oct_22,208,001,4,source,17,LAYERED,LF,target,right,aqua,pleasantness,liberal,no,8,1,1.66615549757,-,-
2019_Oct_22,208,001,4,source,18,LEGALITY,LF,target,left,yellow,imageability,liberal,no,9,0,1.49317272139,-,-
2019_Oct_22,208,001,4,source,19,CHIEF,HF,target,right,aqua,pleasantness,conservative,no,9,1,0.840245786429,-,-
2019_Oct_22,208,001,4,source,20,CARRIED,HF,target,right,aqua,pleasantness,conservative,no,2,0,2.81246485178,-,-
2019_Oct_22,208,001,4,source,21,BUGGED,LF,target,left,yellow,imageability,conservative,no,8,0,0.679923702238,-,-
2019_Oct_22,208,001,4,source,22,INNATELY,LF,target,right,aqua,pleasantness,liberal,no,9,1,0.853403594338,-,-
2019_Oct_22,208,001,4,source,23,LEMURS,LF,target,left,yellow,imageability,liberal,no,3,1,1.69281902121,-,-
2019_Oct_22,208,001,4,source,24,SENSE,HF,target,left,yellow,imageability,liberal,no,2,1,0.720036851101,-,-
2019_Oct_22,208,001,4,source,25,LINEAGE,LF,target,right,aqua,pleasantness,conservative,no,8,1,1.18635578103,-,-
2019_Oct_22,208,001,4,source,26,TORMENTS,LF,target,left,yellow,imageability,liberal,no,2,1,0.866737005881,-,-
2019_Oct_22,208,001,4,source,27,STOOD,HF,target,right,aqua,pleasantness,conservative,no,2,0,1.06639247082,-,-
2019_Oct_22,208,001,4,source,28,JAUNDICE,LF,target,right,aqua,pleasantness,liberal,no,2,0,0.933367403127,-,-
2019_Oct_22,208,001,4,source,29,DEVELOPED,HF,target,left,yellow,imageability,liberal,no,2,1,2.35946760205,-,-
2019_Oct_22,208,001,4,source,30,ARRIVED,HF,target,left,yellow,imageability,liberal,no,7,0,2.27948509642,-,-
2019_Oct_22,208,001,4,source,31,TAWNY,LF,target,left,yellow,imageability,conservative,no,3,1,0.653540997766,-,-
2019_Oct_22,208,001,4,source,32,DAUGHTER,HF,target,right,aqua,pleasantness,liberal,no,7,1,2.01265592613,-,-
2019_Oct_22,208,001,4,source,33,ASKED,HF,target,right,aqua,pleasantness,conservative,no,7,1,0.960005631047,-,-
2019_Oct_22,208,001,4,source,34,ALONE,HF,target,left,yellow,imageability,conservative,no,7,0,0.719843283839,-,-
2019_Oct_22,208,001,4,source,35,PENALIZED,LF,target,left,yellow,imageability,conservative,no,8,0,1.25314711772,-,-
2019_Oct_22,208,001,4,source,36,CEMENTED,LF,target,right,aqua,pleasantness,liberal,no,8,1,1.54618522187,-,-
2019_Oct_22,208,001,4,source,37,COOING,LF,target,left,yellow,imageability,liberal,no,2,1,0.800071047984,-,-
2019_Oct_22,208,001,4,source,38,FABLE,LF,target,right,aqua,pleasantness,conservative,no,2,0,1.4797964171,-,-
2019_Oct_22,208,001,4,source,39,MARKET,HF,target,right,aqua,pleasantness,conservative,no,9,1,1.22658917622,-,-
2019_Oct_22,208,001,4,source,40,TROUBLE,HF,target,right,aqua,pleasantness,liberal,no,2,0,1.13326446054,-,-
2019_Oct_22,208,001,4,source,41,USUAL,HF,target,right,aqua,pleasantness,liberal,no,8,1,0.586600452977,-,-
2019_Oct_22,208,001,4,source,42,PERHAPS,HF,target,left,yellow,imageability,conservative,no,8,0,0.546894968498,-,-
2019_Oct_22,208,001,4,source,43,BUILDING,HF,target,left,yellow,imageability,conservative,yes,8,0,0.533549092397,-,-
2019_Oct_22,208,001,4,source,44,FOUND,HF,target,left,yellow,imageability,conservative,yes,8,0,0.360250669603,-,-
2019_Oct_22,208,001,4,source,45,BELIEVE,HF,target,right,aqua,pleasantness,liberal,no,8,1,0.493563888561,-,-
2019_Oct_22,208,001,4,source,46,ALLOWED,HF,target,left,yellow,imageability,conservative,no,8,0,0.440226576345,-,-
2019_Oct_22,208,001,4,source,47,BENIGNLY,LF,target,right,aqua,pleasantness,conservative,no,2,0,0.533555324676,-,-
2019_Oct_22,208,001,4,recog,0,DULLED,LF,lure,-,-,-,conservative,no,m,1,1.47981144789,3,485
2019_Oct_22,208,001,4,recog,1,TROUBLE,HF,target,right,aqua,pleasantness,liberal,no,z,1,0.906700213437,3,488
2019_Oct_22,208,001,4,recog,2,LEGALITY,LF,target,left,yellow,imageability,liberal,no,z,1,0.719850249328,3,491
2019_Oct_22,208,001,4,recog,3,HOODLUMS,LF,target,right,aqua,pleasantness,liberal,no,z,1,0.626832748354,3,494
2019_Oct_22,208,001,4,recog,4,DINER,LF,lure,-,-,-,conservative,no,m,1,1.30658084696,3,497
2019_Oct_22,208,001,4,recog,5,REIGNING,LF,lure,-,-,-,liberal,no,m,1,0.626872708262,1,498
2019_Oct_22,208,001,4,recog,6,LINEAGE,LF,target,right,aqua,pleasantness,conservative,no,z,1,0.746761597722,1,499
2019_Oct_22,208,001,4,recog,7,COERCION,LF,target,right,aqua,pleasantness,conservative,no,z,1,0.799821756814,1,500
2019_Oct_22,208,001,4,recog,8,LAYERED,LF,target,right,aqua,pleasantness,liberal,no,z,1,0.679877510051,3,503
2019_Oct_22,208,001,4,recog,9,EXACTLY,HF,lure,-,-,-,conservative,no,z,0,0.720125569429,-3,500
2019_Oct_22,208,001,4,recog,10,BELIEVE,HF,target,right,aqua,pleasantness,liberal,no,z,1,0.586816383122,3,503
2019_Oct_22,208,001,4,recog,11,RECENT,HF,lure,-,-,-,conservative,no,m,1,0.706756597234,3,506
2019_Oct_22,208,001,4,recog,12,AQUARIUM,LF,lure,-,-,-,conservative,no,m,1,0.6267891224,3,509
2019_Oct_22,208,001,4,recog,13,TEXTURES,LF,target,left,yellow,imageability,conservative,no,z,1,0.69347964281,1,510
2019_Oct_22,208,001,4,recog,14,SLIGHTLY,HF,lure,-,-,-,liberal,no,m,1,0.706790324863,1,511
2019_Oct_22,208,001,4,recog,15,LEMURS,LF,target,left,yellow,imageability,liberal,no,z,1,0.680155029779,3,514
2019_Oct_22,208,001,4,recog,16,GARDEN,HF,lure,-,-,-,liberal,no,m,1,0.586781189075,1,515
2019_Oct_22,208,001,4,recog,17,FASCINATE,LF,lure,-,-,-,liberal,no,z,0,0.453565486957,-1,514
2019_Oct_22,208,001,4,recog,18,ARRIVED,HF,target,left,yellow,imageability,liberal,no,m,0,0.533274138901,-3,511
2019_Oct_22,208,001,4,recog,19,INNATELY,LF,target,right,aqua,pleasantness,liberal,no,z,1,0.839831889766,3,514
2019_Oct_22,208,001,4,recog,20,BANALITY,LF,lure,-,-,-,liberal,no,m,1,0.800373863434,1,515
2019_Oct_22,208,001,4,recog,21,BUILDING,HF,target,left,yellow,imageability,conservative,no,z,1,1.29319757718,1,516
2019_Oct_22,208,001,4,recog,22,BROUGHT,HF,lure,-,-,-,liberal,no,z,0,1.41318801613,-1,515
2019_Oct_22,208,001,4,recog,23,LABOUR,HF,target,right,aqua,pleasantness,liberal,no,m,0,0.706524903088,-3,512
2019_Oct_22,208,001,4,recog,24,BRING,HF,target,right,aqua,pleasantness,liberal,yes,m,0,0.599933864519,-3,509
2019_Oct_22,208,001,4,recog,25,MARKET,HF,target,right,aqua,pleasantness,conservative,no,z,1,1.25324353474,1,510
2019_Oct_22,208,001,4,recog,26,MONEY,HF,lure,-,-,-,conservative,no,m,1,0.640130599245,3,513
2019_Oct_22,208,001,4,recog,27,CARRIED,HF,target,right,aqua,pleasantness,conservative,no,z,1,1.37321930951,1,514
2019_Oct_22,208,001,4,recog,28,REREAD,LF,lure,-,-,-,conservative,no,m,1,1.55979028747,3,517
2019_Oct_22,208,001,4,recog,29,REQUIRED,HF,lure,-,-,-,liberal,no,m,1,0.799849252163,1,518
2019_Oct_22,208,001,4,recog,30,BUGGED,LF,target,left,yellow,imageability,conservative,no,m,0,0.693423552297,-1,517
2019_Oct_22,208,001,4,recog,31,ENFORCING,LF,target,left,yellow,imageability,conservative,no,z,1,0.680156129593,1,518
2019_Oct_22,208,001,4,recog,32,ACCORDING,HF,lure,-,-,-,liberal,no,m,1,0.800212923988,1,519
2019_Oct_22,208,001,4,recog,33,ADJOURNED,LF,lure,-,-,-,conservative,no,m,1,1.13326592696,3,522
2019_Oct_22,208,001,4,recog,34,OPENED,HF,lure,-,-,-,liberal,no,z,0,0.973374603242,-1,521
2019_Oct_22,208,001,4,recog,35,VOICE,HF,lure,-,-,-,liberal,no,m,1,1.65307687626,1,522
2019_Oct_22,208,001,4,recog,36,DAYBREAK,LF,lure,-,-,-,liberal,no,m,1,0.586901068799,1,523
2019_Oct_22,208,001,4,recog,37,DOODLE,LF,lure,-,-,-,conservative,no,m,1,0.733212989243,3,526
2019_Oct_22,208,001,4,recog,38,TYPHOID,LF,target,right,aqua,pleasantness,conservative,no,z,1,0.839842521302,1,527
2019_Oct_22,208,001,4,recog,39,PENALIZED,LF,target,left,yellow,imageability,conservative,no,z,1,0.546884336962,1,528
2019_Oct_22,208,001,4,recog,40,DEMEANOUR,LF,lure,-,-,-,liberal,no,m,1,0.706766128955,1,529
2019_Oct_22,208,001,4,recog,41,FIVER,LF,lure,-,-,-,conservative,no,m,1,1.19994178318,3,532
2019_Oct_22,208,001,4,recog,42,ABETTED,LF,target,right,aqua,pleasantness,liberal,no,m,0,0.666799988562,-3,529
2019_Oct_22,208,001,4,recog,43,WHOLE,HF,lure,-,-,-,liberal,no,m,1,0.706787025421,1,530
2019_Oct_22,208,001,4,recog,44,JARRED,LF,target,right,aqua,pleasantness,conservative,no,m,0,0.920058187492,-1,529
2019_Oct_22,208,001,4,recog,45,DEVELOPED,HF,target,left,yellow,imageability,liberal,no,z,1,0.733447982831,3,532
2019_Oct_22,208,001,4,recog,46,IDLING,LF,lure,-,-,-,liberal,no,m,1,0.773428420806,1,533
2019_Oct_22,208,001,4,recog,47,GUMMED,LF,lure,-,-,-,conservative,no,m,1,0.60030670146,3,536
2019_Oct_22,208,001,4,recog,48,EXHALED,LF,lure,-,-,-,conservative,yes,m,1,1.15990635451,3,539
2019_Oct_22,208,001,4,recog,49,WATCH,HF,lure,-,-,-,liberal,no,z,0,1.09331261773,-1,538
2019_Oct_22,208,001,4,recog,50,NIGHT,HF,lure,-,-,-,conservative,no,m,1,0.680091973778,3,541
2019_Oct_22,208,001,4,recog,51,FURTHER,HF,lure,-,-,-,liberal,no,m,1,1.0263929694,1,542
2019_Oct_22,208,001,4,recog,52,CHIEF,HF,target,right,aqua,pleasantness,conservative,no,m,0,0.959985101187,-1,541
2019_Oct_22,208,001,4,recog,53,JACKALS,LF,lure,-,-,-,liberal,no,m,1,0.800097076914,1,542
2019_Oct_22,208,001,4,recog,54,TUSKS,LF,lure,-,-,-,conservative,no,m,1,1.55968507193,3,545
2019_Oct_22,208,001,4,recog,55,DEFEATING,LF,lure,-,-,-,liberal,no,m,1,0.959997565745,1,546
2019_Oct_22,208,001,4,recog,56,NESTING,LF,lure,-,-,-,liberal,no,m,1,1.18656254605,1,547
2019_Oct_22,208,001,4,recog,57,BENIGNLY,LF,target,right,aqua,pleasantness,conservative,no,z,1,0.920037291026,1,548
2019_Oct_22,208,001,4,recog,58,SUBJECT,HF,lure,-,-,-,conservative,no,m,1,0.706774927467,3,551
2019_Oct_22,208,001,4,recog,59,FIELD,HF,lure,-,-,-,conservative,no,m,1,0.840401593411,3,554
2019_Oct_22,208,001,4,recog,60,USUAL,HF,target,right,aqua,pleasantness,liberal,no,z,1,0.493524661862,3,557
2019_Oct_22,208,001,4,recog,61,FINAL,HF,lure,-,-,-,conservative,no,m,1,0.45356805319,3,560
2019_Oct_22,208,001,4,recog,62,COUNCIL,HF,lure,-,-,-,liberal,no,z,0,0.200334416772,-1,559
2019_Oct_22,208,001,4,recog,63,GIVEN,HF,target,left,yellow,imageability,liberal,no,m,0,0.52016105676,-3,556
2019_Oct_22,208,001,4,recog,64,SAPLINGS,LF,lure,-,-,-,liberal,no,z,0,0.360298694814,-1,555
2019_Oct_22,208,001,4,recog,65,FOUND,HF,target,left,yellow,imageability,conservative,no,m,0,1.15996537786,-1,554
2019_Oct_22,208,001,4,recog,66,TAWNY,LF,target,left,yellow,imageability,conservative,no,m,0,0.639894139238,-1,553
2019_Oct_22,208,001,4,recog,67,SENSE,HF,target,left,yellow,imageability,liberal,no,z,1,1.34659354614,3,556
2019_Oct_22,208,001,4,recog,68,PHYSICAL,HF,lure,-,-,-,conservative,no,m,1,1.35962524205,3,559
2019_Oct_22,208,001,4,recog,69,DYEING,LF,target,left,yellow,imageability,liberal,no,z,1,1.07985639362,3,562
2019_Oct_22,208,001,4,recog,70,COOING,LF,target,left,yellow,imageability,liberal,no,z,1,0.51997152215,3,565
2019_Oct_22,208,001,4,recog,71,PERHAPS,HF,target,left,yellow,imageability,conservative,no,m,0,0.733445416598,-1,564
2019_Oct_22,208,001,4,recog,72,STOOD,HF,target,right,aqua,pleasantness,conservative,no,m,0,0.880074450075,-1,563
2019_Oct_22,208,001,4,recog,73,BLACK,HF,target,left,yellow,imageability,conservative,no,z,1,0.693423552297,1,564
2019_Oct_22,208,001,4,recog,74,FABLE,LF,target,right,aqua,pleasantness,conservative,no,z,1,0.533455974813,1,565
2019_Oct_22,208,001,4,recog,75,LOUDEST,LF,target,left,yellow,imageability,conservative,no,z,1,0.413886398014,1,566
2019_Oct_22,208,001,4,recog,76,MUSIC,HF,lure,-,-,-,conservative,no,z,0,0.306929487993,-3,563
2019_Oct_22,208,001,4,recog,77,TREES,HF,lure,-,-,-,conservative,no,m,1,0.640216018131,3,566
2019_Oct_22,208,001,4,recog,78,DAUGHTER,HF,target,right,aqua,pleasantness,liberal,no,z,1,0.666806587446,3,569
2019_Oct_22,208,001,4,recog,79,ALONE,HF,target,left,yellow,imageability,conservative,no,m,0,0.746526237529,-1,568
2019_Oct_22,208,001,4,recog,80,RATHER,HF,lure,-,-,-,conservative,no,m,1,1.13336051096,3,571
2019_Oct_22,208,001,4,recog,81,CEMENTED,LF,target,right,aqua,pleasantness,liberal,no,z,1,0.746824287119,3,574
2019_Oct_22,208,001,4,recog,82,RANGE,HF,target,left,yellow,imageability,liberal,no,z,1,0.719892775468,3,577
2019_Oct_22,208,001,4,recog,83,EVIDENCE,HF,lure,-,-,-,conservative,no,m,1,0.800062982681,3,580
2019_Oct_22,208,001,4,recog,84,WHITE,HF,lure,-,-,-,liberal,no,m,1,0.706535901228,1,581
2019_Oct_22,208,001,4,recog,85,TOWARDS,HF,target,left,yellow,imageability,liberal,no,m,0,0.519945126614,-3,578
2019_Oct_22,208,001,4,recog,86,TORMENTS,LF,target,left,yellow,imageability,liberal,no,z,1,0.640231415526,3,581
2019_Oct_22,208,001,4,recog,87,JAUNDICE,LF,target,right,aqua,pleasantness,liberal,yes,m,0,0.533510965512,-3,578
2019_Oct_22,208,001,4,recog,88,HEIFERS,LF,lure,-,-,-,liberal,yes,z,0,0.653464743996,-1,577
2019_Oct_22,208,001,4,recog,89,LIKELY,HF,target,right,aqua,pleasantness,conservative,no,m,0,0.666806587446,-1,576
2019_Oct_22,208,001,4,recog,90,ALLOWED,HF,target,left,yellow,imageability,conservative,no,z,1,0.440253338485,1,577
2019_Oct_22,208,001,4,recog,91,ASKED,HF,target,right,aqua,pleasantness,conservative,no,z,1,0.306919956271,1,578
2019_Oct_22,208,001,4,recog,92,TIRADE,LF,lure,-,-,-,conservative,no,m,1,0.760080345077,3,581
2019_Oct_22,208,001,4,recog,93,BONANZA,LF,target,left,yellow,imageability,liberal,no,z,1,0.653506170323,3,584
2019_Oct_22,208,001,4,recog,94,GAPED,LF,lure,-,-,-,liberal,no,m,1,0.733209323196,1,585
2019_Oct_22,208,001,4,recog,95,BOLDNESS,LF,lure,-,-,-,conservative,no,m,1,2.43945927279,3,588
