date,subj,session,cycle,task,trial,item,wf,type,source,colour,encoding,bias,null,response,corr,rt,points,total
2019_Oct_23,209,001,0,source,0,RIGGING,LF,target,right,yellow,imageability,liberal,no,2,0,2.67935758896,-,-
2019_Oct_23,209,001,0,source,1,TRYING,HF,target,left,aqua,pleasantness,liberal,no,1,1,1.43968158069,-,-
2019_Oct_23,209,001,0,source,2,WOMAN,HF,target,right,yellow,imageability,liberal,no,9,1,2.57277605799,-,-
2019_Oct_23,209,001,0,source,3,TIPSY,LF,target,left,aqua,pleasantness,conservative,no,1,1,2.22594917961,-,-
2019_Oct_23,209,001,0,source,4,CLOSE,HF,target,left,aqua,pleasantness,conservative,no,8,0,3.2791726729,-,-
2019_Oct_23,209,001,0,source,5,PASSED,HF,target,left,aqua,pleasantness,liberal,no,8,0,2.81258734388,-,-
2019_Oct_23,209,001,0,source,6,ENROLMENT,LF,target,left,aqua,pleasantness,conservative,no,1,1,1.95959708534,-,-
2019_Oct_23,209,001,0,source,7,ADENOIDS,LF,target,left,aqua,pleasantness,liberal,no,1,1,1.35961739531,-,-
2019_Oct_23,209,001,0,source,8,FIANCE,LF,target,right,yellow,imageability,liberal,no,7,1,2.98562281228,-,-
2019_Oct_23,209,001,0,source,9,LIKELY,HF,target,right,yellow,imageability,liberal,no,8,1,1.74567038307,-,-
2019_Oct_23,209,001,0,source,10,GEARING,LF,target,right,yellow,imageability,liberal,no,2,0,3.75863320483,-,-
2019_Oct_23,209,001,0,source,11,CHAIR,HF,target,right,yellow,imageability,conservative,yes,1,0,3.02600006452,-,-
2019_Oct_23,209,001,0,source,12,DAUGHTER,HF,target,right,yellow,imageability,conservative,yes,9,1,1.6530316117,-,-
2019_Oct_23,209,001,0,source,13,ENGULF,LF,target,right,yellow,imageability,conservative,no,9,1,3.11914621861,-,-
2019_Oct_23,209,001,0,source,14,FRIEND,HF,target,left,aqua,pleasantness,liberal,no,1,1,2.55949098956,-,-
2019_Oct_23,209,001,0,source,15,YOUNG,HF,target,left,aqua,pleasantness,liberal,no,2,1,1.21318835777,-,-
2019_Oct_23,209,001,0,source,16,UNLESS,HF,target,left,aqua,pleasantness,liberal,no,3,1,2.27948538782,-,-
2019_Oct_23,209,001,0,source,17,FAMILY,HF,target,left,aqua,pleasantness,conservative,no,1,1,2.42606839988,-,-
2019_Oct_23,209,001,0,source,18,ECONOMIC,HF,target,left,aqua,pleasantness,conservative,no,1,1,1.19964629853,-,-
2019_Oct_23,209,001,0,source,19,ANSWER,HF,target,right,yellow,imageability,liberal,no,9,1,1.55952105125,-,-
2019_Oct_23,209,001,0,source,20,AFIELD,LF,target,left,aqua,pleasantness,liberal,yes,9,0,1.66641089788,-,-
2019_Oct_23,209,001,0,source,21,TAKEN,HF,target,left,aqua,pleasantness,conservative,no,2,1,2.65240838149,-,-
2019_Oct_23,209,001,0,source,22,ZIGZAG,LF,target,left,aqua,pleasantness,liberal,no,1,1,3.79887444624,-,-
2019_Oct_23,209,001,0,source,23,ROPED,LF,target,left,aqua,pleasantness,liberal,no,1,1,2.49247027925,-,-
2019_Oct_23,209,001,0,source,24,NEARLY,HF,target,right,yellow,imageability,conservative,yes,8,1,1.71951157815,-,-
2019_Oct_23,209,001,0,source,25,TABLE,HF,target,left,aqua,pleasantness,conservative,no,9,0,3.43899309461,-,-
2019_Oct_23,209,001,0,source,26,APTLY,LF,target,left,aqua,pleasantness,liberal,no,7,0,2.2394149848,-,-
2019_Oct_23,209,001,0,source,27,BAYING,LF,target,right,yellow,imageability,liberal,no,7,1,1.98461354595,-,-
2019_Oct_23,209,001,0,source,28,MATERIAL,HF,target,right,yellow,imageability,conservative,no,1,0,3.29253766143,-,-
2019_Oct_23,209,001,0,source,29,METABOLIC,LF,target,left,aqua,pleasantness,conservative,no,1,1,1.71971834394,-,-
2019_Oct_23,209,001,0,source,30,BUBBLED,LF,target,left,aqua,pleasantness,conservative,no,1,1,1.4396944119,-,-
2019_Oct_23,209,001,0,source,31,WASHBASIN,LF,target,right,yellow,imageability,conservative,no,9,1,2.23948683958,-,-
2019_Oct_23,209,001,0,source,32,MYOPIC,LF,target,left,aqua,pleasantness,conservative,no,3,1,2.5993428954,-,-
2019_Oct_23,209,001,0,source,33,HAIRDO,LF,target,right,yellow,imageability,liberal,no,2,0,1.29321441612,-,-
2019_Oct_23,209,001,0,source,34,EVENING,HF,target,right,yellow,imageability,liberal,no,8,1,2.54601198655,-,-
2019_Oct_23,209,001,0,source,35,LIVED,HF,target,left,aqua,pleasantness,liberal,no,2,1,2.06620317891,-,-
2019_Oct_23,209,001,0,source,36,DINER,LF,target,right,yellow,imageability,conservative,no,2,0,2.0529434063,-,-
2019_Oct_23,209,001,0,source,37,BRING,HF,target,right,yellow,imageability,conservative,no,9,1,2.66592807777,-,-
2019_Oct_23,209,001,0,source,38,SENSE,HF,target,right,yellow,imageability,liberal,no,1,0,1.06636008628,-,-
2019_Oct_23,209,001,0,source,39,BETTER,HF,target,left,aqua,pleasantness,conservative,no,8,0,1.11988566292,-,-
2019_Oct_23,209,001,0,source,40,ARRIVED,HF,target,right,yellow,imageability,liberal,no,2,0,1.39984030642,-,-
2019_Oct_23,209,001,0,source,41,FITFUL,LF,target,right,yellow,imageability,conservative,no,8,1,1.98598538562,-,-
2019_Oct_23,209,001,0,source,42,RUINOUS,LF,target,right,yellow,imageability,conservative,no,9,1,2.83928102697,-,-
2019_Oct_23,209,001,0,source,43,SOMEONE,HF,target,right,yellow,imageability,conservative,no,2,0,2.15992673746,-,-
2019_Oct_23,209,001,0,source,44,MURPHY,LF,target,right,yellow,imageability,liberal,no,8,1,1.83971398866,-,-
2019_Oct_23,209,001,0,source,45,SHIELDING,LF,target,right,yellow,imageability,conservative,no,8,1,1.23989560527,-,-
2019_Oct_23,209,001,0,source,46,TOMBSTONE,LF,target,left,aqua,pleasantness,liberal,no,3,1,2.19948939116,-,-
2019_Oct_23,209,001,0,source,47,TATTERS,LF,target,left,aqua,pleasantness,conservative,no,1,1,1.31976695589,-,-
2019_Oct_23,209,001,0,recog,0,ECONOMIC,HF,target,left,aqua,pleasantness,conservative,no,z,1,2.67803047522,1,1
2019_Oct_23,209,001,0,recog,1,MURPHY,LF,target,right,yellow,imageability,liberal,no,z,1,0.906476241731,3,4
2019_Oct_23,209,001,0,recog,2,GADGET,LF,lure,-,-,-,liberal,no,m,1,0.893509020707,1,5
2019_Oct_23,209,001,0,recog,3,ZIGZAG,LF,target,left,aqua,pleasantness,liberal,no,z,1,0.746752970609,3,8
2019_Oct_23,209,001,0,recog,4,HISTORY,HF,lure,-,-,-,liberal,no,m,1,0.893323518068,1,9
2019_Oct_23,209,001,0,recog,5,RAFTERS,LF,lure,-,-,-,conservative,yes,m,1,1.0133382263,3,12
2019_Oct_23,209,001,0,recog,6,DINER,LF,target,right,yellow,imageability,conservative,no,z,1,1.39984177285,1,13
2019_Oct_23,209,001,0,recog,7,THANK,HF,lure,-,-,-,conservative,no,m,1,0.933404919266,3,16
2019_Oct_23,209,001,0,recog,8,BUMBLING,LF,lure,-,-,-,conservative,no,m,1,1.6132731904,3,19
2019_Oct_23,209,001,0,recog,9,ALONE,HF,lure,-,-,-,liberal,no,m,1,1.77314823641,1,20
2019_Oct_23,209,001,0,recog,10,MAJOR,HF,lure,-,-,-,conservative,no,m,1,0.906404386954,3,23
2019_Oct_23,209,001,0,recog,11,RIGGING,LF,target,right,yellow,imageability,liberal,no,m,0,1.75962890674,-3,20
2019_Oct_23,209,001,0,recog,12,BRING,HF,target,right,yellow,imageability,conservative,no,z,1,1.22654638079,1,21
2019_Oct_23,209,001,0,recog,13,SOMEONE,HF,target,right,yellow,imageability,conservative,no,z,1,1.37322141096,1,22
2019_Oct_23,209,001,0,recog,14,RUPTURE,LF,lure,-,-,-,liberal,no,m,1,1.000171205,1,23
2019_Oct_23,209,001,0,recog,15,WRONG,HF,lure,-,-,-,conservative,no,m,1,1.50649295897,3,26
2019_Oct_23,209,001,0,recog,16,CASES,HF,lure,-,-,-,liberal,no,m,1,1.39979484728,1,27
2019_Oct_23,209,001,0,recog,17,SLOWLY,HF,lure,-,-,-,liberal,no,m,1,0.906966760567,1,28
2019_Oct_23,209,001,0,recog,18,HARDLY,HF,lure,-,-,-,liberal,no,m,1,0.87977485992,1,29
2019_Oct_23,209,001,0,recog,19,MOVED,HF,lure,-,-,-,liberal,no,z,0,0.69338466795,-1,28
2019_Oct_23,209,001,0,recog,20,AXLES,LF,lure,-,-,-,conservative,no,m,1,0.773382131037,3,31
2019_Oct_23,209,001,0,recog,21,FAMILY,HF,target,left,aqua,pleasantness,conservative,no,z,1,0.653477771212,1,32
2019_Oct_23,209,001,0,recog,22,LIVED,HF,target,left,aqua,pleasantness,liberal,no,z,1,1.0799186428,3,35
2019_Oct_23,209,001,0,recog,23,ADENOIDS,LF,target,left,aqua,pleasantness,liberal,no,z,1,1.17323490206,3,38
2019_Oct_23,209,001,0,recog,24,HAIRDO,LF,target,right,yellow,imageability,liberal,no,z,1,0.626871706962,3,41
2019_Oct_23,209,001,0,recog,25,NEGATION,LF,lure,-,-,-,liberal,no,m,1,1.26639608699,1,42
2019_Oct_23,209,001,0,recog,26,NEARLY,HF,target,right,yellow,imageability,conservative,no,z,1,0.800138503749,1,43
2019_Oct_23,209,001,0,recog,27,ALREADY,HF,lure,-,-,-,liberal,no,m,1,0.786533388276,1,44
2019_Oct_23,209,001,0,recog,28,UNMADE,LF,lure,-,-,-,liberal,no,m,1,0.69569941827,1,45
2019_Oct_23,209,001,0,recog,29,FAILINGS,LF,lure,-,-,-,liberal,no,m,1,1.06637878319,1,46
2019_Oct_23,209,001,0,recog,30,GEARING,LF,target,right,yellow,imageability,liberal,yes,z,1,0.933263042742,3,49
2019_Oct_23,209,001,0,recog,31,EVENING,HF,target,right,yellow,imageability,liberal,no,z,1,1.46647608042,3,52
2019_Oct_23,209,001,0,recog,32,ANSWER,HF,target,right,yellow,imageability,liberal,no,z,1,0.560191207028,3,55
2019_Oct_23,209,001,0,recog,33,LOCAL,HF,lure,-,-,-,liberal,yes,z,0,0.706567819911,-1,54
2019_Oct_23,209,001,0,recog,34,MELODIC,LF,lure,-,-,-,conservative,no,m,1,3.59893522952,3,57
2019_Oct_23,209,001,0,recog,35,CLOSE,HF,target,left,aqua,pleasantness,conservative,no,z,1,0.826681511766,1,58
2019_Oct_23,209,001,0,recog,36,TOMBSTONE,LF,target,left,aqua,pleasantness,liberal,no,z,1,0.680090800975,3,61
2019_Oct_23,209,001,0,recog,37,ITSELF,HF,lure,-,-,-,conservative,no,m,1,0.826731736789,3,64
2019_Oct_23,209,001,0,recog,38,TATTERS,LF,target,left,aqua,pleasantness,conservative,no,z,1,0.626671173476,1,65
2019_Oct_23,209,001,0,recog,39,AFIELD,LF,target,left,aqua,pleasantness,liberal,no,z,1,0.786518357429,3,68
2019_Oct_23,209,001,0,recog,40,SENSE,HF,target,right,yellow,imageability,liberal,no,z,1,0.680089701157,3,71
2019_Oct_23,209,001,0,recog,41,YOGHURT,LF,lure,-,-,-,conservative,no,m,1,1.00006488926,3,74
2019_Oct_23,209,001,0,recog,42,APTLY,LF,target,left,aqua,pleasantness,liberal,no,m,0,0.946741679144,-3,71
2019_Oct_23,209,001,0,recog,43,SWAGGER,LF,lure,-,-,-,conservative,no,m,1,0.853370062367,3,74
2019_Oct_23,209,001,0,recog,44,DAUGHTER,HF,target,right,yellow,imageability,conservative,no,z,1,2.10621345855,1,75
2019_Oct_23,209,001,0,recog,45,ARRIVED,HF,target,right,yellow,imageability,liberal,no,z,1,0.680101065944,3,78
2019_Oct_23,209,001,0,recog,46,DUELLING,LF,lure,-,-,-,conservative,yes,m,1,0.813382878913,3,81
2019_Oct_23,209,001,0,recog,47,RUINOUS,LF,target,right,yellow,imageability,conservative,no,z,1,1.17320997286,1,82
2019_Oct_23,209,001,0,recog,48,ROPED,LF,target,left,aqua,pleasantness,liberal,no,z,1,0.799943102748,3,85
2019_Oct_23,209,001,0,recog,49,DAFFODILS,LF,lure,-,-,-,liberal,no,m,1,1.01330303212,1,86
2019_Oct_23,209,001,0,recog,50,TIPSY,LF,target,left,aqua,pleasantness,conservative,no,z,1,0.680093367218,1,87
2019_Oct_23,209,001,0,recog,51,YOUNG,HF,target,left,aqua,pleasantness,liberal,no,z,1,1.45286693229,3,90
2019_Oct_23,209,001,0,recog,52,CONCERNED,HF,lure,-,-,-,conservative,no,m,1,0.653441110611,3,93
2019_Oct_23,209,001,0,recog,53,ALMOST,HF,lure,-,-,-,conservative,no,m,1,0.893331216795,3,96
2019_Oct_23,209,001,0,recog,54,DEVELOPED,HF,lure,-,-,-,liberal,no,m,1,1.14654378522,1,97
2019_Oct_23,209,001,0,recog,55,FRIEND,HF,target,left,aqua,pleasantness,liberal,no,z,1,0.813140552343,3,100
2019_Oct_23,209,001,0,recog,56,PASSED,HF,target,left,aqua,pleasantness,liberal,no,z,1,0.733391281522,3,103
2019_Oct_23,209,001,0,recog,57,MOLARS,LF,lure,-,-,-,liberal,no,m,1,0.720057454493,1,104
2019_Oct_23,209,001,0,recog,58,FIANCE,LF,target,right,yellow,imageability,liberal,no,z,1,0.866706822245,3,107
2019_Oct_23,209,001,0,recog,59,SAGES,LF,lure,-,-,-,liberal,no,m,1,0.640085287221,1,108
2019_Oct_23,209,001,0,recog,60,WHATEVER,HF,lure,-,-,-,conservative,no,m,1,0.853383626789,3,111
2019_Oct_23,209,001,0,recog,61,TEXTURES,LF,lure,-,-,-,liberal,no,m,1,0.933355427455,1,112
2019_Oct_23,209,001,0,recog,62,BAYING,LF,target,right,yellow,imageability,liberal,no,z,1,0.666737910434,3,115
2019_Oct_23,209,001,0,recog,63,ALLOWED,HF,lure,-,-,-,conservative,no,m,1,1.01333016097,3,118
2019_Oct_23,209,001,0,recog,64,HOODLUMS,LF,lure,-,-,-,conservative,no,m,1,0.76009302994,3,121
2019_Oct_23,209,001,0,recog,65,LIKELY,HF,target,right,yellow,imageability,liberal,no,z,1,0.706620977782,3,124
2019_Oct_23,209,001,0,recog,66,INVOLVED,HF,lure,-,-,-,liberal,no,m,1,1.18647487796,1,125
2019_Oct_23,209,001,0,recog,67,METABOLIC,LF,target,left,aqua,pleasantness,conservative,no,z,1,0.786711192188,1,126
2019_Oct_23,209,001,0,recog,68,WASHBASIN,LF,target,right,yellow,imageability,conservative,no,z,1,0.70657625185,1,127
2019_Oct_23,209,001,0,recog,69,WOMAN,HF,target,right,yellow,imageability,liberal,no,z,1,0.840061164546,3,130
2019_Oct_23,209,001,0,recog,70,KINDEST,LF,lure,-,-,-,conservative,no,m,1,0.586521216956,3,133
2019_Oct_23,209,001,0,recog,71,POUNDS,HF,lure,-,-,-,conservative,no,m,1,0.720105113274,3,136
2019_Oct_23,209,001,0,recog,72,PILGRIM,LF,lure,-,-,-,conservative,no,m,1,0.733418410367,3,139
2019_Oct_23,209,001,0,recog,73,TAKEN,HF,target,left,aqua,pleasantness,conservative,no,z,1,0.520135468251,1,140
2019_Oct_23,209,001,0,recog,74,SOCIAL,HF,lure,-,-,-,conservative,no,m,1,1.25322503303,3,143
2019_Oct_23,209,001,0,recog,75,ENGULF,LF,target,right,yellow,imageability,conservative,no,z,1,0.613496453453,1,144
2019_Oct_23,209,001,0,recog,76,MYOPIC,LF,target,left,aqua,pleasantness,conservative,no,z,1,0.600147962184,1,145
2019_Oct_23,209,001,0,recog,77,TRYING,HF,target,left,aqua,pleasantness,liberal,no,z,1,0.706632709175,3,148
2019_Oct_23,209,001,0,recog,78,TABLE,HF,target,left,aqua,pleasantness,conservative,no,z,1,0.640093352553,1,149
2019_Oct_23,209,001,0,recog,79,ACROSS,HF,lure,-,-,-,conservative,no,m,1,0.693532043564,3,152
2019_Oct_23,209,001,0,recog,80,ALABASTER,LF,lure,-,-,-,liberal,no,m,1,1.13314543554,1,153
2019_Oct_23,209,001,0,recog,81,SHIELDING,LF,target,right,yellow,imageability,conservative,no,m,0,0.89342250169,-1,152
2019_Oct_23,209,001,0,recog,82,MAYBE,HF,lure,-,-,-,conservative,no,m,1,0.933368625271,3,155
2019_Oct_23,209,001,0,recog,83,ZOOLOGY,LF,lure,-,-,-,conservative,no,m,1,0.70688090144,3,158
2019_Oct_23,209,001,0,recog,84,ENROLMENT,LF,target,left,aqua,pleasantness,conservative,no,z,1,0.680089334551,1,159
2019_Oct_23,209,001,0,recog,85,HOWEVER,HF,lure,-,-,-,liberal,no,m,1,0.786490495373,1,160
2019_Oct_23,209,001,0,recog,86,ABLAZE,LF,lure,-,-,-,conservative,no,m,1,1.81317794616,3,163
2019_Oct_23,209,001,0,recog,87,ASHEN,LF,lure,-,-,-,liberal,no,m,1,0.786818241142,1,164
2019_Oct_23,209,001,0,recog,88,UNLESS,HF,target,left,aqua,pleasantness,liberal,no,z,1,0.840014972189,3,167
2019_Oct_23,209,001,0,recog,89,FITFUL,LF,target,right,yellow,imageability,conservative,no,m,0,0.800061883094,-1,166
2019_Oct_23,209,001,0,recog,90,BETTER,HF,target,left,aqua,pleasantness,conservative,no,z,1,0.666762839642,1,167
2019_Oct_23,209,001,0,recog,91,BUBBLED,LF,target,left,aqua,pleasantness,conservative,no,z,1,0.826558332148,1,168
2019_Oct_23,209,001,0,recog,92,CHAIR,HF,target,right,yellow,imageability,conservative,no,z,1,1.73301111109,1,169
2019_Oct_23,209,001,0,recog,93,OBESE,LF,lure,-,-,-,liberal,no,m,1,0.666857423991,1,170
2019_Oct_23,209,001,0,recog,94,IDEAS,HF,lure,-,-,-,liberal,no,m,1,0.693505281326,1,171
2019_Oct_23,209,001,0,recog,95,MATERIAL,HF,target,right,yellow,imageability,conservative,no,z,1,0.706790716363,1,172
2019_Oct_23,209,001,1,source,0,STUDENT,HF,target,left,aqua,pleasantness,conservative,no,2,1,1.82628777692,-,-
2019_Oct_23,209,001,1,source,1,JEALOUSLY,LF,target,left,aqua,pleasantness,conservative,no,8,0,2.26617135751,-,-
2019_Oct_23,209,001,1,source,2,CUBED,LF,target,right,yellow,imageability,conservative,no,1,0,1.37289953089,-,-
2019_Oct_23,209,001,1,source,3,PLACE,HF,target,left,aqua,pleasantness,liberal,no,7,0,1.3331543074,-,-
2019_Oct_23,209,001,1,source,4,AFTERNOON,HF,target,right,yellow,imageability,liberal,no,9,1,1.21289360654,-,-
2019_Oct_23,209,001,1,source,5,SEVEN,HF,target,left,aqua,pleasantness,liberal,no,3,1,1.39956058604,-,-
2019_Oct_23,209,001,1,source,6,PRACTICE,HF,target,left,aqua,pleasantness,conservative,no,1,1,1.1067292732,-,-
2019_Oct_23,209,001,1,source,7,LAUNCHER,LF,target,left,aqua,pleasantness,conservative,no,8,0,1.07995127073,-,-
2019_Oct_23,209,001,1,source,8,SEINE,LF,target,right,yellow,imageability,liberal,no,8,1,1.78636145006,-,-
2019_Oct_23,209,001,1,source,9,BONANZA,LF,target,right,yellow,imageability,conservative,no,9,1,0.959814116091,-,-
2019_Oct_23,209,001,1,source,10,RIMMED,LF,target,left,aqua,pleasantness,conservative,yes,2,1,1.51976116352,-,-
2019_Oct_23,209,001,1,source,11,TOTAL,HF,target,left,aqua,pleasantness,conservative,no,7,0,2.75929566188,-,-
2019_Oct_23,209,001,1,source,12,MEETING,HF,target,right,yellow,imageability,conservative,no,2,0,1.05330561303,-,-
2019_Oct_23,209,001,1,source,13,MORNING,HF,target,right,yellow,imageability,conservative,no,1,0,0.893080458287,-,-
2019_Oct_23,209,001,1,source,14,UNDER,HF,target,right,yellow,imageability,liberal,no,8,1,1.05335327181,-,-
2019_Oct_23,209,001,1,source,15,DECIDED,HF,target,left,aqua,pleasantness,conservative,no,7,0,0.893361645093,-,-
2019_Oct_23,209,001,1,source,16,MODERN,HF,target,right,yellow,imageability,liberal,no,7,1,0.87979319022,-,-
2019_Oct_23,209,001,1,source,17,GLUTINOUS,LF,target,left,aqua,pleasantness,liberal,yes,2,1,0.546868011573,-,-
2019_Oct_23,209,001,1,source,18,ARMAMENT,LF,target,right,yellow,imageability,liberal,no,9,1,2.30613067891,-,-
2019_Oct_23,209,001,1,source,19,CERTAIN,HF,target,left,aqua,pleasantness,conservative,yes,2,1,0.653571255743,-,-
2019_Oct_23,209,001,1,source,20,GANGWAY,LF,target,left,aqua,pleasantness,conservative,no,8,0,0.0270159297643,-,-
2019_Oct_23,209,001,1,source,21,MARKET,HF,target,right,yellow,imageability,liberal,yes,3,0,1.38650794582,-,-
2019_Oct_23,209,001,1,source,22,PIECE,HF,target,right,yellow,imageability,conservative,no,1,0,1.2664697748,-,-
2019_Oct_23,209,001,1,source,23,NORTH,HF,target,right,yellow,imageability,conservative,no,8,1,1.11971519113,-,-
2019_Oct_23,209,001,1,source,24,HATCHES,LF,target,left,aqua,pleasantness,conservative,no,1,1,2.03957548491,-,-
2019_Oct_23,209,001,1,source,25,BOWER,LF,target,right,yellow,imageability,conservative,no,7,1,2.30617797109,-,-
2019_Oct_23,209,001,1,source,26,SAYING,HF,target,left,aqua,pleasantness,liberal,no,2,1,2.07951757583,-,-
2019_Oct_23,209,001,1,source,27,PRIVATE,HF,target,right,yellow,imageability,conservative,no,8,1,2.83941080549,-,-
2019_Oct_23,209,001,1,source,28,BEECHES,LF,target,left,aqua,pleasantness,liberal,no,1,1,1.2671347981,-,-
2019_Oct_23,209,001,1,source,29,SUPPORT,HF,target,right,yellow,imageability,liberal,no,9,1,0.920018667578,-,-
2019_Oct_23,209,001,1,source,30,UNOPENED,LF,target,right,yellow,imageability,liberal,no,8,1,1.37319978121,-,-
2019_Oct_23,209,001,1,source,31,SHORT,HF,target,right,yellow,imageability,conservative,no,2,0,2.3325439084,-,-
2019_Oct_23,209,001,1,source,32,ENCLOSE,LF,target,right,yellow,imageability,liberal,no,9,1,1.0132957,-,-
2019_Oct_23,209,001,1,source,33,BUCKED,LF,target,left,aqua,pleasantness,liberal,no,2,1,2.41246181798,-,-
2019_Oct_23,209,001,1,source,34,LEMURS,LF,target,left,aqua,pleasantness,conservative,no,3,1,1.27987618982,-,-
2019_Oct_23,209,001,1,source,35,HYACINTHS,LF,target,right,yellow,imageability,liberal,no,1,0,2.95899585149,-,-
2019_Oct_23,209,001,1,source,36,EMPATHY,LF,target,right,yellow,imageability,conservative,no,9,1,0.800067015578,-,-
2019_Oct_23,209,001,1,source,37,GRACES,LF,target,left,aqua,pleasantness,liberal,no,2,1,0.893374842909,-,-
2019_Oct_23,209,001,1,source,38,FELLS,LF,target,right,yellow,imageability,conservative,no,8,1,1.31997262186,-,-
2019_Oct_23,209,001,1,source,39,SAINTLY,LF,target,right,yellow,imageability,conservative,no,7,1,1.63967578831,-,-
2019_Oct_23,209,001,1,source,40,COUNCIL,HF,target,left,aqua,pleasantness,conservative,no,8,0,1.41313087394,-,-
2019_Oct_23,209,001,1,source,41,TOGETHER,HF,target,left,aqua,pleasantness,liberal,no,1,1,0.960087604171,-,-
2019_Oct_23,209,001,1,source,42,VARIOUS,HF,target,left,aqua,pleasantness,liberal,no,8,0,0.786707526128,-,-
2019_Oct_23,209,001,1,source,43,DANDELION,LF,target,left,aqua,pleasantness,liberal,no,1,1,2.66600176557,-,-
2019_Oct_23,209,001,1,source,44,AVOCADO,LF,target,right,yellow,imageability,liberal,no,9,1,0.733462036482,-,-
2019_Oct_23,209,001,1,source,45,LABOUR,HF,target,left,aqua,pleasantness,liberal,no,9,0,1.21296839416,-,-
2019_Oct_23,209,001,1,source,46,VISCOUS,LF,target,left,aqua,pleasantness,liberal,no,2,1,1.03997288582,-,-
2019_Oct_23,209,001,1,source,47,EDUCATION,HF,target,right,yellow,imageability,liberal,no,1,0,2.0395872163,-,-
2019_Oct_23,209,001,1,recog,0,GRACES,LF,target,left,aqua,pleasantness,liberal,no,z,1,1.34682394553,3,175
2019_Oct_23,209,001,1,recog,1,MEETING,HF,target,right,yellow,imageability,conservative,no,z,1,0.920003270126,1,176
2019_Oct_23,209,001,1,recog,2,PELTED,LF,lure,-,-,-,liberal,no,m,1,0.786686629586,1,177
2019_Oct_23,209,001,1,recog,3,CARRIED,HF,lure,-,-,-,liberal,no,m,1,0.960031880058,1,178
2019_Oct_23,209,001,1,recog,4,INNATELY,LF,lure,-,-,-,liberal,no,m,1,0.666648458568,1,179
2019_Oct_23,209,001,1,recog,5,ARMAMENT,LF,target,right,yellow,imageability,liberal,no,z,1,0.74670421201,3,182
2019_Oct_23,209,001,1,recog,6,AFTERNOON,HF,target,right,yellow,imageability,liberal,no,z,1,0.6001428297,3,185
2019_Oct_23,209,001,1,recog,7,TWENTY,HF,lure,-,-,-,conservative,no,m,1,1.08007188411,3,188
2019_Oct_23,209,001,1,recog,8,SHORT,HF,target,right,yellow,imageability,conservative,no,z,1,0.639922147549,1,189
2019_Oct_23,209,001,1,recog,9,PLACE,HF,target,left,aqua,pleasantness,liberal,no,z,1,0.573524667452,3,192
2019_Oct_23,209,001,1,recog,10,VARIOUS,HF,target,left,aqua,pleasantness,liberal,no,z,1,0.653406649646,3,195
2019_Oct_23,209,001,1,recog,11,OMITTING,LF,lure,-,-,-,liberal,no,m,1,0.946706118361,1,196
2019_Oct_23,209,001,1,recog,12,HYACINTHS,LF,target,right,yellow,imageability,liberal,no,z,1,0.573490573093,3,199
2019_Oct_23,209,001,1,recog,13,SABLE,LF,lure,-,-,-,liberal,no,m,1,0.693405564493,1,200
2019_Oct_23,209,001,1,recog,14,MORNING,HF,target,right,yellow,imageability,conservative,no,z,1,0.560253163443,1,201
2019_Oct_23,209,001,1,recog,15,ULCER,LF,lure,-,-,-,conservative,no,m,1,0.706728393342,3,204
2019_Oct_23,209,001,1,recog,16,SYNDICATE,LF,lure,-,-,-,liberal,no,m,1,0.680136626726,1,205
2019_Oct_23,209,001,1,recog,17,UNOPENED,LF,target,right,yellow,imageability,liberal,no,z,1,1.59947633998,3,208
2019_Oct_23,209,001,1,recog,18,BUCKED,LF,target,left,aqua,pleasantness,liberal,no,z,1,0.720128576058,3,211
2019_Oct_23,209,001,1,recog,19,GIRLS,HF,lure,-,-,-,conservative,no,m,1,0.546629351063,3,214
2019_Oct_23,209,001,1,recog,20,BUILDING,HF,lure,-,-,-,conservative,no,m,1,1.0266581223,3,217
2019_Oct_23,209,001,1,recog,21,BEECHES,LF,target,left,aqua,pleasantness,liberal,no,z,1,0.533559480358,3,220
2019_Oct_23,209,001,1,recog,22,ETHER,LF,lure,-,-,-,liberal,no,m,1,0.600161893212,1,221
2019_Oct_23,209,001,1,recog,23,LABOUR,HF,target,left,aqua,pleasantness,liberal,no,z,1,1.27962799755,3,224
2019_Oct_23,209,001,1,recog,24,TOGETHER,HF,target,left,aqua,pleasantness,liberal,no,z,1,0.586598937429,3,227
2019_Oct_23,209,001,1,recog,25,SITTING,HF,lure,-,-,-,liberal,no,m,1,0.733403379521,1,228
2019_Oct_23,209,001,1,recog,26,EXPECT,HF,lure,-,-,-,liberal,no,m,1,0.60012083334,1,229
2019_Oct_23,209,001,1,recog,27,VAINLY,LF,lure,-,-,-,conservative,no,m,1,0.760086797638,3,232
2019_Oct_23,209,001,1,recog,28,HATCHES,LF,target,left,aqua,pleasantness,conservative,no,z,1,0.546677743056,1,233
2019_Oct_23,209,001,1,recog,29,WAITING,HF,lure,-,-,-,conservative,no,m,1,0.64014871006,3,236
2019_Oct_23,209,001,1,recog,30,BINDINGS,LF,lure,-,-,-,liberal,no,z,0,0.760053436491,-1,235
2019_Oct_23,209,001,1,recog,31,NEEDED,HF,lure,-,-,-,liberal,no,m,1,0.786656567893,1,236
2019_Oct_23,209,001,1,recog,32,LATER,HF,lure,-,-,-,liberal,no,m,1,0.973287253402,1,237
2019_Oct_23,209,001,1,recog,33,PICTURE,HF,lure,-,-,-,conservative,no,m,1,0.786491961797,3,240
2019_Oct_23,209,001,1,recog,34,JEALOUSLY,LF,target,left,aqua,pleasantness,conservative,no,m,0,0.933351394789,-1,239
2019_Oct_23,209,001,1,recog,35,MOMENT,HF,lure,-,-,-,conservative,no,m,1,1.41312500825,3,242
2019_Oct_23,209,001,1,recog,36,SAINTLY,LF,target,right,yellow,imageability,conservative,no,z,1,0.840243367731,1,243
2019_Oct_23,209,001,1,recog,37,SEINE,LF,target,right,yellow,imageability,liberal,no,m,0,0.799690877816,-3,240
2019_Oct_23,209,001,1,recog,38,EMPATHY,LF,target,right,yellow,imageability,conservative,no,z,1,0.64012854673,1,241
2019_Oct_23,209,001,1,recog,39,PAWNS,LF,lure,-,-,-,conservative,no,m,1,1.29333173004,3,244
2019_Oct_23,209,001,1,recog,40,TULIPS,LF,lure,-,-,-,liberal,no,m,1,1.06657968328,1,245
2019_Oct_23,209,001,1,recog,41,BOWER,LF,target,right,yellow,imageability,conservative,no,z,1,0.693460188787,1,246
2019_Oct_23,209,001,1,recog,42,SUBJECT,HF,lure,-,-,-,conservative,no,m,1,1.30648738655,3,249
2019_Oct_23,209,001,1,recog,43,COMES,HF,lure,-,-,-,conservative,no,m,1,0.760196046228,3,252
2019_Oct_23,209,001,1,recog,44,EIDERDOWN,LF,lure,-,-,-,liberal,no,m,1,1.25324006388,1,253
2019_Oct_23,209,001,1,recog,45,DECIDED,HF,target,left,aqua,pleasantness,conservative,no,z,1,0.813392777275,1,254
2019_Oct_23,209,001,1,recog,46,MODERN,HF,target,right,yellow,imageability,liberal,no,z,1,0.626784821338,3,257
2019_Oct_23,209,001,1,recog,47,MARKET,HF,target,right,yellow,imageability,liberal,yes,m,0,0.933364959212,-3,254
2019_Oct_23,209,001,1,recog,48,IDOLATRY,LF,lure,-,-,-,conservative,no,m,1,2.45267373092,3,257
2019_Oct_23,209,001,1,recog,49,REVERE,LF,lure,-,-,-,liberal,no,m,1,0.693451756849,1,258
2019_Oct_23,209,001,1,recog,50,GETTING,HF,lure,-,-,-,liberal,no,z,0,0.666570371489,-1,257
2019_Oct_23,209,001,1,recog,51,TOTAL,HF,target,left,aqua,pleasantness,conservative,no,z,1,0.640087120251,1,258
2019_Oct_23,209,001,1,recog,52,CAFETERIA,LF,lure,-,-,-,conservative,no,m,1,0.653418381039,3,261
2019_Oct_23,209,001,1,recog,53,GLUTINOUS,LF,target,left,aqua,pleasantness,liberal,no,z,1,0.586832832061,3,264
2019_Oct_23,209,001,1,recog,54,ENCLOSE,LF,target,right,yellow,imageability,liberal,no,z,1,0.613527248358,3,267
2019_Oct_23,209,001,1,recog,55,NURTURING,LF,lure,-,-,-,conservative,no,m,1,0.653282736816,3,270
2019_Oct_23,209,001,1,recog,56,EDUCATION,HF,target,right,yellow,imageability,liberal,no,z,1,0.613327081479,3,273
2019_Oct_23,209,001,1,recog,57,GANGWAY,LF,target,left,aqua,pleasantness,conservative,no,z,1,0.613437429887,1,274
2019_Oct_23,209,001,1,recog,58,FUSELAGE,LF,lure,-,-,-,conservative,no,m,1,0.706699431468,3,277
2019_Oct_23,209,001,1,recog,59,ORDER,HF,lure,-,-,-,conservative,no,z,0,0.653423880129,-3,274
2019_Oct_23,209,001,1,recog,60,FELLS,LF,target,right,yellow,imageability,conservative,no,m,0,0.653424246735,-1,273
2019_Oct_23,209,001,1,recog,61,SUPPORT,HF,target,right,yellow,imageability,liberal,yes,z,1,1.14637587967,3,276
2019_Oct_23,209,001,1,recog,62,PATCHY,LF,lure,-,-,-,conservative,no,m,1,1.23967564167,3,279
2019_Oct_23,209,001,1,recog,63,GLASS,HF,lure,-,-,-,liberal,no,m,1,1.21325031418,1,280
2019_Oct_23,209,001,1,recog,64,VISCOUS,LF,target,left,aqua,pleasantness,liberal,no,z,1,0.880007288127,3,283
2019_Oct_23,209,001,1,recog,65,UNION,HF,lure,-,-,-,liberal,no,m,1,1.82633873515,1,284
2019_Oct_23,209,001,1,recog,66,EATERS,LF,lure,-,-,-,liberal,no,m,1,0.680074670311,1,285
2019_Oct_23,209,001,1,recog,67,CERTAIN,HF,target,left,aqua,pleasantness,conservative,no,z,1,0.96003994539,1,286
2019_Oct_23,209,001,1,recog,68,RIMMED,LF,target,left,aqua,pleasantness,conservative,no,z,1,0.826750800301,1,287
2019_Oct_23,209,001,1,recog,69,BODICE,LF,lure,-,-,-,liberal,no,m,1,0.680066604979,1,288
2019_Oct_23,209,001,1,recog,70,INACTION,LF,lure,-,-,-,conservative,no,m,1,1.02656757062,3,291
2019_Oct_23,209,001,1,recog,71,AVOCADO,LF,target,right,yellow,imageability,liberal,no,z,1,0.600211385023,3,294
2019_Oct_23,209,001,1,recog,72,SAYING,HF,target,left,aqua,pleasantness,liberal,no,z,1,1.54642808437,3,297
2019_Oct_23,209,001,1,recog,73,RAPACIOUS,LF,lure,-,-,-,conservative,no,m,1,1.093263468,3,300
2019_Oct_23,209,001,1,recog,74,FORCE,HF,lure,-,-,-,liberal,no,m,1,0.720233791982,1,301
2019_Oct_23,209,001,1,recog,75,LEMURS,LF,target,left,aqua,pleasantness,conservative,no,z,1,0.626790687034,1,302
2019_Oct_23,209,001,1,recog,76,COUNCIL,HF,target,left,aqua,pleasantness,conservative,no,z,1,0.680129294606,1,303
2019_Oct_23,209,001,1,recog,77,SPEAK,HF,lure,-,-,-,conservative,no,m,1,0.760513893634,3,306
2019_Oct_23,209,001,1,recog,78,POSITION,HF,lure,-,-,-,liberal,no,m,1,1.11997254854,1,307
2019_Oct_23,209,001,1,recog,79,NORTH,HF,target,right,yellow,imageability,conservative,no,m,0,1.0663670518,-1,306
2019_Oct_23,209,001,1,recog,80,BONANZA,LF,target,right,yellow,imageability,conservative,no,z,1,0.613494620424,1,307
2019_Oct_23,209,001,1,recog,81,UNDER,HF,target,right,yellow,imageability,liberal,no,m,0,0.880035150184,-3,304
2019_Oct_23,209,001,1,recog,82,VOICE,HF,lure,-,-,-,liberal,no,z,0,1.47977361346,-1,303
2019_Oct_23,209,001,1,recog,83,PRACTICE,HF,target,left,aqua,pleasantness,conservative,no,z,1,0.813329354436,1,304
2019_Oct_23,209,001,1,recog,84,SEVEN,HF,target,left,aqua,pleasantness,liberal,no,m,0,0.880101139265,-3,301
2019_Oct_23,209,001,1,recog,85,EASILY,HF,lure,-,-,-,liberal,no,m,1,0.706844607446,1,302
2019_Oct_23,209,001,1,recog,86,PRIVATE,HF,target,right,yellow,imageability,conservative,no,m,0,1.57307997437,-1,301
2019_Oct_23,209,001,1,recog,87,PIECE,HF,target,right,yellow,imageability,conservative,no,z,1,0.799949701656,1,302
2019_Oct_23,209,001,1,recog,88,LAUNCHER,LF,target,left,aqua,pleasantness,conservative,no,z,1,0.813117822771,1,303
2019_Oct_23,209,001,1,recog,89,DANDELION,LF,target,left,aqua,pleasantness,liberal,no,z,1,0.64016704036,3,306
2019_Oct_23,209,001,1,recog,90,EUPHEMISM,LF,lure,-,-,-,conservative,no,m,1,1.01331293049,3,309
2019_Oct_23,209,001,1,recog,91,LOITERING,LF,lure,-,-,-,conservative,yes,m,1,0.906748996599,3,312
2019_Oct_23,209,001,1,recog,92,CUBED,LF,target,right,yellow,imageability,conservative,yes,z,1,0.813343285464,1,313
2019_Oct_23,209,001,1,recog,93,HAPPEN,HF,lure,-,-,-,conservative,no,m,1,2.50606109709,3,316
2019_Oct_23,209,001,1,recog,94,STUDENT,HF,target,left,aqua,pleasantness,conservative,no,z,1,1.09329499612,1,317
2019_Oct_23,209,001,1,recog,95,HOTEL,HF,lure,-,-,-,conservative,no,m,1,0.653443676853,3,320
2019_Oct_23,209,001,2,source,0,AMALGAM,LF,target,right,yellow,imageability,liberal,no,8,1,1.89297414254,-,-
2019_Oct_23,209,001,2,source,1,DEXTERITY,LF,target,left,aqua,pleasantness,liberal,no,2,1,1.22655701237,-,-
2019_Oct_23,209,001,2,source,2,USUAL,HF,target,left,aqua,pleasantness,liberal,no,1,1,0.813138719313,-,-
2019_Oct_23,209,001,2,source,3,MICROCOSM,LF,target,left,aqua,pleasantness,conservative,no,8,0,1.639534645,-,-
2019_Oct_23,209,001,2,source,4,TOYED,LF,target,left,aqua,pleasantness,conservative,no,3,1,1.26674362949,-,-
2019_Oct_23,209,001,2,source,5,INORGANIC,LF,target,right,yellow,imageability,liberal,no,1,0,1.39979374746,-,-
2019_Oct_23,209,001,2,source,6,CRACKLE,LF,target,left,aqua,pleasantness,conservative,no,8,0,0.893108686949,-,-
2019_Oct_23,209,001,2,source,7,LOVELIEST,LF,target,right,yellow,imageability,conservative,no,9,1,0.946761109262,-,-
2019_Oct_23,209,001,2,source,8,REPORT,HF,target,right,yellow,imageability,liberal,no,9,1,0.799866848699,-,-
2019_Oct_23,209,001,2,source,9,LIGHT,HF,target,left,aqua,pleasantness,conservative,no,8,0,0.946691454121,-,-
2019_Oct_23,209,001,2,source,10,UNABATED,LF,target,left,aqua,pleasantness,liberal,no,2,1,0.826801758536,-,-
2019_Oct_23,209,001,2,source,11,NAPPY,LF,target,left,aqua,pleasantness,conservative,no,1,1,0.97309661828,-,-
2019_Oct_23,209,001,2,source,12,BEYOND,HF,target,right,yellow,imageability,liberal,no,2,0,1.03999561539,-,-
2019_Oct_23,209,001,2,source,13,HIMSELF,HF,target,left,aqua,pleasantness,conservative,no,8,0,1.15996156503,-,-
2019_Oct_23,209,001,2,source,14,BABBLED,LF,target,left,aqua,pleasantness,conservative,yes,8,0,0.786499660523,-,-
2019_Oct_23,209,001,2,source,15,FOUND,HF,target,right,yellow,imageability,liberal,no,8,1,2.7590221738,-,-
2019_Oct_23,209,001,2,source,16,TURNED,HF,target,right,yellow,imageability,conservative,yes,3,0,0.760051970067,-,-
2019_Oct_23,209,001,2,source,17,SOVIET,HF,target,right,yellow,imageability,liberal,no,9,1,0.999949774977,-,-
2019_Oct_23,209,001,2,source,18,ALIAS,LF,target,right,yellow,imageability,liberal,no,2,0,1.33321406418,-,-
2019_Oct_23,209,001,2,source,19,SLEEP,HF,target,left,aqua,pleasantness,liberal,no,1,1,1.08016426882,-,-
2019_Oct_23,209,001,2,source,20,NEITHER,HF,target,right,yellow,imageability,liberal,no,9,1,1.29317738891,-,-
2019_Oct_23,209,001,2,source,21,ELICIT,LF,target,right,yellow,imageability,conservative,no,8,1,1.05304935543,-,-
2019_Oct_23,209,001,2,source,22,LARGE,HF,target,right,yellow,imageability,conservative,no,2,0,1.25326902575,-,-
2019_Oct_23,209,001,2,source,23,MYRIADS,LF,target,left,aqua,pleasantness,liberal,yes,3,1,0.999958940127,-,-
2019_Oct_23,209,001,2,source,24,PENALIZED,LF,target,right,yellow,imageability,liberal,no,8,1,1.93276115912,-,-
2019_Oct_23,209,001,2,source,25,STOOD,HF,target,left,aqua,pleasantness,conservative,no,2,1,0.946493853484,-,-
2019_Oct_23,209,001,2,source,26,LINEAGE,LF,target,left,aqua,pleasantness,liberal,no,8,0,1.97301633156,-,-
2019_Oct_23,209,001,2,source,27,CRUCIALLY,LF,target,left,aqua,pleasantness,liberal,no,9,0,1.43984435375,-,-
2019_Oct_23,209,001,2,source,28,SCHOOL,HF,target,right,yellow,imageability,conservative,no,1,0,1.90627937431,-,-
2019_Oct_23,209,001,2,source,29,ABOVE,HF,target,left,aqua,pleasantness,conservative,no,8,0,2.62572972925,-,-
2019_Oct_23,209,001,2,source,30,SERIOUS,HF,target,right,yellow,imageability,liberal,no,8,1,1.03997948473,-,-
2019_Oct_23,209,001,2,source,31,HUDDLE,LF,target,right,yellow,imageability,conservative,no,9,1,1.4530876291,-,-
2019_Oct_23,209,001,2,source,32,QUOTAS,LF,target,left,aqua,pleasantness,conservative,no,1,1,1.10671680859,-,-
2019_Oct_23,209,001,2,source,33,CHROMIUM,LF,target,right,yellow,imageability,conservative,no,8,1,2.07929504598,-,-
2019_Oct_23,209,001,2,source,34,BEHIND,HF,target,left,aqua,pleasantness,liberal,no,3,1,1.27988278873,-,-
2019_Oct_23,209,001,2,source,35,NUMBER,HF,target,left,aqua,pleasantness,conservative,no,8,0,1.62637862188,-,-
2019_Oct_23,209,001,2,source,36,DEJECTED,LF,target,right,yellow,imageability,conservative,yes,2,0,1.42620074465,-,-
2019_Oct_23,209,001,2,source,37,UTTERANCE,LF,target,right,yellow,imageability,liberal,no,8,1,1.37327053617,-,-
2019_Oct_23,209,001,2,source,38,BIBLES,LF,target,right,yellow,imageability,conservative,no,9,1,1.85307787738,-,-
2019_Oct_23,209,001,2,source,39,DIFFERENT,HF,target,right,yellow,imageability,conservative,no,8,1,1.21296986059,-,-
2019_Oct_23,209,001,2,source,40,DOCTOR,HF,target,right,yellow,imageability,conservative,no,2,0,1.23986151092,-,-
2019_Oct_23,209,001,2,source,41,FUTURE,HF,target,left,aqua,pleasantness,liberal,no,3,1,1.70609673119,-,-
2019_Oct_23,209,001,2,source,42,FRACTIONS,LF,target,left,aqua,pleasantness,liberal,no,8,0,0.893326084311,-,-
2019_Oct_23,209,001,2,source,43,SHALL,HF,target,right,yellow,imageability,conservative,no,8,1,1.26628097271,-,-
2019_Oct_23,209,001,2,source,44,BUNGALOWS,LF,target,right,yellow,imageability,liberal,no,9,1,0.880036983214,-,-
2019_Oct_23,209,001,2,source,45,NUCLEAR,HF,target,left,aqua,pleasantness,liberal,no,1,1,0.906732499329,-,-
2019_Oct_23,209,001,2,source,46,RETURN,HF,target,left,aqua,pleasantness,conservative,no,8,0,0.74687578362,-,-
2019_Oct_23,209,001,2,source,47,FOLLOWED,HF,target,left,aqua,pleasantness,liberal,no,1,1,1.17332398732,-,-
2019_Oct_23,209,001,2,recog,0,BEYOND,HF,target,right,yellow,imageability,liberal,no,z,1,1.74648828107,3,323
2019_Oct_23,209,001,2,recog,1,TURNED,HF,target,right,yellow,imageability,conservative,no,z,1,0.906469642823,1,324
2019_Oct_23,209,001,2,recog,2,NUMBER,HF,target,left,aqua,pleasantness,conservative,no,z,1,0.880042115698,1,325
2019_Oct_23,209,001,2,recog,3,TOYED,LF,target,left,aqua,pleasantness,conservative,no,z,1,0.813436036784,1,326
2019_Oct_23,209,001,2,recog,4,IGNOBLE,LF,lure,-,-,-,conservative,no,m,1,0.90663424892,3,329
2019_Oct_23,209,001,2,recog,5,PIVOT,LF,lure,-,-,-,conservative,no,m,1,1.74636363503,3,332
2019_Oct_23,209,001,2,recog,6,ROUND,HF,lure,-,-,-,liberal,no,m,1,0.84021220622,1,333
2019_Oct_23,209,001,2,recog,7,SOVIET,HF,target,right,yellow,imageability,liberal,no,z,1,0.640061091225,3,336
2019_Oct_23,209,001,2,recog,8,GIPSY,LF,lure,-,-,-,liberal,no,m,1,0.720178067869,1,337
2019_Oct_23,209,001,2,recog,9,SPOKE,HF,lure,-,-,-,conservative,no,m,1,0.86641353744,3,340
2019_Oct_23,209,001,2,recog,10,BABBLED,LF,target,left,aqua,pleasantness,conservative,no,z,1,0.613521382662,1,341
2019_Oct_23,209,001,2,recog,11,FRACTIONS,LF,target,left,aqua,pleasantness,liberal,yes,m,0,1.02674390811,-3,338
2019_Oct_23,209,001,2,recog,12,REACHED,HF,lure,-,-,-,liberal,no,m,1,1.59952839803,1,339
2019_Oct_23,209,001,2,recog,13,SCYTHE,LF,lure,-,-,-,conservative,no,m,1,0.760387414563,3,342
2019_Oct_23,209,001,2,recog,14,UNABATED,LF,target,left,aqua,pleasantness,liberal,no,z,1,0.746472150408,3,345
2019_Oct_23,209,001,2,recog,15,FOUND,HF,target,right,yellow,imageability,liberal,no,z,1,0.613429731161,3,348
2019_Oct_23,209,001,2,recog,16,HUDDLE,LF,target,right,yellow,imageability,conservative,no,z,1,1.18654783255,1,349
2019_Oct_23,209,001,2,recog,17,DOING,HF,lure,-,-,-,conservative,no,m,1,0.720229026104,3,352
2019_Oct_23,209,001,2,recog,18,NUCLEAR,HF,target,left,aqua,pleasantness,liberal,no,z,1,0.986447309185,3,355
2019_Oct_23,209,001,2,recog,19,BECAME,HF,lure,-,-,-,conservative,no,m,1,0.89339683927,3,358
2019_Oct_23,209,001,2,recog,20,ALIAS,LF,target,right,yellow,imageability,liberal,no,z,1,0.786473998102,3,361
2019_Oct_23,209,001,2,recog,21,ANYONE,HF,lure,-,-,-,liberal,no,m,1,0.813379946065,1,362
2019_Oct_23,209,001,2,recog,22,PENALIZED,LF,target,right,yellow,imageability,liberal,no,z,1,1.34650976418,3,365
2019_Oct_23,209,001,2,recog,23,MICROCOSM,LF,target,left,aqua,pleasantness,conservative,no,z,1,0.786681497102,1,366
2019_Oct_23,209,001,2,recog,24,SMEARING,LF,lure,-,-,-,conservative,no,m,1,0.893399405512,3,369
2019_Oct_23,209,001,2,recog,25,DEXTERITY,LF,target,left,aqua,pleasantness,liberal,no,z,1,0.773408893275,3,372
2019_Oct_23,209,001,2,recog,26,SECOND,HF,lure,-,-,-,conservative,no,m,1,1.21300615458,3,375
2019_Oct_23,209,001,2,recog,27,ELICIT,LF,target,right,yellow,imageability,conservative,no,m,0,0.96012536459,-1,374
2019_Oct_23,209,001,2,recog,28,LOVELIEST,LF,target,right,yellow,imageability,conservative,no,z,1,0.960096402715,1,375
2019_Oct_23,209,001,2,recog,29,LINEAGE,LF,target,left,aqua,pleasantness,liberal,no,z,1,0.666533344283,3,378
2019_Oct_23,209,001,2,recog,30,NOTHING,HF,lure,-,-,-,liberal,no,z,0,0.679840042468,-1,377
2019_Oct_23,209,001,2,recog,31,INCLUDING,HF,lure,-,-,-,liberal,no,m,1,1.47988909435,1,378
2019_Oct_23,209,001,2,recog,32,NEITHER,HF,target,right,yellow,imageability,liberal,yes,z,1,0.986368488894,3,381
2019_Oct_23,209,001,2,recog,33,QUOTAS,LF,target,left,aqua,pleasantness,conservative,no,z,1,1.93302034957,1,382
2019_Oct_23,209,001,2,recog,34,LUGGED,LF,lure,-,-,-,liberal,no,m,1,0.893336349279,1,383
2019_Oct_23,209,001,2,recog,35,UNRAVEL,LF,lure,-,-,-,liberal,no,m,1,1.55989388956,1,384
2019_Oct_23,209,001,2,recog,36,USING,HF,lure,-,-,-,conservative,no,m,1,1.2796122335,3,387
2019_Oct_23,209,001,2,recog,37,DISARMED,LF,lure,-,-,-,liberal,no,m,1,0.786702027038,1,388
2019_Oct_23,209,001,2,recog,38,NAPPY,LF,target,left,aqua,pleasantness,conservative,no,z,1,0.586777474554,1,389
2019_Oct_23,209,001,2,recog,39,STRAIGHT,HF,lure,-,-,-,conservative,no,m,1,0.839998474919,3,392
2019_Oct_23,209,001,2,recog,40,USUAL,HF,target,left,aqua,pleasantness,liberal,no,m,0,0.999941709645,-3,389
2019_Oct_23,209,001,2,recog,41,BIBLES,LF,target,right,yellow,imageability,conservative,no,z,1,0.733146755317,1,390
2019_Oct_23,209,001,2,recog,42,UTTERANCE,LF,target,right,yellow,imageability,liberal,no,z,1,0.813351350796,3,393
2019_Oct_23,209,001,2,recog,43,MIMICKED,LF,lure,-,-,-,conservative,no,m,1,0.786479130586,3,396
2019_Oct_23,209,001,2,recog,44,SLEEP,HF,target,left,aqua,pleasantness,liberal,no,z,1,0.853469412595,3,399
2019_Oct_23,209,001,2,recog,45,BUNGALOWS,LF,target,right,yellow,imageability,liberal,no,z,1,0.786723290186,3,402
2019_Oct_23,209,001,2,recog,46,BEHIND,HF,target,left,aqua,pleasantness,liberal,no,z,1,0.826685911038,3,405
2019_Oct_23,209,001,2,recog,47,ENERGY,HF,lure,-,-,-,liberal,no,m,1,0.813402309032,1,406
2019_Oct_23,209,001,2,recog,48,HIMSELF,HF,target,left,aqua,pleasantness,conservative,no,z,1,1.00021813057,1,407
2019_Oct_23,209,001,2,recog,49,SHALL,HF,target,right,yellow,imageability,conservative,no,z,1,0.800068848608,1,408
2019_Oct_23,209,001,2,recog,50,EMOTIVE,LF,lure,-,-,-,liberal,no,m,1,1.43986635011,1,409
2019_Oct_23,209,001,2,recog,51,LARGE,HF,target,right,yellow,imageability,conservative,no,z,1,0.693504181508,1,410
2019_Oct_23,209,001,2,recog,52,QUESTION,HF,lure,-,-,-,conservative,no,m,1,0.680147991513,3,413
2019_Oct_23,209,001,2,recog,53,LIGHT,HF,target,left,aqua,pleasantness,conservative,no,m,0,0.73361821064,-1,412
2019_Oct_23,209,001,2,recog,54,SWIFTNESS,LF,lure,-,-,-,conservative,no,m,1,0.786770215755,3,415
2019_Oct_23,209,001,2,recog,55,AROUND,HF,lure,-,-,-,liberal,no,z,0,0.839984543891,-1,414
2019_Oct_23,209,001,2,recog,56,SEGMENTED,LF,lure,-,-,-,liberal,yes,m,1,0.733395314189,1,415
2019_Oct_23,209,001,2,recog,57,DAMASK,LF,lure,-,-,-,conservative,no,m,1,0.773378098371,3,418
2019_Oct_23,209,001,2,recog,58,AMALGAM,LF,target,right,yellow,imageability,liberal,no,z,1,0.894794707969,3,421
2019_Oct_23,209,001,2,recog,59,REOPEN,LF,lure,-,-,-,liberal,no,m,1,0.693434526367,1,422
2019_Oct_23,209,001,2,recog,60,ASCEND,LF,lure,-,-,-,conservative,no,z,0,0.813368581279,-3,419
2019_Oct_23,209,001,2,recog,61,WHITE,HF,lure,-,-,-,liberal,no,m,1,1.27987912267,1,420
2019_Oct_23,209,001,2,recog,62,AFRAID,HF,lure,-,-,-,liberal,no,m,1,0.68022351235,1,421
2019_Oct_23,209,001,2,recog,63,SORRY,HF,lure,-,-,-,conservative,no,m,1,0.800026688917,3,424
2019_Oct_23,209,001,2,recog,64,MYRIADS,LF,target,left,aqua,pleasantness,liberal,no,z,1,0.826450916588,3,427
2019_Oct_23,209,001,2,recog,65,PERHAPS,HF,lure,-,-,-,liberal,no,m,1,0.760120158785,1,428
2019_Oct_23,209,001,2,recog,66,PANACHE,LF,lure,-,-,-,conservative,no,m,1,0.986424579613,3,431
2019_Oct_23,209,001,2,recog,67,NAUGHT,LF,lure,-,-,-,liberal,no,m,1,0.759926590813,1,432
2019_Oct_23,209,001,2,recog,68,PORCHES,LF,lure,-,-,-,conservative,no,m,1,0.839769346165,3,435
2019_Oct_23,209,001,2,recog,69,DEJECTED,LF,target,right,yellow,imageability,conservative,no,m,0,1.05330084715,-1,434
2019_Oct_23,209,001,2,recog,70,PYJAMA,LF,lure,-,-,-,liberal,no,m,1,0.840026336975,1,435
2019_Oct_23,209,001,2,recog,71,WRITE,HF,lure,-,-,-,liberal,no,m,1,0.746756636669,1,436
2019_Oct_23,209,001,2,recog,72,VECTORS,LF,lure,-,-,-,liberal,no,m,1,0.813402309031,1,437
2019_Oct_23,209,001,2,recog,73,ABATED,LF,lure,-,-,-,conservative,no,z,0,0.706795848846,-3,434
2019_Oct_23,209,001,2,recog,74,CHIEF,HF,lure,-,-,-,conservative,no,m,1,1.21311943584,3,437
2019_Oct_23,209,001,2,recog,75,FOLLOWED,HF,target,left,aqua,pleasantness,liberal,yes,m,0,0.786756651333,-3,434
2019_Oct_23,209,001,2,recog,76,CRACKLE,LF,target,left,aqua,pleasantness,conservative,no,m,0,1.34650646473,-1,433
2019_Oct_23,209,001,2,recog,77,RETURN,HF,target,left,aqua,pleasantness,conservative,no,z,1,1.32006977246,1,434
2019_Oct_23,209,001,2,recog,78,SCHOOL,HF,target,right,yellow,imageability,conservative,no,z,1,0.560266361259,1,435
2019_Oct_23,209,001,2,recog,79,LETTER,HF,lure,-,-,-,conservative,no,m,1,0.78648243004,3,438
2019_Oct_23,209,001,2,recog,80,SERIOUS,HF,target,right,yellow,imageability,liberal,no,z,1,0.893443764838,3,441
2019_Oct_23,209,001,2,recog,81,CRUCIALLY,LF,target,left,aqua,pleasantness,liberal,no,m,0,0.985890434662,-3,438
2019_Oct_23,209,001,2,recog,82,DIFFERENT,HF,target,right,yellow,imageability,conservative,no,m,0,0.826685911038,-1,437
2019_Oct_23,209,001,2,recog,83,INORGANIC,LF,target,right,yellow,imageability,liberal,no,z,1,0.841499359906,3,440
2019_Oct_23,209,001,2,recog,84,ALDER,LF,lure,-,-,-,liberal,no,m,1,0.839969513045,1,441
2019_Oct_23,209,001,2,recog,85,CHROMIUM,LF,target,right,yellow,imageability,conservative,no,z,1,0.693568337559,1,442
2019_Oct_23,209,001,2,recog,86,VILLAGE,HF,lure,-,-,-,conservative,no,m,1,0.706759554852,3,445
2019_Oct_23,209,001,2,recog,87,REPORT,HF,target,right,yellow,imageability,liberal,no,z,1,0.90642858295,3,448
2019_Oct_23,209,001,2,recog,88,EXACTLY,HF,lure,-,-,-,conservative,no,m,1,0.679884035188,3,451
2019_Oct_23,209,001,2,recog,89,FUTURE,HF,target,left,aqua,pleasantness,liberal,no,m,0,1.50643283558,-3,448
2019_Oct_23,209,001,2,recog,90,RAIDER,LF,lure,-,-,-,conservative,no,m,1,0.813453267266,3,451
2019_Oct_23,209,001,2,recog,91,ABOVE,HF,target,left,aqua,pleasantness,conservative,no,z,1,0.640302317976,1,452
2019_Oct_23,209,001,2,recog,92,STOOD,HF,target,left,aqua,pleasantness,conservative,no,m,0,0.746793663875,-1,451
2019_Oct_23,209,001,2,recog,93,INTEREST,HF,lure,-,-,-,liberal,no,z,0,0.653441477217,-1,450
2019_Oct_23,209,001,2,recog,94,DOCTOR,HF,target,right,yellow,imageability,conservative,no,m,0,1.03989589856,-1,449
2019_Oct_23,209,001,2,recog,95,ROOFED,LF,lure,-,-,-,liberal,no,m,1,0.706544723733,1,450
2019_Oct_23,209,001,3,source,0,COFFINS,LF,target,right,yellow,imageability,conservative,no,2,0,1.51977949382,-,-
2019_Oct_23,209,001,3,source,1,CUPID,LF,target,left,aqua,pleasantness,conservative,no,1,1,0.773411092911,-,-
2019_Oct_23,209,001,3,source,2,DEGREE,HF,target,left,aqua,pleasantness,liberal,no,2,1,1.67947050361,-,-
2019_Oct_23,209,001,3,source,3,CLASS,HF,target,left,aqua,pleasantness,conservative,yes,8,0,0.693443324911,-,-
2019_Oct_23,209,001,3,source,4,DURING,HF,target,right,yellow,imageability,conservative,no,8,1,1.02691511311,-,-
2019_Oct_23,209,001,3,source,5,HINDERED,LF,target,right,yellow,imageability,conservative,no,8,1,1.5464728103,-,-
2019_Oct_23,209,001,3,source,6,DEPARTS,LF,target,left,aqua,pleasantness,conservative,no,1,1,0.879858079483,-,-
2019_Oct_23,209,001,3,source,7,TODAY,HF,target,left,aqua,pleasantness,conservative,no,1,1,1.1463289541,-,-
2019_Oct_23,209,001,3,source,8,VULTURE,LF,target,left,aqua,pleasantness,liberal,no,1,1,1.49289370919,-,-
2019_Oct_23,209,001,3,source,9,FIELD,HF,target,right,yellow,imageability,conservative,no,8,1,0.800347835778,-,-
2019_Oct_23,209,001,3,source,10,MUSIC,HF,target,right,yellow,imageability,conservative,no,7,1,0.986677171151,-,-
2019_Oct_23,209,001,3,source,11,TRUTH,HF,target,left,aqua,pleasantness,liberal,no,2,1,2.15930314064,-,-
2019_Oct_23,209,001,3,source,12,DOGMAS,LF,target,left,aqua,pleasantness,liberal,no,1,1,0.82654440112,-,-
2019_Oct_23,209,001,3,source,13,GOVERNS,LF,target,right,yellow,imageability,liberal,no,9,1,0.866762912964,-,-
2019_Oct_23,209,001,3,source,14,RESEARCH,HF,target,right,yellow,imageability,liberal,no,8,1,0.893056995502,-,-
2019_Oct_23,209,001,3,source,15,AVAILABLE,HF,target,right,yellow,imageability,liberal,no,1,0,1.82650957355,-,-
2019_Oct_23,209,001,3,source,16,CANNOT,HF,target,left,aqua,pleasantness,liberal,no,1,1,1.17323600188,-,-
2019_Oct_23,209,001,3,source,17,RANGE,HF,target,left,aqua,pleasantness,conservative,no,1,1,1.42639027995,-,-
2019_Oct_23,209,001,3,source,18,DEFEATING,LF,target,right,yellow,imageability,conservative,no,8,1,0.733492831386,-,-
2019_Oct_23,209,001,3,source,19,MEMBERS,HF,target,right,yellow,imageability,liberal,yes,7,1,0.720090449034,-,-
2019_Oct_23,209,001,3,source,20,APART,HF,target,right,yellow,imageability,conservative,no,8,1,0.786724390005,-,-
2019_Oct_23,209,001,3,source,21,TRADE,HF,target,right,yellow,imageability,conservative,no,2,0,0.906866310521,-,-
2019_Oct_23,209,001,3,source,22,CUDDLE,LF,target,left,aqua,pleasantness,conservative,no,1,1,0.920071825448,-,-
2019_Oct_23,209,001,3,source,23,SUING,LF,target,right,yellow,imageability,liberal,no,1,0,1.2798996526,-,-
2019_Oct_23,209,001,3,source,24,CORNER,HF,target,left,aqua,pleasantness,liberal,no,8,0,0.746540339125,-,-
2019_Oct_23,209,001,3,source,25,HIGHER,HF,target,right,yellow,imageability,liberal,no,2,0,1.02670761411,-,-
2019_Oct_23,209,001,3,source,26,TYCOONS,LF,target,right,yellow,imageability,conservative,no,7,1,1.37333029295,-,-
2019_Oct_23,209,001,3,source,27,AMULETS,LF,target,left,aqua,pleasantness,liberal,no,3,1,0.986406249313,-,-
2019_Oct_23,209,001,3,source,28,OMELETTE,LF,target,right,yellow,imageability,conservative,no,1,0,1.83963516837,-,-
2019_Oct_23,209,001,3,source,29,PONCE,LF,target,right,yellow,imageability,liberal,yes,8,1,0.680222412531,-,-
2019_Oct_23,209,001,3,source,30,THOUSAND,HF,target,left,aqua,pleasantness,conservative,no,1,1,1.14660170897,-,-
2019_Oct_23,209,001,3,source,31,HAMLETS,LF,target,left,aqua,pleasantness,liberal,no,8,0,0.82673247,-,-
2019_Oct_23,209,001,3,source,32,OTHERS,HF,target,right,yellow,imageability,conservative,no,7,1,0.866667595402,-,-
2019_Oct_23,209,001,3,source,33,ROWAN,LF,target,left,aqua,pleasantness,conservative,no,3,1,0.893487390953,-,-
2019_Oct_23,209,001,3,source,34,TENABLE,LF,target,left,aqua,pleasantness,conservative,no,3,1,0.920001070489,-,-
2019_Oct_23,209,001,3,source,35,MINISTER,HF,target,right,yellow,imageability,liberal,yes,3,0,1.1996510644,-,-
2019_Oct_23,209,001,3,source,36,AGONIZED,LF,target,left,aqua,pleasantness,liberal,no,2,1,1.41313857267,-,-
2019_Oct_23,209,001,3,source,37,OUGHT,HF,target,left,aqua,pleasantness,liberal,no,8,0,0.706759554852,-,-
2019_Oct_23,209,001,3,source,38,VEILING,LF,target,right,yellow,imageability,conservative,no,1,0,1.55977950848,-,-
2019_Oct_23,209,001,3,source,39,CAUGHT,HF,target,left,aqua,pleasantness,liberal,no,1,1,2.18626811217,-,-
2019_Oct_23,209,001,3,source,40,WETTER,LF,target,right,yellow,imageability,liberal,no,9,1,0.853386559637,-,-
2019_Oct_23,209,001,3,source,41,JOURNEYED,LF,target,left,aqua,pleasantness,liberal,no,2,1,0.960279705718,-,-
2019_Oct_23,209,001,3,source,42,IRATE,LF,target,right,yellow,imageability,liberal,no,2,0,0.707045874143,-,-
2019_Oct_23,209,001,3,source,43,FRONT,HF,target,right,yellow,imageability,liberal,no,3,0,1.079991964,-,-
2019_Oct_23,209,001,3,source,44,BASIC,HF,target,left,aqua,pleasantness,conservative,no,1,1,0.840186177194,-,-
2019_Oct_23,209,001,3,source,45,WIPERS,LF,target,right,yellow,imageability,liberal,no,9,1,1.81270942368,-,-
2019_Oct_23,209,001,3,source,46,FIGURE,HF,target,left,aqua,pleasantness,conservative,no,1,1,0.839808939614,-,-
2019_Oct_23,209,001,3,source,47,DESERTER,LF,target,left,aqua,pleasantness,conservative,no,1,1,1.89296167794,-,-
2019_Oct_23,209,001,3,recog,0,SINCE,HF,lure,-,-,-,conservative,no,m,1,1.18652070371,3,453
2019_Oct_23,209,001,3,recog,1,DEFEATING,LF,target,right,yellow,imageability,conservative,no,z,1,0.933304835827,1,454
2019_Oct_23,209,001,3,recog,2,PREPARED,HF,lure,-,-,-,liberal,no,m,1,0.733384316009,1,455
2019_Oct_23,209,001,3,recog,3,BIDDER,LF,lure,-,-,-,conservative,no,m,1,0.986397450769,3,458
2019_Oct_23,209,001,3,recog,4,TRADE,HF,target,right,yellow,imageability,conservative,no,z,1,0.640120848004,1,459
2019_Oct_23,209,001,3,recog,5,AGONIZED,LF,target,left,aqua,pleasantness,liberal,no,z,1,0.600140263458,3,462
2019_Oct_23,209,001,3,recog,6,LEECH,LF,lure,-,-,-,liberal,no,m,1,0.68009043437,1,463
2019_Oct_23,209,001,3,recog,7,PAYOFF,LF,lure,-,-,-,conservative,no,m,1,0.666666788869,3,466
2019_Oct_23,209,001,3,recog,8,DEPARTS,LF,target,left,aqua,pleasantness,conservative,no,z,1,1.41322839114,1,467
2019_Oct_23,209,001,3,recog,9,OFTEN,HF,lure,-,-,-,conservative,no,m,1,0.709834646027,3,470
2019_Oct_23,209,001,3,recog,10,PONCE,LF,target,right,yellow,imageability,liberal,no,m,0,0.960001085154,-3,467
2019_Oct_23,209,001,3,recog,11,HEALTH,HF,lure,-,-,-,conservative,no,m,1,0.893372276667,3,470
2019_Oct_23,209,001,3,recog,12,VULTURE,LF,target,left,aqua,pleasantness,liberal,no,z,1,0.613359709413,3,473
2019_Oct_23,209,001,3,recog,13,ICONS,LF,lure,-,-,-,liberal,no,m,1,0.666803899515,1,474
2019_Oct_23,209,001,3,recog,14,SIMILAR,HF,lure,-,-,-,conservative,no,m,1,0.70675332255,3,477
2019_Oct_23,209,001,3,recog,15,FIELD,HF,target,right,yellow,imageability,conservative,yes,m,0,0.893307387404,-1,476
2019_Oct_23,209,001,3,recog,16,MONEY,HF,lure,-,-,-,liberal,no,m,1,0.98677358853,1,477
2019_Oct_23,209,001,3,recog,17,OTHERS,HF,target,right,yellow,imageability,conservative,no,z,1,1.08006051932,1,478
2019_Oct_23,209,001,3,recog,18,GUSHED,LF,lure,-,-,-,liberal,no,m,1,0.666854491144,1,479
2019_Oct_23,209,001,3,recog,19,MEMBERS,HF,target,right,yellow,imageability,liberal,no,m,0,0.826452016406,-3,476
2019_Oct_23,209,001,3,recog,20,BASIC,HF,target,left,aqua,pleasantness,conservative,no,z,1,0.54680128928,1,477
2019_Oct_23,209,001,3,recog,21,AMULETS,LF,target,left,aqua,pleasantness,liberal,no,z,1,0.626659075479,3,480
2019_Oct_23,209,001,3,recog,22,APART,HF,target,right,yellow,imageability,conservative,no,z,1,0.599995454086,1,481
2019_Oct_23,209,001,3,recog,23,GARDEN,HF,lure,-,-,-,conservative,no,m,1,0.640087853463,3,484
2019_Oct_23,209,001,3,recog,24,FRONT,HF,target,right,yellow,imageability,liberal,no,z,1,0.613415800132,3,487
2019_Oct_23,209,001,3,recog,25,SUCCESS,HF,lure,-,-,-,liberal,no,m,1,0.719840057132,1,488
2019_Oct_23,209,001,3,recog,26,JOURNEYED,LF,target,left,aqua,pleasantness,liberal,no,m,0,0.799992961165,-3,485
2019_Oct_23,209,001,3,recog,27,RUNNING,HF,lure,-,-,-,liberal,no,m,1,0.666748542008,1,486
2019_Oct_23,209,001,3,recog,28,HAMLETS,LF,target,left,aqua,pleasantness,liberal,no,z,1,0.586843830241,3,489
2019_Oct_23,209,001,3,recog,29,APPEARED,HF,lure,-,-,-,liberal,no,m,1,0.840122387749,1,490
2019_Oct_23,209,001,3,recog,30,CELLO,LF,lure,-,-,-,conservative,no,m,1,0.813250167539,3,493
2019_Oct_23,209,001,3,recog,31,ATTACK,HF,lure,-,-,-,conservative,no,m,1,0.893321318432,3,496
2019_Oct_23,209,001,3,recog,32,UDDER,LF,lure,-,-,-,liberal,no,z,0,0.973435728835,-1,495
2019_Oct_23,209,001,3,recog,33,WRANGLING,LF,lure,-,-,-,liberal,no,m,1,0.666764672672,1,496
2019_Oct_23,209,001,3,recog,34,SUING,LF,target,right,yellow,imageability,liberal,no,z,1,0.573240547797,3,499
2019_Oct_23,209,001,3,recog,35,LEARN,HF,lure,-,-,-,liberal,no,m,1,0.733490265144,1,500
2019_Oct_23,209,001,3,recog,36,ARSENALS,LF,lure,-,-,-,conservative,no,m,1,0.720128209452,3,503
2019_Oct_23,209,001,3,recog,37,DOSSIERS,LF,lure,-,-,-,conservative,no,m,1,1.19995644721,3,506
2019_Oct_23,209,001,3,recog,38,TRUTH,HF,target,left,aqua,pleasantness,liberal,no,z,1,0.786532288457,3,509
2019_Oct_23,209,001,3,recog,39,TENABLE,LF,target,left,aqua,pleasantness,conservative,no,m,0,0.800117607207,-1,508
2019_Oct_23,209,001,3,recog,40,ENOUGH,HF,lure,-,-,-,conservative,no,m,1,0.626605551001,3,511
2019_Oct_23,209,001,3,recog,41,DEGREE,HF,target,left,aqua,pleasantness,liberal,no,z,1,1.02664529109,3,514
2019_Oct_23,209,001,3,recog,42,RANGE,HF,target,left,aqua,pleasantness,conservative,no,z,1,0.65322371325,1,515
2019_Oct_23,209,001,3,recog,43,CORNER,HF,target,left,aqua,pleasantness,liberal,no,z,1,0.973282120919,3,518
2019_Oct_23,209,001,3,recog,44,EXCEPT,HF,lure,-,-,-,liberal,no,m,1,0.840050532971,1,519
2019_Oct_23,209,001,3,recog,45,WALKED,HF,lure,-,-,-,liberal,no,m,1,0.693193299615,1,520
2019_Oct_23,209,001,3,recog,46,JOYFULLY,LF,lure,-,-,-,conservative,no,m,1,0.626804251457,3,523
2019_Oct_23,209,001,3,recog,47,LONGER,HF,lure,-,-,-,conservative,no,m,1,0.906812786045,3,526
2019_Oct_23,209,001,3,recog,48,ASSERTIVE,LF,lure,-,-,-,liberal,no,m,1,0.91998823928,1,527
2019_Oct_23,209,001,3,recog,49,PUBLIC,HF,lure,-,-,-,conservative,no,m,1,0.813418073089,3,530
2019_Oct_23,209,001,3,recog,50,ASKED,HF,lure,-,-,-,conservative,yes,z,0,0.946464525003,-3,527
2019_Oct_23,209,001,3,recog,51,RESEARCH,HF,target,right,yellow,imageability,liberal,no,m,0,1.57307044261,-3,524
2019_Oct_23,209,001,3,recog,52,WETTER,LF,target,right,yellow,imageability,liberal,no,z,1,1.02659799892,3,527
2019_Oct_23,209,001,3,recog,53,BLACK,HF,lure,-,-,-,liberal,no,m,1,0.720072485339,1,528
2019_Oct_23,209,001,3,recog,54,DIGESTING,LF,lure,-,-,-,liberal,no,m,1,0.826457148891,1,529
2019_Oct_23,209,001,3,recog,55,DURING,HF,target,right,yellow,imageability,conservative,no,z,1,0.733444805999,1,530
2019_Oct_23,209,001,3,recog,56,ROWAN,LF,target,left,aqua,pleasantness,conservative,no,z,1,1.69318780053,1,531
2019_Oct_23,209,001,3,recog,57,GOVERNS,LF,target,right,yellow,imageability,liberal,no,z,1,0.853339634069,3,534
2019_Oct_23,209,001,3,recog,58,THOUSAND,HF,target,left,aqua,pleasantness,conservative,no,z,1,0.653569056107,1,535
2019_Oct_23,209,001,3,recog,59,CLASS,HF,target,left,aqua,pleasantness,conservative,no,m,0,0.866681159824,-1,534
2019_Oct_23,209,001,3,recog,60,MOISTENED,LF,lure,-,-,-,conservative,no,m,1,0.800078380364,3,537
2019_Oct_23,209,001,3,recog,61,IRATE,LF,target,right,yellow,imageability,liberal,no,m,0,0.800085712484,-3,534
2019_Oct_23,209,001,3,recog,62,RAREFIED,LF,lure,-,-,-,conservative,no,m,1,2.10621162552,3,537
2019_Oct_23,209,001,3,recog,63,ARPEGGIO,LF,lure,-,-,-,liberal,no,m,1,0.893322784857,1,538
2019_Oct_23,209,001,3,recog,64,HEMMED,LF,lure,-,-,-,conservative,no,m,1,0.733169118284,3,541
2019_Oct_23,209,001,3,recog,65,CUDDLE,LF,target,left,aqua,pleasantness,conservative,no,z,1,0.573497538607,1,542
2019_Oct_23,209,001,3,recog,66,BOVINE,LF,lure,-,-,-,liberal,no,m,1,0.826689943704,1,543
2019_Oct_23,209,001,3,recog,67,ALTHOUGH,HF,lure,-,-,-,liberal,no,m,1,0.640098118431,1,544
2019_Oct_23,209,001,3,recog,68,VEILING,LF,target,right,yellow,imageability,conservative,no,z,1,0.533467095644,1,545
2019_Oct_23,209,001,3,recog,69,WIPERS,LF,target,right,yellow,imageability,liberal,no,z,1,0.613534580478,3,548
2019_Oct_23,209,001,3,recog,70,OMELETTE,LF,target,right,yellow,imageability,conservative,no,z,1,0.573448046796,1,549
2019_Oct_23,209,001,3,recog,71,CUPID,LF,target,left,aqua,pleasantness,conservative,no,z,1,0.626822948363,1,550
2019_Oct_23,209,001,3,recog,72,WHOLE,HF,lure,-,-,-,liberal,no,m,1,0.653452842003,1,551
2019_Oct_23,209,001,3,recog,73,HINDERED,LF,target,right,yellow,imageability,conservative,no,m,0,1.58649482132,-1,550
2019_Oct_23,209,001,3,recog,74,CANNOT,HF,target,left,aqua,pleasantness,liberal,no,z,1,0.640082354373,3,553
2019_Oct_23,209,001,3,recog,75,MAKES,HF,lure,-,-,-,conservative,no,m,1,1.55975641231,3,556
2019_Oct_23,209,001,3,recog,76,DOGMAS,LF,target,left,aqua,pleasantness,liberal,no,z,1,0.799985262438,3,559
2019_Oct_23,209,001,3,recog,77,MINISTER,HF,target,right,yellow,imageability,liberal,no,m,0,0.826667580738,-3,556
2019_Oct_23,209,001,3,recog,78,TYCOONS,LF,target,right,yellow,imageability,conservative,no,z,1,1.34624030877,1,557
2019_Oct_23,209,001,3,recog,79,DESERTER,LF,target,left,aqua,pleasantness,conservative,no,z,1,0.83981847137,1,558
2019_Oct_23,209,001,3,recog,80,COFFINS,LF,target,right,yellow,imageability,conservative,no,z,1,0.733386882251,1,559
2019_Oct_23,209,001,3,recog,81,OUGHT,HF,target,left,aqua,pleasantness,liberal,yes,m,0,1.61282593107,-3,556
2019_Oct_23,209,001,3,recog,82,FIGURE,HF,target,left,aqua,pleasantness,conservative,no,z,1,1.2398483131,1,557
2019_Oct_23,209,001,3,recog,83,CAUGHT,HF,target,left,aqua,pleasantness,liberal,no,m,0,1.55972781704,-3,554
2019_Oct_23,209,001,3,recog,84,MYSELF,HF,lure,-,-,-,conservative,yes,m,1,1.23986481037,3,557
2019_Oct_23,209,001,3,recog,85,MUSIC,HF,target,right,yellow,imageability,conservative,no,m,0,1.89293674873,-1,556
2019_Oct_23,209,001,3,recog,86,TODAY,HF,target,left,aqua,pleasantness,conservative,no,z,1,0.58676867601,1,557
2019_Oct_23,209,001,3,recog,87,TOKENS,LF,lure,-,-,-,conservative,no,m,1,0.760174049868,3,560
2019_Oct_23,209,001,3,recog,88,REUNITED,LF,lure,-,-,-,conservative,no,m,1,0.640234129259,3,563
2019_Oct_23,209,001,3,recog,89,SODDING,LF,lure,-,-,-,liberal,no,z,0,0.880044315334,-1,562
2019_Oct_23,209,001,3,recog,90,HIGHER,HF,target,right,yellow,imageability,liberal,no,z,1,0.666794001153,3,565
2019_Oct_23,209,001,3,recog,91,GROUND,HF,lure,-,-,-,liberal,no,m,1,0.880029651094,1,566
2019_Oct_23,209,001,3,recog,92,NOXIOUS,LF,lure,-,-,-,liberal,no,m,1,0.826473646161,1,567
2019_Oct_23,209,001,3,recog,93,AVAILABLE,HF,target,right,yellow,imageability,liberal,no,m,0,0.960002918184,-3,564
2019_Oct_23,209,001,3,recog,94,OPULENCE,LF,lure,-,-,-,liberal,no,m,1,0.733483666236,1,565
2019_Oct_23,209,001,3,recog,95,TESTIFIES,LF,lure,-,-,-,conservative,no,m,1,0.680079069583,3,568
2019_Oct_23,209,001,4,source,0,OUSTED,LF,target,left,aqua,pleasantness,conservative,no,8,0,1.29317188982,-,-
2019_Oct_23,209,001,4,source,1,MESSED,LF,target,left,aqua,pleasantness,conservative,no,1,1,1.71971064521,-,-
2019_Oct_23,209,001,4,source,2,BEGAN,HF,target,left,aqua,pleasantness,liberal,no,8,0,0.893109420161,-,-
2019_Oct_23,209,001,4,source,3,REREAD,LF,target,left,aqua,pleasantness,conservative,no,3,1,1.15975296621,-,-
2019_Oct_23,209,001,4,source,4,ELECTING,LF,target,right,yellow,imageability,conservative,no,1,0,1.41337173409,-,-
2019_Oct_23,209,001,4,source,5,PALATABLE,LF,target,left,aqua,pleasantness,liberal,no,8,0,1.37297541833,-,-
2019_Oct_23,209,001,4,source,6,GREATER,HF,target,right,yellow,imageability,liberal,no,2,0,0.82645898192,-,-
2019_Oct_23,209,001,4,source,7,FLOOR,HF,target,left,aqua,pleasantness,conservative,no,8,0,1.01328213558,-,-
2019_Oct_23,209,001,4,source,8,ZEALOTS,LF,target,right,yellow,imageability,liberal,no,8,1,0.826597192385,-,-
2019_Oct_23,209,001,4,source,9,WANTED,HF,target,right,yellow,imageability,conservative,no,1,0,1.51978535952,-,-
2019_Oct_23,209,001,4,source,10,TROUBLE,HF,target,left,aqua,pleasantness,conservative,no,1,1,1.07990617819,-,-
2019_Oct_23,209,001,4,source,11,REQUIRED,HF,target,left,aqua,pleasantness,liberal,yes,7,0,0.799806725314,-,-
2019_Oct_23,209,001,4,source,12,KITCHEN,HF,target,left,aqua,pleasantness,conservative,no,3,1,1.18655736431,-,-
2019_Oct_23,209,001,4,source,13,MAPPED,LF,target,right,yellow,imageability,conservative,no,2,0,0.893334149643,-,-
2019_Oct_23,209,001,4,source,14,CAPITAL,HF,target,right,yellow,imageability,conservative,no,8,1,0.880057146544,-,-
2019_Oct_23,209,001,4,source,15,OUTSIDE,HF,target,right,yellow,imageability,conservative,no,9,1,1.54642808437,-,-
2019_Oct_23,209,001,4,source,16,EVIDENCE,HF,target,right,yellow,imageability,liberal,no,8,1,1.30653761158,-,-
2019_Oct_23,209,001,4,source,17,OBVIOUSLY,HF,target,right,yellow,imageability,liberal,no,8,1,0.733438207091,-,-
2019_Oct_23,209,001,4,source,18,SEWED,LF,target,right,yellow,imageability,liberal,no,9,1,0.839979411407,-,-
2019_Oct_23,209,001,4,source,19,LANGUAGE,HF,target,right,yellow,imageability,conservative,no,2,0,1.2664818728,-,-
2019_Oct_23,209,001,4,source,20,LAMENT,LF,target,left,aqua,pleasantness,conservative,no,1,1,1.50620004077,-,-
2019_Oct_23,209,001,4,source,21,FINAL,HF,target,right,yellow,imageability,liberal,no,8,1,1.09303067319,-,-
2019_Oct_23,209,001,4,source,22,NIBBLE,LF,target,right,yellow,imageability,liberal,no,9,1,0.866808372108,-,-
2019_Oct_23,209,001,4,source,23,HUMAN,HF,target,right,yellow,imageability,liberal,no,1,0,0.906653312432,-,-
2019_Oct_23,209,001,4,source,24,ENSCONCED,LF,target,right,yellow,imageability,conservative,no,8,1,0.613609734709,-,-
2019_Oct_23,209,001,4,source,25,ROSEBUD,LF,target,right,yellow,imageability,conservative,no,9,1,1.5464299174,-,-
2019_Oct_23,209,001,4,source,26,MADDENED,LF,target,right,yellow,imageability,liberal,no,2,0,0.999970671519,-,-
2019_Oct_23,209,001,4,source,27,STICKER,LF,target,left,aqua,pleasantness,liberal,no,8,0,1.41323389023,-,-
2019_Oct_23,209,001,4,source,28,DWINDLE,LF,target,left,aqua,pleasantness,liberal,no,8,0,1.29331449956,-,-
2019_Oct_23,209,001,4,source,29,ROYALS,LF,target,right,yellow,imageability,liberal,no,9,1,1.51955769719,-,-
2019_Oct_23,209,001,4,source,30,AHEAD,HF,target,left,aqua,pleasantness,liberal,yes,2,1,1.1198907954,-,-
2019_Oct_23,209,001,4,source,31,PHOBIC,LF,target,right,yellow,imageability,conservative,no,9,1,1.30649948455,-,-
2019_Oct_23,209,001,4,source,32,HUNDRED,HF,target,left,aqua,pleasantness,conservative,no,8,0,2.18619735721,-,-
2019_Oct_23,209,001,4,source,33,HOURS,HF,target,left,aqua,pleasantness,liberal,no,2,1,0.933360926545,-,-
2019_Oct_23,209,001,4,source,34,TIDILY,LF,target,left,aqua,pleasantness,conservative,no,1,1,1.66619753318,-,-
2019_Oct_23,209,001,4,source,35,BEAUTIFUL,HF,target,left,aqua,pleasantness,liberal,no,1,1,0.720243323738,-,-
2019_Oct_23,209,001,4,source,36,INJECT,LF,target,left,aqua,pleasantness,liberal,no,9,0,1.06661377764,-,-
2019_Oct_23,209,001,4,source,37,NOSTRIL,LF,target,right,yellow,imageability,liberal,no,1,0,1.42656588423,-,-
2019_Oct_23,209,001,4,source,38,PARENTS,HF,target,right,yellow,imageability,conservative,no,8,1,1.6397909026,-,-
2019_Oct_23,209,001,4,source,39,EARLIER,HF,target,left,aqua,pleasantness,liberal,no,8,0,1.10639456191,-,-
2019_Oct_23,209,001,4,source,40,DEEPEN,LF,target,right,yellow,imageability,conservative,no,2,0,0.691734207713,-,-
2019_Oct_23,209,001,4,source,41,SOYBEAN,LF,target,left,aqua,pleasantness,liberal,yes,8,0,0.893153779488,-,-
2019_Oct_23,209,001,4,source,42,HERSELF,HF,target,left,aqua,pleasantness,conservative,no,2,1,0.879996656553,-,-
2019_Oct_23,209,001,4,source,43,HITCHING,LF,target,left,aqua,pleasantness,liberal,no,8,0,0.813414407029,-,-
2019_Oct_23,209,001,4,source,44,SYSTEM,HF,target,right,yellow,imageability,liberal,yes,7,1,0.853371162185,-,-
2019_Oct_23,209,001,4,source,45,MANDARIN,LF,target,left,aqua,pleasantness,conservative,no,2,1,1.70649193247,-,-
2019_Oct_23,209,001,4,source,46,AMONG,HF,target,right,yellow,imageability,conservative,no,2,0,0.760036206009,-,-
2019_Oct_23,209,001,4,source,47,ENTIRELY,HF,target,left,aqua,pleasantness,conservative,no,8,0,0.813131753799,-,-
2019_Oct_23,209,001,4,recog,0,LODGERS,LF,lure,-,-,-,conservative,no,m,1,1.15996486448,3,571
2019_Oct_23,209,001,4,recog,1,ROYALS,LF,target,right,yellow,imageability,liberal,no,z,1,0.693797466313,3,574
2019_Oct_23,209,001,4,recog,2,TOWARDS,HF,lure,-,-,-,liberal,no,m,1,0.653527629628,1,575
2019_Oct_23,209,001,4,recog,3,BEAUTIFUL,HF,target,left,aqua,pleasantness,liberal,no,z,1,0.639846260106,3,578
2019_Oct_23,209,001,4,recog,4,FINAL,HF,target,right,yellow,imageability,liberal,no,z,1,0.706935159129,3,581
2019_Oct_23,209,001,4,recog,5,ACTION,HF,lure,-,-,-,conservative,no,m,1,0.626799852184,3,584
2019_Oct_23,209,001,4,recog,6,SEEMED,HF,lure,-,-,-,liberal,no,m,1,0.653461640547,1,585
2019_Oct_23,209,001,4,recog,7,DOUBT,HF,lure,-,-,-,liberal,no,m,1,0.66677493764,1,586
2019_Oct_23,209,001,4,recog,8,CENTRAL,HF,lure,-,-,-,liberal,no,m,1,0.693521778596,1,587
2019_Oct_23,209,001,4,recog,9,INJECT,LF,target,left,aqua,pleasantness,liberal,no,z,1,0.666772371399,3,590
2019_Oct_23,209,001,4,recog,10,DAPPER,LF,lure,-,-,-,liberal,no,z,0,0.706827010357,-1,589
2019_Oct_23,209,001,4,recog,11,NEPHEWS,LF,lure,-,-,-,liberal,no,m,1,0.640136245456,1,590
2019_Oct_23,209,001,4,recog,12,KITCHEN,HF,target,left,aqua,pleasantness,conservative,no,z,1,0.639949642999,1,591
2019_Oct_23,209,001,4,recog,13,LOGGED,LF,lure,-,-,-,conservative,no,m,1,0.733433074608,3,594
2019_Oct_23,209,001,4,recog,14,PHOBIC,LF,target,right,yellow,imageability,conservative,no,z,1,0.733699230567,1,595
2019_Oct_23,209,001,4,recog,15,ARDENTLY,LF,lure,-,-,-,conservative,no,z,0,0.813175013308,-3,592
2019_Oct_23,209,001,4,recog,16,COVER,HF,lure,-,-,-,conservative,no,m,1,1.23962505004,3,595
2019_Oct_23,209,001,4,recog,17,TREES,HF,lure,-,-,-,liberal,no,m,1,0.599904535796,1,596
2019_Oct_23,209,001,4,recog,18,NATIONAL,HF,lure,-,-,-,conservative,no,m,1,0.746512843675,3,599
2019_Oct_23,209,001,4,recog,19,TRIED,HF,lure,-,-,-,liberal,no,m,1,0.720110245758,1,600
2019_Oct_23,209,001,4,recog,20,SPICED,LF,lure,-,-,-,conservative,no,m,1,0.773437121938,3,603
2019_Oct_23,209,001,4,recog,21,SMALL,HF,lure,-,-,-,conservative,no,m,1,0.733505662597,3,606
2019_Oct_23,209,001,4,recog,22,SMIRK,LF,lure,-,-,-,liberal,no,m,1,0.70675332255,1,607
2019_Oct_23,209,001,4,recog,23,VOLITION,LF,lure,-,-,-,liberal,no,m,1,0.813426871634,1,608
2019_Oct_23,209,001,4,recog,24,WATCH,HF,lure,-,-,-,conservative,no,z,0,0.973310349581,-3,605
2019_Oct_23,209,001,4,recog,25,MANDARIN,LF,target,left,aqua,pleasantness,conservative,no,z,1,0.760064434671,1,606
2019_Oct_23,209,001,4,recog,26,ZEALOTS,LF,target,right,yellow,imageability,liberal,no,m,0,0.69338833401,-3,603
2019_Oct_23,209,001,4,recog,27,LANGUAGE,HF,target,right,yellow,imageability,conservative,no,z,1,0.973079754403,1,604
2019_Oct_23,209,001,4,recog,28,GREATER,HF,target,right,yellow,imageability,liberal,no,z,1,0.721411330472,3,607
2019_Oct_23,209,001,4,recog,29,SOUND,HF,lure,-,-,-,liberal,no,m,1,0.720106213092,1,608
2019_Oct_23,209,001,4,recog,30,CLEAR,HF,lure,-,-,-,liberal,no,m,1,0.840026336975,1,609
2019_Oct_23,209,001,4,recog,31,NOSTRIL,LF,target,right,yellow,imageability,liberal,no,z,1,0.613493887211,3,612
2019_Oct_23,209,001,4,recog,32,VIBRATE,LF,lure,-,-,-,conservative,no,m,1,0.81310315853,3,615
2019_Oct_23,209,001,4,recog,33,STICKER,LF,target,left,aqua,pleasantness,liberal,no,z,1,0.613424598676,3,618
2019_Oct_23,209,001,4,recog,34,AGELESS,LF,lure,-,-,-,liberal,no,z,0,0.840013872371,-1,617
2019_Oct_23,209,001,4,recog,35,MESSED,LF,target,left,aqua,pleasantness,conservative,no,z,1,0.653220413796,1,618
2019_Oct_23,209,001,4,recog,36,JADED,LF,lure,-,-,-,conservative,no,m,1,0.72011647806,3,621
2019_Oct_23,209,001,4,recog,37,SYSTEM,HF,target,right,yellow,imageability,liberal,no,z,1,0.586842730423,3,624
2019_Oct_23,209,001,4,recog,38,HITCHING,LF,target,left,aqua,pleasantness,liberal,no,z,1,0.893099521799,3,627
2019_Oct_23,209,001,4,recog,39,HERSELF,HF,target,left,aqua,pleasantness,conservative,no,z,1,0.773434555696,1,628
2019_Oct_23,209,001,4,recog,40,TIDILY,LF,target,left,aqua,pleasantness,conservative,no,z,1,0.693389800434,1,629
2019_Oct_23,209,001,4,recog,41,RAKING,LF,lure,-,-,-,conservative,no,m,1,0.893322784857,3,632
2019_Oct_23,209,001,4,recog,42,FIDDLED,LF,lure,-,-,-,liberal,no,m,1,0.746692480618,1,633
2019_Oct_23,209,001,4,recog,43,LAGER,LF,lure,-,-,-,liberal,no,m,1,0.773461317934,1,634
2019_Oct_23,209,001,4,recog,44,OBVIOUSLY,HF,target,right,yellow,imageability,liberal,no,m,0,0.866764012781,-3,631
2019_Oct_23,209,001,4,recog,45,DRINK,HF,lure,-,-,-,liberal,no,m,1,0.786733188549,1,632
2019_Oct_23,209,001,4,recog,46,GUESSWORK,LF,lure,-,-,-,liberal,no,m,1,0.680359523177,1,633
2019_Oct_23,209,001,4,recog,47,LEVEL,HF,lure,-,-,-,liberal,no,z,0,0.773414025759,-1,632
2019_Oct_23,209,001,4,recog,48,MOUTH,HF,lure,-,-,-,conservative,yes,m,1,0.600436481111,3,635
2019_Oct_23,209,001,4,recog,49,OUSTED,LF,target,left,aqua,pleasantness,conservative,no,m,0,1.30652917964,-1,634
2019_Oct_23,209,001,4,recog,50,SOYBEAN,LF,target,left,aqua,pleasantness,liberal,no,m,0,0.68012526194,-3,631
2019_Oct_23,209,001,4,recog,51,AMONG,HF,target,right,yellow,imageability,conservative,no,z,1,1.45288489598,1,632
2019_Oct_23,209,001,4,recog,52,REREAD,LF,target,left,aqua,pleasantness,conservative,no,z,1,0.786718157702,1,633
2019_Oct_23,209,001,4,recog,53,IMPORTANT,HF,lure,-,-,-,conservative,yes,z,0,0.893128850279,-3,630
2019_Oct_23,209,001,4,recog,54,HOIST,LF,lure,-,-,-,conservative,no,m,1,2.83942290349,3,633
2019_Oct_23,209,001,4,recog,55,FEELING,HF,lure,-,-,-,conservative,no,m,1,0.90638825629,3,636
2019_Oct_23,209,001,4,recog,56,OUTSIDE,HF,target,right,yellow,imageability,conservative,no,m,0,1.03995382231,-1,635
2019_Oct_23,209,001,4,recog,57,ENZYME,LF,lure,-,-,-,conservative,no,m,1,0.747125808916,3,638
2019_Oct_23,209,001,4,recog,58,ELECTING,LF,target,right,yellow,imageability,conservative,no,m,0,1.93296499206,-1,637
2019_Oct_23,209,001,4,recog,59,BEGAN,HF,target,left,aqua,pleasantness,liberal,no,z,1,0.560153080004,3,640
2019_Oct_23,209,001,4,recog,60,LAMENT,LF,target,left,aqua,pleasantness,conservative,no,z,1,1.37318658339,1,641
2019_Oct_23,209,001,4,recog,61,EVIDENCE,HF,target,right,yellow,imageability,liberal,no,z,1,0.973088919553,3,644
2019_Oct_23,209,001,4,recog,62,AHEAD,HF,target,left,aqua,pleasantness,liberal,no,z,1,0.573430083102,3,647
2019_Oct_23,209,001,4,recog,63,PARENTS,HF,target,right,yellow,imageability,conservative,no,z,1,0.573538965086,1,648
2019_Oct_23,209,001,4,recog,64,BLOOD,HF,lure,-,-,-,liberal,no,m,1,0.5734605114,1,649
2019_Oct_23,209,001,4,recog,65,NIBBLE,LF,target,right,yellow,imageability,liberal,no,z,1,0.626826247817,3,652
2019_Oct_23,209,001,4,recog,66,RINSING,LF,lure,-,-,-,conservative,no,z,0,1.47981943921,-3,649
2019_Oct_23,209,001,4,recog,67,FLOOR,HF,target,left,aqua,pleasantness,conservative,yes,m,0,0.960026014362,-1,648
2019_Oct_23,209,001,4,recog,68,POLICE,HF,lure,-,-,-,conservative,no,m,1,2.77260016043,3,651
2019_Oct_23,209,001,4,recog,69,ROSEBUD,LF,target,right,yellow,imageability,conservative,no,z,1,0.600148695396,1,652
2019_Oct_23,209,001,4,recog,70,DILATED,LF,lure,-,-,-,conservative,no,z,0,0.919955611344,-3,649
2019_Oct_23,209,001,4,recog,71,REQUIRED,HF,target,left,aqua,pleasantness,liberal,no,m,0,0.693546707805,-3,646
2019_Oct_23,209,001,4,recog,72,SEWED,LF,target,right,yellow,imageability,liberal,no,z,1,0.653470439091,3,649
2019_Oct_23,209,001,4,recog,73,DROLL,LF,lure,-,-,-,conservative,no,m,1,0.693460555393,3,652
2019_Oct_23,209,001,4,recog,74,PALATABLE,LF,target,left,aqua,pleasantness,liberal,no,z,1,1.09325283643,3,655
2019_Oct_23,209,001,4,recog,75,SCRABBLE,LF,lure,-,-,-,liberal,no,m,1,0.760071400186,1,656
2019_Oct_23,209,001,4,recog,76,ENSCONCED,LF,target,right,yellow,imageability,conservative,no,z,1,0.906764027446,1,657
2019_Oct_23,209,001,4,recog,77,CAPITAL,HF,target,right,yellow,imageability,conservative,no,z,1,0.893393906421,1,658
2019_Oct_23,209,001,4,recog,78,DWINDLE,LF,target,left,aqua,pleasantness,liberal,no,z,1,0.866736883937,3,661
2019_Oct_23,209,001,4,recog,79,INDEED,HF,lure,-,-,-,conservative,no,m,1,1.05327188528,3,664
2019_Oct_23,209,001,4,recog,80,EARLIER,HF,target,left,aqua,pleasantness,liberal,no,z,1,0.866776110779,3,667
2019_Oct_23,209,001,4,recog,81,HUMAN,HF,target,right,yellow,imageability,liberal,no,z,1,0.733560653497,3,670
2019_Oct_23,209,001,4,recog,82,WANTED,HF,target,right,yellow,imageability,conservative,no,m,0,0.813357583098,-1,669
2019_Oct_23,209,001,4,recog,83,ENTIRELY,HF,target,left,aqua,pleasantness,conservative,no,z,1,0.626790687034,1,670
2019_Oct_23,209,001,4,recog,84,DENIALS,LF,lure,-,-,-,liberal,no,m,1,0.920002536914,1,671
2019_Oct_23,209,001,4,recog,85,GIVEN,HF,lure,-,-,-,liberal,yes,z,0,0.773467916842,-1,670
2019_Oct_23,209,001,4,recog,86,SNEAKED,LF,lure,-,-,-,liberal,no,m,1,1.06663394097,1,671
2019_Oct_23,209,001,4,recog,87,MAPPED,LF,target,right,yellow,imageability,conservative,no,z,1,0.813406341697,1,672
2019_Oct_23,209,001,4,recog,88,TROUBLE,HF,target,left,aqua,pleasantness,conservative,no,z,1,0.813121855437,1,673
2019_Oct_23,209,001,4,recog,89,HOURS,HF,target,left,aqua,pleasantness,liberal,no,m,0,0.773448486724,-3,670
2019_Oct_23,209,001,4,recog,90,DEEPEN,LF,target,right,yellow,imageability,conservative,no,z,1,0.840064830606,1,671
2019_Oct_23,209,001,4,recog,91,HAVING,HF,lure,-,-,-,conservative,no,m,1,0.959983854671,3,674
2019_Oct_23,209,001,4,recog,92,MADDENED,LF,target,right,yellow,imageability,liberal,no,z,1,0.786699460796,3,677
2019_Oct_23,209,001,4,recog,93,FREEDOM,HF,lure,-,-,-,conservative,no,m,1,0.760111726846,3,680
2019_Oct_23,209,001,4,recog,94,CUCKOO,LF,lure,-,-,-,liberal,no,m,1,0.906479907791,1,681
2019_Oct_23,209,001,4,recog,95,HUNDRED,HF,target,left,aqua,pleasantness,conservative,no,z,1,0.960178155854,1,682
