date,subj,session,cycle,task,trial,item,wf,type,source,colour,encoding,bias,null,response,corr,rt,points,total
2019_Oct_25,21,001,0,source,0,RETURN,HF,target,right,yellow,imageability,conservative,no,2,0,4.59982828175,-,-
2019_Oct_25,21,001,0,source,1,UNJUSTLY,LF,target,left,aqua,pleasantness,conservative,no,2,1,2.73341657734,-,-
2019_Oct_25,21,001,0,source,2,ELLIPSE,LF,target,right,yellow,imageability,conservative,no,8,1,2.93347824047,-,-
2019_Oct_25,21,001,0,source,3,CASES,HF,target,left,aqua,pleasantness,conservative,no,1,1,2.11693998366,-,-
2019_Oct_25,21,001,0,source,4,ARMAMENT,LF,target,right,yellow,imageability,liberal,no,8,1,1.6834804401,-,-
2019_Oct_25,21,001,0,source,5,DEDICATE,LF,target,right,yellow,imageability,liberal,yes,8,1,0.88356080014,-,-
2019_Oct_25,21,001,0,source,6,MONEY,HF,target,right,yellow,imageability,liberal,no,1,0,3.61681827047,-,-
2019_Oct_25,21,001,0,source,7,WALKED,HF,target,left,aqua,pleasantness,liberal,no,8,0,1.43361058524,-,-
2019_Oct_25,21,001,0,source,8,FUTURE,HF,target,left,aqua,pleasantness,liberal,no,2,1,1.73351006187,-,-
2019_Oct_25,21,001,0,source,9,YEARN,LF,target,left,aqua,pleasantness,liberal,no,2,1,1.1502292754,-,-
2019_Oct_25,21,001,0,source,10,ESCALATED,LF,target,right,yellow,imageability,liberal,no,8,1,1.4668837463,-,-
2019_Oct_25,21,001,0,source,11,MOVED,HF,target,right,yellow,imageability,conservative,no,2,0,0.783580743506,-,-
2019_Oct_25,21,001,0,source,12,EXACTLY,HF,target,right,yellow,imageability,conservative,no,8,1,0.983565785981,-,-
2019_Oct_25,21,001,0,source,13,ALTHOUGH,HF,target,left,aqua,pleasantness,conservative,yes,8,0,0.666903249742,-,-
2019_Oct_25,21,001,0,source,14,HOPPER,LF,target,left,aqua,pleasantness,liberal,no,2,1,1.03357194496,-,-
2019_Oct_25,21,001,0,source,15,ENHANCES,LF,target,left,aqua,pleasantness,liberal,no,2,1,1.38357216493,-,-
2019_Oct_25,21,001,0,source,16,HANDS,HF,target,right,yellow,imageability,liberal,no,8,1,1.8168740679,-,-
2019_Oct_25,21,001,0,source,17,DURING,HF,target,right,yellow,imageability,liberal,no,2,0,1.18356182664,-,-
2019_Oct_25,21,001,0,source,18,PICTURE,HF,target,left,aqua,pleasantness,conservative,no,8,0,1.3335509751,-,-
2019_Oct_25,21,001,0,source,19,TAILED,LF,target,right,yellow,imageability,liberal,no,2,0,1.03365406471,-,-
2019_Oct_25,21,001,0,source,20,AIDING,LF,target,right,yellow,imageability,conservative,no,8,1,1.88330674218,-,-
2019_Oct_25,21,001,0,source,21,SOCIAL,HF,target,right,yellow,imageability,conservative,no,8,1,1.65019444783,-,-
2019_Oct_25,21,001,0,source,22,DAWDLING,LF,target,right,yellow,imageability,liberal,yes,8,1,0.616949882026,-,-
2019_Oct_25,21,001,0,source,23,RICKETS,LF,target,right,yellow,imageability,conservative,no,8,1,1.25021556433,-,-
2019_Oct_25,21,001,0,source,24,FLOOR,HF,target,left,aqua,pleasantness,liberal,no,2,1,4.43339685393,-,-
2019_Oct_25,21,001,0,source,25,AVOCADO,LF,target,left,aqua,pleasantness,conservative,no,1,1,1.48354708908,-,-
2019_Oct_25,21,001,0,source,26,ELATION,LF,target,right,yellow,imageability,conservative,no,7,1,2.05022318974,-,-
2019_Oct_25,21,001,0,source,27,WAITING,HF,target,right,yellow,imageability,conservative,no,7,1,2.58359753406,-,-
2019_Oct_25,21,001,0,source,28,VEHEMENCE,LF,target,left,aqua,pleasantness,conservative,yes,1,1,1.03351988691,-,-
2019_Oct_25,21,001,0,source,29,BUSINESS,HF,target,right,yellow,imageability,liberal,no,2,0,1.78352611921,-,-
2019_Oct_25,21,001,0,source,30,SEEMED,HF,target,right,yellow,imageability,conservative,no,7,1,1.8002088921,-,-
2019_Oct_25,21,001,0,source,31,NEITHER,HF,target,left,aqua,pleasantness,liberal,no,1,1,1.46665425094,-,-
2019_Oct_25,21,001,0,source,32,FARAWAY,LF,target,right,yellow,imageability,liberal,no,7,1,2.46688741236,-,-
2019_Oct_25,21,001,0,source,33,TERMS,HF,target,right,yellow,imageability,liberal,no,2,0,1.08352347965,-,-
2019_Oct_25,21,001,0,source,34,THANK,HF,target,right,yellow,imageability,liberal,no,2,0,1.28351695406,-,-
2019_Oct_25,21,001,0,source,35,ARSENALS,LF,target,left,aqua,pleasantness,liberal,no,2,1,0.983357920376,-,-
2019_Oct_25,21,001,0,source,36,NEGATION,LF,target,right,yellow,imageability,conservative,no,7,1,1.53353968363,-,-
2019_Oct_25,21,001,0,source,37,DWARFED,LF,target,left,aqua,pleasantness,liberal,no,2,1,0.766839313655,-,-
2019_Oct_25,21,001,0,source,38,TROUBLE,HF,target,left,aqua,pleasantness,liberal,no,7,0,1.98347816715,-,-
2019_Oct_25,21,001,0,source,39,RATHER,HF,target,left,aqua,pleasantness,conservative,no,2,1,3.45000263956,-,-
2019_Oct_25,21,001,0,source,40,COGENT,LF,target,left,aqua,pleasantness,conservative,no,2,1,0.783622903197,-,-
2019_Oct_25,21,001,0,source,41,HAWKED,LF,target,left,aqua,pleasantness,conservative,no,2,1,0.766939397094,-,-
2019_Oct_25,21,001,0,source,42,AEONS,LF,target,left,aqua,pleasantness,liberal,no,2,1,0.68365604438,-,-
2019_Oct_25,21,001,0,source,43,SOAPY,LF,target,left,aqua,pleasantness,conservative,no,2,1,0.850194154541,-,-
2019_Oct_25,21,001,0,source,44,ARRIVED,HF,target,left,aqua,pleasantness,conservative,no,7,0,0.96680785886,-,-
2019_Oct_25,21,001,0,source,45,MAKES,HF,target,left,aqua,pleasantness,conservative,no,2,1,3.15010902863,-,-
2019_Oct_25,21,001,0,source,46,LEVEL,HF,target,left,aqua,pleasantness,liberal,no,8,0,2.0166897384,-,-
2019_Oct_25,21,001,0,source,47,WREATH,LF,target,right,yellow,imageability,conservative,no,2,0,0.85016849212,-,-
2019_Oct_25,21,001,0,recog,0,MOVED,HF,target,right,yellow,imageability,conservative,no,z,1,2.45011702064,1,1
2019_Oct_25,21,001,0,recog,1,NEITHER,HF,target,left,aqua,pleasantness,liberal,no,z,1,1.78347626079,3,4
2019_Oct_25,21,001,0,recog,2,AIDING,LF,target,right,yellow,imageability,conservative,no,m,0,1.00021703076,-1,3
2019_Oct_25,21,001,0,recog,3,SEEMED,HF,target,right,yellow,imageability,conservative,no,z,1,0.983525459321,1,4
2019_Oct_25,21,001,0,recog,4,BAFFLING,LF,lure,-,-,-,conservative,no,m,1,0.816952521589,3,7
2019_Oct_25,21,001,0,recog,5,COGENT,LF,target,left,aqua,pleasantness,conservative,no,z,1,1.45013021845,1,8
2019_Oct_25,21,001,0,recog,6,SOAPY,LF,target,left,aqua,pleasantness,conservative,no,z,1,0.916952008341,1,9
2019_Oct_25,21,001,0,recog,7,WAITING,HF,target,right,yellow,imageability,conservative,no,z,1,0.883529272023,1,10
2019_Oct_25,21,001,0,recog,8,MONEY,HF,target,right,yellow,imageability,liberal,no,z,1,1.2167312382,3,13
2019_Oct_25,21,001,0,recog,9,DAWDLING,LF,target,right,yellow,imageability,liberal,no,m,0,0.866930085302,-3,10
2019_Oct_25,21,001,0,recog,10,LEVEL,HF,target,left,aqua,pleasantness,liberal,no,z,1,0.766916667522,3,13
2019_Oct_25,21,001,0,recog,11,ALTHOUGH,HF,target,left,aqua,pleasantness,conservative,no,z,1,1.23351849381,1,14
2019_Oct_25,21,001,0,recog,12,ARRIVED,HF,target,left,aqua,pleasantness,conservative,no,z,1,1.35019452115,1,15
2019_Oct_25,21,001,0,recog,13,FOOLHARDY,LF,lure,-,-,-,liberal,no,m,1,0.70003966677,1,16
2019_Oct_25,21,001,0,recog,14,WHATEVER,HF,lure,-,-,-,liberal,no,m,1,1.26688147335,1,17
2019_Oct_25,21,001,0,recog,15,SOCIAL,HF,target,right,yellow,imageability,conservative,no,z,1,0.933558160576,1,18
2019_Oct_25,21,001,0,recog,16,ACROSS,HF,lure,-,-,-,liberal,no,m,1,0.950238000619,1,19
2019_Oct_25,21,001,0,recog,17,MODERN,HF,lure,-,-,-,liberal,no,m,1,1.01693573103,1,20
2019_Oct_25,21,001,0,recog,18,MAKES,HF,target,left,aqua,pleasantness,conservative,no,z,1,0.750328845587,1,21
2019_Oct_25,21,001,0,recog,19,ESCALATED,LF,target,right,yellow,imageability,liberal,no,z,1,0.966906842481,3,24
2019_Oct_25,21,001,0,recog,20,ADDED,HF,lure,-,-,-,conservative,no,m,1,1.45016211318,3,27
2019_Oct_25,21,001,0,recog,21,DWARFED,LF,target,left,aqua,pleasantness,liberal,no,z,1,0.883525972569,3,30
2019_Oct_25,21,001,0,recog,22,LAYERED,LF,lure,-,-,-,liberal,no,m,1,1.79987271439,1,31
2019_Oct_25,21,001,0,recog,23,TAILED,LF,target,right,yellow,imageability,liberal,no,z,1,0.68336972509,3,34
2019_Oct_25,21,001,0,recog,24,BUSINESS,HF,target,right,yellow,imageability,liberal,no,z,1,0.850218717143,3,37
2019_Oct_25,21,001,0,recog,25,VEHEMENCE,LF,target,left,aqua,pleasantness,conservative,no,m,0,0.900203612975,-1,36
2019_Oct_25,21,001,0,recog,26,OBNOXIOUS,LF,lure,-,-,-,liberal,no,m,1,1.0666907649,1,37
2019_Oct_25,21,001,0,recog,27,ENGULF,LF,lure,-,-,-,conservative,no,m,1,0.966912341571,3,40
2019_Oct_25,21,001,0,recog,28,ABBOT,LF,lure,-,-,-,liberal,no,m,1,1.01676599245,1,41
2019_Oct_25,21,001,0,recog,29,NIGHT,HF,lure,-,-,-,conservative,no,m,1,0.983525825927,3,44
2019_Oct_25,21,001,0,recog,30,FLUFF,LF,lure,-,-,-,liberal,no,m,1,0.766943429761,1,45
2019_Oct_25,21,001,0,recog,31,EXACTLY,HF,target,right,yellow,imageability,conservative,no,z,1,0.600235214413,1,46
2019_Oct_25,21,001,0,recog,32,DEDICATE,LF,target,right,yellow,imageability,liberal,no,m,0,0.866867029069,-3,43
2019_Oct_25,21,001,0,recog,33,PERHAPS,HF,lure,-,-,-,conservative,no,m,1,0.95019107505,3,46
2019_Oct_25,21,001,0,recog,34,ARMAMENT,LF,target,right,yellow,imageability,liberal,no,z,1,0.716884846121,3,49
2019_Oct_25,21,001,0,recog,35,HAWKED,LF,target,left,aqua,pleasantness,conservative,no,z,1,0.900191881583,1,50
2019_Oct_25,21,001,0,recog,36,YOUNG,HF,lure,-,-,-,liberal,yes,m,1,1.40015815383,1,51
2019_Oct_25,21,001,0,recog,37,ROLLERS,LF,lure,-,-,-,liberal,no,z,0,1.73359841392,-1,50
2019_Oct_25,21,001,0,recog,38,FLOOR,HF,target,left,aqua,pleasantness,liberal,no,z,1,0.883556767473,3,53
2019_Oct_25,21,001,0,recog,39,JUDICIOUS,LF,lure,-,-,-,conservative,no,m,1,1.31688213324,3,56
2019_Oct_25,21,001,0,recog,40,ELATION,LF,target,right,yellow,imageability,conservative,no,m,0,1.16689555102,-1,55
2019_Oct_25,21,001,0,recog,41,UNJUSTLY,LF,target,left,aqua,pleasantness,conservative,no,z,1,0.833527145708,1,56
2019_Oct_25,21,001,0,recog,42,PHANTOMS,LF,lure,-,-,-,conservative,no,m,1,0.850257210774,3,59
2019_Oct_25,21,001,0,recog,43,RUPTURE,LF,lure,-,-,-,conservative,yes,z,0,0.900252004968,-3,56
2019_Oct_25,21,001,0,recog,44,PICTURE,HF,target,left,aqua,pleasantness,conservative,no,z,1,1.26692509946,1,57
2019_Oct_25,21,001,0,recog,45,ZEBRA,LF,lure,-,-,-,liberal,no,m,1,1.01689907043,1,58
2019_Oct_25,21,001,0,recog,46,WREATH,LF,target,right,yellow,imageability,conservative,no,z,1,0.950182643112,1,59
2019_Oct_25,21,001,0,recog,47,RICKETS,LF,target,right,yellow,imageability,conservative,no,m,0,1.48352509271,-1,58
2019_Oct_25,21,001,0,recog,48,HOPPER,LF,target,left,aqua,pleasantness,liberal,no,z,1,0.650249805332,3,61
2019_Oct_25,21,001,0,recog,49,FORCE,HF,lure,-,-,-,conservative,no,m,1,0.950233601347,3,64
2019_Oct_25,21,001,0,recog,50,APPEARED,HF,lure,-,-,-,liberal,no,z,0,0.966922973145,-1,63
2019_Oct_25,21,001,0,recog,51,SLOWLY,HF,lure,-,-,-,conservative,no,z,0,1.06692465953,-3,60
2019_Oct_25,21,001,0,recog,52,BECAME,HF,lure,-,-,-,liberal,no,z,0,2.35016995854,-1,59
2019_Oct_25,21,001,0,recog,53,WESTERN,HF,lure,-,-,-,liberal,no,m,1,1.66661729706,1,60
2019_Oct_25,21,001,0,recog,54,APART,HF,lure,-,-,-,liberal,no,m,1,1.30025068519,1,61
2019_Oct_25,21,001,0,recog,55,FUTURE,HF,target,left,aqua,pleasantness,liberal,no,z,1,0.700249732011,3,64
2019_Oct_25,21,001,0,recog,56,YEARN,LF,target,left,aqua,pleasantness,liberal,no,z,1,0.100220916779,3,67
2019_Oct_25,21,001,0,recog,57,SHUNNED,LF,lure,-,-,-,liberal,no,m,1,2.46687568097,1,68
2019_Oct_25,21,001,0,recog,58,ACTION,HF,lure,-,-,-,conservative,no,z,0,1.05022868883,-3,65
2019_Oct_25,21,001,0,recog,59,NEGATION,LF,target,right,yellow,imageability,conservative,no,z,1,0.716858450488,1,66
2019_Oct_25,21,001,0,recog,60,INMATE,LF,lure,-,-,-,liberal,no,m,1,1.40017685074,1,67
2019_Oct_25,21,001,0,recog,61,SUNBURN,LF,lure,-,-,-,conservative,no,m,1,0.933522233188,3,70
2019_Oct_25,21,001,0,recog,62,PNEUMATIC,LF,lure,-,-,-,liberal,no,m,1,1.18350683574,1,71
2019_Oct_25,21,001,0,recog,63,THANK,HF,target,right,yellow,imageability,liberal,no,z,1,1.28355471448,3,74
2019_Oct_25,21,001,0,recog,64,QUICKLY,HF,lure,-,-,-,conservative,no,m,1,0.816849871908,3,77
2019_Oct_25,21,001,0,recog,65,DEGREE,HF,lure,-,-,-,liberal,no,m,1,0.800201559982,1,78
2019_Oct_25,21,001,0,recog,66,SIPHON,LF,lure,-,-,-,conservative,no,m,1,0.866879127067,3,81
2019_Oct_25,21,001,0,recog,67,LANGUAGE,HF,lure,-,-,-,conservative,no,m,1,1.11690478949,3,84
2019_Oct_25,21,001,0,recog,68,TROUBLE,HF,target,left,aqua,pleasantness,liberal,no,z,1,0.666671554747,3,87
2019_Oct_25,21,001,0,recog,69,AVOCADO,LF,target,left,aqua,pleasantness,conservative,no,z,1,2.61677537757,1,88
2019_Oct_25,21,001,0,recog,70,ATONEMENT,LF,lure,-,-,-,liberal,no,m,1,3.16677200479,1,89
2019_Oct_25,21,001,0,recog,71,AEONS,LF,target,left,aqua,pleasantness,liberal,no,z,1,1.10025134508,3,92
2019_Oct_25,21,001,0,recog,72,LATER,HF,lure,-,-,-,liberal,no,m,1,1.33354180995,1,93
2019_Oct_25,21,001,0,recog,73,HUMAN,HF,lure,-,-,-,liberal,no,m,1,0.817004579642,1,94
2019_Oct_25,21,001,0,recog,74,HANDS,HF,target,right,yellow,imageability,liberal,no,z,1,0.633533304689,3,97
2019_Oct_25,21,001,0,recog,75,ERUDITE,LF,lure,-,-,-,conservative,no,m,1,1.28352391958,3,100
2019_Oct_25,21,001,0,recog,76,FRIEND,HF,lure,-,-,-,conservative,no,m,1,1.11698287657,3,103
2019_Oct_25,21,001,0,recog,77,ENHANCES,LF,target,left,aqua,pleasantness,liberal,no,z,1,0.916954207977,3,106
2019_Oct_25,21,001,0,recog,78,RETURN,HF,target,right,yellow,imageability,conservative,no,z,1,1.35021211823,1,107
2019_Oct_25,21,001,0,recog,79,RAREFIED,LF,lure,-,-,-,conservative,no,m,1,0.733582649857,3,110
2019_Oct_25,21,001,0,recog,80,CHAIR,HF,lure,-,-,-,conservative,no,m,1,1.183535431,3,113
2019_Oct_25,21,001,0,recog,81,TERMS,HF,target,right,yellow,imageability,liberal,yes,z,1,1.25027568772,3,116
2019_Oct_25,21,001,0,recog,82,ARSENALS,LF,target,left,aqua,pleasantness,liberal,no,z,1,0.950280893521,3,119
2019_Oct_25,21,001,0,recog,83,HISTORY,HF,lure,-,-,-,conservative,yes,m,1,1.25019246815,3,122
2019_Oct_25,21,001,0,recog,84,EPIDEMICS,LF,lure,-,-,-,conservative,no,m,1,1.0835630731,3,125
2019_Oct_25,21,001,0,recog,85,WALKED,HF,target,left,aqua,pleasantness,liberal,no,z,1,2.10025134508,3,128
2019_Oct_25,21,001,0,recog,86,DURING,HF,target,right,yellow,imageability,liberal,no,z,1,0.766867542317,3,131
2019_Oct_25,21,001,0,recog,87,BOOKS,HF,lure,-,-,-,conservative,no,m,1,0.800243353067,3,134
2019_Oct_25,21,001,0,recog,88,CONCERNED,HF,lure,-,-,-,liberal,no,m,1,2.11660490577,1,135
2019_Oct_25,21,001,0,recog,89,VETOED,LF,lure,-,-,-,conservative,no,z,0,0.616928618878,-3,132
2019_Oct_25,21,001,0,recog,90,FARAWAY,LF,target,right,yellow,imageability,liberal,no,z,1,2.15015668741,3,135
2019_Oct_25,21,001,0,recog,91,ACORNS,LF,lure,-,-,-,liberal,no,m,1,0.933574657847,1,136
2019_Oct_25,21,001,0,recog,92,CASES,HF,target,left,aqua,pleasantness,conservative,no,z,1,0.916946142645,1,137
2019_Oct_25,21,001,0,recog,93,RATHER,HF,target,left,aqua,pleasantness,conservative,no,z,1,1.2169141746,1,138
2019_Oct_25,21,001,0,recog,94,OMELETTE,LF,lure,-,-,-,conservative,no,m,1,0.733563952951,3,141
2019_Oct_25,21,001,0,recog,95,ELLIPSE,LF,target,right,yellow,imageability,conservative,no,m,0,1.71686358297,-1,140
2019_Oct_25,21,001,1,source,0,ATTACK,HF,target,right,yellow,imageability,conservative,no,7,1,5.13337383108,-,-
2019_Oct_25,21,001,1,source,1,GULLIBLE,LF,target,right,yellow,imageability,liberal,no,8,1,2.516762693,-,-
2019_Oct_25,21,001,1,source,2,FRUGAL,LF,target,right,yellow,imageability,liberal,no,8,1,0.033611171805,-,-
2019_Oct_25,21,001,1,source,3,WEBBED,LF,target,right,yellow,imageability,conservative,no,9,1,3.05009231139,-,-
2019_Oct_25,21,001,1,source,4,STRAIGHT,HF,target,right,yellow,imageability,liberal,no,9,1,1.0168968708,-,-
2019_Oct_25,21,001,1,source,5,VOICE,HF,target,left,aqua,pleasantness,liberal,no,2,1,1.64999611398,-,-
2019_Oct_25,21,001,1,source,6,THYROID,LF,target,left,aqua,pleasantness,conservative,no,2,1,1.08361256491,-,-
2019_Oct_25,21,001,1,source,7,ROUND,HF,target,right,yellow,imageability,conservative,no,9,1,2.13349994354,-,-
2019_Oct_25,21,001,1,source,8,FLECKED,LF,target,right,yellow,imageability,conservative,no,9,1,0.816912194929,-,-
2019_Oct_25,21,001,1,source,9,UNION,HF,target,right,yellow,imageability,conservative,no,1,0,1.41663452754,-,-
2019_Oct_25,21,001,1,source,10,BEGAN,HF,target,left,aqua,pleasantness,liberal,no,1,1,2.41678630243,-,-
2019_Oct_25,21,001,1,source,11,BETTER,HF,target,left,aqua,pleasantness,liberal,no,1,1,2.05023015525,-,-
2019_Oct_25,21,001,1,source,12,ALONE,HF,target,right,yellow,imageability,conservative,no,9,1,1.06693419129,-,-
2019_Oct_25,21,001,1,source,13,WANTED,HF,target,left,aqua,pleasantness,conservative,no,1,1,1.21682985522,-,-
2019_Oct_25,21,001,1,source,14,AROUND,HF,target,left,aqua,pleasantness,liberal,no,9,0,1.050288079,-,-
2019_Oct_25,21,001,1,source,15,LOVELIEST,LF,target,left,aqua,pleasantness,conservative,yes,1,1,1.06688066681,-,-
2019_Oct_25,21,001,1,source,16,HIGHER,HF,target,right,yellow,imageability,conservative,no,9,1,1.11689672416,-,-
2019_Oct_25,21,001,1,source,17,PREPARED,HF,target,right,yellow,imageability,liberal,no,9,1,2.01689247153,-,-
2019_Oct_25,21,001,1,source,18,ALREADY,HF,target,left,aqua,pleasantness,liberal,no,1,1,0.950253398071,-,-
2019_Oct_25,21,001,1,source,19,VIOLATING,LF,target,left,aqua,pleasantness,liberal,no,1,1,1.30031814069,-,-
2019_Oct_25,21,001,1,source,20,KILOWATT,LF,target,left,aqua,pleasantness,conservative,yes,9,0,1.35009773716,-,-
2019_Oct_25,21,001,1,source,21,NATIONAL,HF,target,left,aqua,pleasantness,conservative,no,1,1,2.81659654716,-,-
2019_Oct_25,21,001,1,source,22,FEELING,HF,target,right,yellow,imageability,liberal,no,9,1,1.91670418268,-,-
2019_Oct_25,21,001,1,source,23,DIETING,LF,target,right,yellow,imageability,conservative,no,9,1,1.05136113478,-,-
2019_Oct_25,21,001,1,source,24,LIVED,HF,target,right,yellow,imageability,liberal,no,2,0,2.66669685056,-,-
2019_Oct_25,21,001,1,source,25,REFECTORY,LF,target,right,yellow,imageability,conservative,no,3,0,2.24991898007,-,-
2019_Oct_25,21,001,1,source,26,SCHOOL,HF,target,left,aqua,pleasantness,conservative,no,3,1,0.800241886643,-,-
2019_Oct_25,21,001,1,source,27,GAZELLE,LF,target,left,aqua,pleasantness,liberal,no,1,1,0.983511528292,-,-
2019_Oct_25,21,001,1,source,28,ZIGZAG,LF,target,right,yellow,imageability,liberal,no,9,1,1.06670139648,-,-
2019_Oct_25,21,001,1,source,29,TYCOONS,LF,target,left,aqua,pleasantness,liberal,no,1,1,0.966949735384,-,-
2019_Oct_25,21,001,1,source,30,EITHER,HF,target,right,yellow,imageability,liberal,no,1,0,1.06688799893,-,-
2019_Oct_25,21,001,1,source,31,EXCEPT,HF,target,left,aqua,pleasantness,liberal,no,1,1,0.716705575784,-,-
2019_Oct_25,21,001,1,source,32,BOTANIST,LF,target,right,yellow,imageability,liberal,no,1,0,0.866908088941,-,-
2019_Oct_25,21,001,1,source,33,DIMMED,LF,target,right,yellow,imageability,liberal,no,9,1,1.13358316311,-,-
2019_Oct_25,21,001,1,source,34,MORNING,HF,target,right,yellow,imageability,conservative,no,8,1,3.23320137961,-,-
2019_Oct_25,21,001,1,source,35,OPPOSES,LF,target,right,yellow,imageability,conservative,no,2,0,1.83331414762,-,-
2019_Oct_25,21,001,1,source,36,JARRED,LF,target,right,yellow,imageability,liberal,no,9,1,1.18360068687,-,-
2019_Oct_25,21,001,1,source,37,EDUCATION,HF,target,left,aqua,pleasantness,conservative,no,2,1,1.00006635569,-,-
2019_Oct_25,21,001,1,source,38,GENERAL,HF,target,left,aqua,pleasantness,conservative,no,1,1,2.20016064675,-,-
2019_Oct_25,21,001,1,source,39,PAGANISM,LF,target,left,aqua,pleasantness,conservative,no,1,1,1.40021864382,-,-
2019_Oct_25,21,001,1,source,40,PUPPETS,LF,target,left,aqua,pleasantness,conservative,yes,1,1,0.88357179832,-,-
2019_Oct_25,21,001,1,source,41,NEURAL,LF,target,left,aqua,pleasantness,liberal,no,1,1,0.933608752205,-,-
2019_Oct_25,21,001,1,source,42,VALUE,HF,target,right,yellow,imageability,liberal,no,8,1,1.40017575092,-,-
2019_Oct_25,21,001,1,source,43,GARDEN,HF,target,left,aqua,pleasantness,conservative,no,9,0,2.38332727211,-,-
2019_Oct_25,21,001,1,source,44,FALCON,LF,target,right,yellow,imageability,conservative,no,9,1,0.700213804622,-,-
2019_Oct_25,21,001,1,source,45,JANGLING,LF,target,left,aqua,pleasantness,liberal,yes,9,0,0.666934777859,-,-
2019_Oct_25,21,001,1,source,46,HACKNEY,LF,target,left,aqua,pleasantness,conservative,no,9,0,0.750230961783,-,-
2019_Oct_25,21,001,1,source,47,NOBLEMAN,LF,target,left,aqua,pleasantness,liberal,no,2,1,0.833610365271,-,-
2019_Oct_25,21,001,1,recog,0,BEGAN,HF,target,left,aqua,pleasantness,liberal,yes,z,1,3.91674487595,3,143
2019_Oct_25,21,001,1,recog,1,EASILY,HF,lure,-,-,-,conservative,no,z,0,2.6168508984,-3,140
2019_Oct_25,21,001,1,recog,2,TYCOONS,LF,target,left,aqua,pleasantness,liberal,no,z,1,1.31684034015,3,143
2019_Oct_25,21,001,1,recog,3,COUNCIL,HF,lure,-,-,-,conservative,no,z,0,2.41680609915,-3,140
2019_Oct_25,21,001,1,recog,4,LIVED,HF,target,right,yellow,imageability,liberal,no,z,1,3.73348659908,3,143
2019_Oct_25,21,001,1,recog,5,GAMBITS,LF,lure,-,-,-,liberal,no,m,1,1.23361784403,1,144
2019_Oct_25,21,001,1,recog,6,OPPOSES,LF,target,right,yellow,imageability,conservative,no,z,1,1.03361043859,1,145
2019_Oct_25,21,001,1,recog,7,DIMMED,LF,target,right,yellow,imageability,liberal,no,z,1,0.850222749809,3,148
2019_Oct_25,21,001,1,recog,8,THYROID,LF,target,left,aqua,pleasantness,conservative,no,z,1,1.88349994354,1,149
2019_Oct_25,21,001,1,recog,9,OATHS,LF,lure,-,-,-,conservative,no,m,1,0.700195474322,3,152
2019_Oct_25,21,001,1,recog,10,VIOLATING,LF,target,left,aqua,pleasantness,liberal,no,z,1,1.11684723234,3,155
2019_Oct_25,21,001,1,recog,11,KILOWATT,LF,target,left,aqua,pleasantness,conservative,no,z,1,0.866902956457,1,156
2019_Oct_25,21,001,1,recog,12,ERADICATE,LF,lure,-,-,-,conservative,no,m,1,1.16684935866,3,159
2019_Oct_25,21,001,1,recog,13,ROUND,HF,target,right,yellow,imageability,conservative,no,z,1,0.750189168699,1,160
2019_Oct_25,21,001,1,recog,14,ATTACK,HF,target,right,yellow,imageability,conservative,no,z,1,0.616921286758,1,161
2019_Oct_25,21,001,1,recog,15,BOTANIST,LF,target,right,yellow,imageability,liberal,no,z,1,0.733587415736,3,164
2019_Oct_25,21,001,1,recog,16,EITHER,HF,target,right,yellow,imageability,liberal,no,z,1,0.916931478405,3,167
2019_Oct_25,21,001,1,recog,17,PREPARED,HF,target,right,yellow,imageability,liberal,no,z,1,0.800285146151,3,170
2019_Oct_25,21,001,1,recog,18,AROUND,HF,target,left,aqua,pleasantness,liberal,no,z,1,0.600205519327,3,173
2019_Oct_25,21,001,1,recog,19,ALONE,HF,target,right,yellow,imageability,conservative,no,z,1,0.683496570768,1,174
2019_Oct_25,21,001,1,recog,20,FOUND,HF,lure,-,-,-,liberal,no,m,1,1.00021813057,1,175
2019_Oct_25,21,001,1,recog,21,YARDSTICK,LF,lure,-,-,-,liberal,no,m,1,1.00022986197,1,176
2019_Oct_25,21,001,1,recog,22,ALREADY,HF,target,left,aqua,pleasantness,liberal,no,z,1,0.700038200346,3,179
2019_Oct_25,21,001,1,recog,23,JARRED,LF,target,right,yellow,imageability,liberal,no,z,1,0.750222163239,3,182
2019_Oct_25,21,001,1,recog,24,NINETIES,LF,lure,-,-,-,liberal,no,m,1,0.916901050106,1,183
2019_Oct_25,21,001,1,recog,25,EARLIER,HF,lure,-,-,-,conservative,no,m,1,2.16682882872,3,186
2019_Oct_25,21,001,1,recog,26,USING,HF,lure,-,-,-,liberal,no,m,1,0.916926712527,1,187
2019_Oct_25,21,001,1,recog,27,PUPPETS,LF,target,left,aqua,pleasantness,conservative,no,z,1,0.850208085569,1,188
2019_Oct_25,21,001,1,recog,28,SCHOOL,HF,target,left,aqua,pleasantness,conservative,no,z,1,0.716964399624,1,189
2019_Oct_25,21,001,1,recog,29,VALUE,HF,target,right,yellow,imageability,liberal,no,z,1,0.766704402645,3,192
2019_Oct_25,21,001,1,recog,30,ACQUIRES,LF,lure,-,-,-,liberal,no,m,1,0.833528612132,1,193
2019_Oct_25,21,001,1,recog,31,GARDEN,HF,target,left,aqua,pleasantness,conservative,no,z,1,1.1334482521,1,194
2019_Oct_25,21,001,1,recog,32,JANGLING,LF,target,left,aqua,pleasantness,liberal,no,z,1,1.38350470942,3,197
2019_Oct_25,21,001,1,recog,33,EXCEPT,HF,target,left,aqua,pleasantness,liberal,no,z,1,0.716882279879,3,200
2019_Oct_25,21,001,1,recog,34,DIETING,LF,target,right,yellow,imageability,conservative,no,z,1,0.650224142912,1,201
2019_Oct_25,21,001,1,recog,35,HIGHER,HF,target,right,yellow,imageability,conservative,no,z,1,0.633582429894,1,202
2019_Oct_25,21,001,1,recog,36,WANTED,HF,target,left,aqua,pleasantness,conservative,no,z,1,0.966909042117,1,203
2019_Oct_25,21,001,1,recog,37,WAGGED,LF,lure,-,-,-,conservative,no,z,0,1.50023059518,-3,200
2019_Oct_25,21,001,1,recog,38,FAUCET,LF,lure,-,-,-,conservative,no,m,1,0.850226782475,3,203
2019_Oct_25,21,001,1,recog,39,REFECTORY,LF,target,right,yellow,imageability,conservative,no,z,1,0.916858890416,1,204
2019_Oct_25,21,001,1,recog,40,OUGHT,HF,lure,-,-,-,liberal,yes,m,1,0.933611318447,1,205
2019_Oct_25,21,001,1,recog,41,DETACH,LF,lure,-,-,-,liberal,no,m,1,1.30016966526,1,206
2019_Oct_25,21,001,1,recog,42,CIPHER,LF,lure,-,-,-,liberal,no,z,0,1.38353037184,-1,205
2019_Oct_25,21,001,1,recog,43,SNIGGERED,LF,lure,-,-,-,liberal,no,m,1,0.983568718829,1,206
2019_Oct_25,21,001,1,recog,44,NATIONAL,HF,target,left,aqua,pleasantness,conservative,no,z,1,0.933519666946,1,207
2019_Oct_25,21,001,1,recog,45,WEBBED,LF,target,right,yellow,imageability,conservative,no,z,1,0.717014624647,1,208
2019_Oct_25,21,001,1,recog,46,CRACKLE,LF,lure,-,-,-,conservative,no,m,1,0.933470175135,3,211
2019_Oct_25,21,001,1,recog,47,IDIOCY,LF,lure,-,-,-,conservative,no,m,1,0.733579350403,3,214
2019_Oct_25,21,001,1,recog,48,LOVELIEST,LF,target,left,aqua,pleasantness,conservative,no,z,1,0.933567325726,1,215
2019_Oct_25,21,001,1,recog,49,MILES,HF,lure,-,-,-,conservative,no,m,1,0.650205812612,3,218
2019_Oct_25,21,001,1,recog,50,FREEDOM,HF,lure,-,-,-,conservative,no,m,1,1.45016651245,3,221
2019_Oct_25,21,001,1,recog,51,LIKELY,HF,lure,-,-,-,liberal,no,z,0,0.600250978472,-1,220
2019_Oct_25,21,001,1,recog,52,GENERAL,HF,target,left,aqua,pleasantness,conservative,no,z,1,1.65015888704,1,221
2019_Oct_25,21,001,1,recog,53,EDUCATION,HF,target,left,aqua,pleasantness,conservative,no,z,1,1.11693961706,1,222
2019_Oct_25,21,001,1,recog,54,DEVELOPED,HF,lure,-,-,-,liberal,no,m,1,1.16695787404,1,223
2019_Oct_25,21,001,1,recog,55,NEURAL,LF,target,left,aqua,pleasantness,liberal,no,z,1,0.700021336469,3,226
2019_Oct_25,21,001,1,recog,56,KITCHEN,HF,lure,-,-,-,liberal,no,m,1,0.750202366515,1,227
2019_Oct_25,21,001,1,recog,57,PANACHE,LF,lure,-,-,-,conservative,no,m,1,0.733577150767,3,230
2019_Oct_25,21,001,1,recog,58,GIRLS,HF,lure,-,-,-,liberal,no,m,1,1.050263883,1,231
2019_Oct_25,21,001,1,recog,59,RIMMED,LF,lure,-,-,-,conservative,no,z,0,0.883561166745,-3,228
2019_Oct_25,21,001,1,recog,60,TUSKS,LF,lure,-,-,-,conservative,no,m,1,0.816855004392,3,231
2019_Oct_25,21,001,1,recog,61,MAVIS,LF,lure,-,-,-,liberal,no,m,1,0.700199506988,1,232
2019_Oct_25,21,001,1,recog,62,PRACTICE,HF,lure,-,-,-,liberal,no,m,1,0.750289618745,1,233
2019_Oct_25,21,001,1,recog,63,VOICE,HF,target,left,aqua,pleasantness,liberal,no,z,1,0.666912048287,3,236
2019_Oct_25,21,001,1,recog,64,NOBLEMAN,LF,target,left,aqua,pleasantness,liberal,yes,z,1,0.900231475032,3,239
2019_Oct_25,21,001,1,recog,65,GAZELLE,LF,target,left,aqua,pleasantness,liberal,no,z,1,0.700271361765,3,242
2019_Oct_25,21,001,1,recog,66,NECESSARY,HF,lure,-,-,-,conservative,no,m,1,0.850244012957,3,245
2019_Oct_25,21,001,1,recog,67,UNION,HF,target,right,yellow,imageability,conservative,no,z,1,0.833739043979,1,246
2019_Oct_25,21,001,1,recog,68,FEELING,HF,target,right,yellow,imageability,liberal,no,m,0,1.55035370147,-3,243
2019_Oct_25,21,001,1,recog,69,SOVIET,HF,lure,-,-,-,conservative,no,z,0,1.26688293977,-3,240
2019_Oct_25,21,001,1,recog,70,MORNING,HF,target,right,yellow,imageability,conservative,no,z,1,1.01691923376,1,241
2019_Oct_25,21,001,1,recog,71,BLACK,HF,lure,-,-,-,liberal,no,m,1,2.38355053517,1,242
2019_Oct_25,21,001,1,recog,72,REUNITED,LF,lure,-,-,-,liberal,no,m,1,1.20025119844,1,243
2019_Oct_25,21,001,1,recog,73,PAGANISM,LF,target,left,aqua,pleasantness,conservative,no,z,1,0.950267695705,1,244
2019_Oct_25,21,001,1,recog,74,TODAY,HF,lure,-,-,-,conservative,no,m,1,0.98361637761,3,247
2019_Oct_25,21,001,1,recog,75,MIDDLE,HF,lure,-,-,-,conservative,no,m,1,0.79998232959,3,250
2019_Oct_25,21,001,1,recog,76,GULLIBLE,LF,target,right,yellow,imageability,liberal,no,z,1,0.950291525096,3,253
2019_Oct_25,21,001,1,recog,77,LAWFUL,LF,lure,-,-,-,conservative,no,m,1,1.08364116018,3,256
2019_Oct_25,21,001,1,recog,78,HACKNEY,LF,target,left,aqua,pleasantness,conservative,no,z,1,0.916906549196,1,257
2019_Oct_25,21,001,1,recog,79,CRUCIALLY,LF,lure,-,-,-,liberal,no,m,1,2.58348498602,1,258
2019_Oct_25,21,001,1,recog,80,SUDDENLY,HF,lure,-,-,-,conservative,no,m,1,0.866860796767,3,261
2019_Oct_25,21,001,1,recog,81,BEAUTIFUL,HF,lure,-,-,-,liberal,no,m,1,0.733582283252,1,262
2019_Oct_25,21,001,1,recog,82,FRUGAL,LF,target,right,yellow,imageability,liberal,no,z,1,0.866970045356,3,265
2019_Oct_25,21,001,1,recog,83,SIBLINGS,LF,lure,-,-,-,conservative,no,m,1,1.48354012356,3,268
2019_Oct_25,21,001,1,recog,84,ZIGZAG,LF,target,right,yellow,imageability,liberal,no,z,1,0.800230521856,3,271
2019_Oct_25,21,001,1,recog,85,AHEAD,HF,lure,-,-,-,conservative,no,m,1,1.15025970369,3,274
2019_Oct_25,21,001,1,recog,86,STRAIGHT,HF,target,right,yellow,imageability,liberal,no,z,1,1.31680331295,3,277
2019_Oct_25,21,001,1,recog,87,BETTER,HF,target,left,aqua,pleasantness,liberal,yes,z,1,1.15019078177,3,280
2019_Oct_25,21,001,1,recog,88,GIVEN,HF,lure,-,-,-,liberal,no,m,1,1.4335412967,1,281
2019_Oct_25,21,001,1,recog,89,SANDAL,LF,lure,-,-,-,conservative,no,m,1,0.833344942524,3,284
2019_Oct_25,21,001,1,recog,90,TOGETHER,HF,lure,-,-,-,conservative,no,m,1,0.883534404507,3,287
2019_Oct_25,21,001,1,recog,91,ROSEBUD,LF,lure,-,-,-,liberal,no,m,1,0.700205372684,1,288
2019_Oct_25,21,001,1,recog,92,WRITE,HF,lure,-,-,-,liberal,no,m,1,0.583541809948,1,289
2019_Oct_25,21,001,1,recog,93,FLECKED,LF,target,right,yellow,imageability,conservative,no,m,0,0.850205152721,-1,288
2019_Oct_25,21,001,1,recog,94,NERVY,LF,lure,-,-,-,liberal,no,z,0,0.716914174601,-1,287
2019_Oct_25,21,001,1,recog,95,FALCON,LF,target,right,yellow,imageability,conservative,no,z,1,0.983570551859,1,288
2019_Oct_25,21,001,2,source,0,VAULTED,LF,target,right,yellow,imageability,liberal,no,8,1,3.98340154649,-,-
2019_Oct_25,21,001,2,source,1,SUSPEND,LF,target,left,aqua,pleasantness,conservative,yes,8,0,1.31684180658,-,-
2019_Oct_25,21,001,2,source,2,SENSE,HF,target,left,aqua,pleasantness,liberal,no,2,1,3.05026168337,-,-
2019_Oct_25,21,001,2,source,3,TIMES,HF,target,right,yellow,imageability,conservative,no,8,1,5.68337925685,-,-
2019_Oct_25,21,001,2,source,4,SPOKE,HF,target,right,yellow,imageability,liberal,no,8,1,4.66674084328,-,-
2019_Oct_25,21,001,2,source,5,EVENING,HF,target,right,yellow,imageability,liberal,no,9,1,2.63355016857,-,-
2019_Oct_25,21,001,2,source,6,TRUTH,HF,target,left,aqua,pleasantness,liberal,no,1,1,1.83350404953,-,-
2019_Oct_25,21,001,2,source,7,SPLASHES,LF,target,right,yellow,imageability,liberal,no,9,1,1.45022260317,-,-
2019_Oct_25,21,001,2,source,8,BLUECOATS,LF,target,right,yellow,imageability,conservative,no,9,1,0.883569598684,-,-
2019_Oct_25,21,001,2,source,9,FUDGE,LF,target,right,yellow,imageability,liberal,no,9,1,0.933623049839,-,-
2019_Oct_25,21,001,2,source,10,PINAFORE,LF,target,right,yellow,imageability,conservative,no,9,1,0.800284412939,-,-
2019_Oct_25,21,001,2,source,11,NUMBER,HF,target,right,yellow,imageability,liberal,no,9,1,0.683581989967,-,-
2019_Oct_25,21,001,2,source,12,DRINK,HF,target,left,aqua,pleasantness,conservative,no,1,1,0.85019232151,-,-
2019_Oct_25,21,001,2,source,13,OTHERS,HF,target,left,aqua,pleasantness,conservative,no,1,1,0.833375737428,-,-
2019_Oct_25,21,001,2,source,14,LAVISHED,LF,target,left,aqua,pleasantness,liberal,no,1,1,0.850197453994,-,-
2019_Oct_25,21,001,2,source,15,AVAILABLE,HF,target,right,yellow,imageability,conservative,no,2,0,3.21678219644,-,-
2019_Oct_25,21,001,2,source,16,BASIC,HF,target,right,yellow,imageability,conservative,no,8,1,2.00019283476,-,-
2019_Oct_25,21,001,2,source,17,RECENT,HF,target,right,yellow,imageability,liberal,no,3,0,3.4334437795,-,-
2019_Oct_25,21,001,2,source,18,PROBABLY,HF,target,right,yellow,imageability,liberal,no,3,0,1.4835423232,-,-
2019_Oct_25,21,001,2,source,19,RANGE,HF,target,right,yellow,imageability,conservative,no,8,1,1.53351585424,-,-
2019_Oct_25,21,001,2,source,20,TURNED,HF,target,left,aqua,pleasantness,liberal,no,3,1,1.16684789224,-,-
2019_Oct_25,21,001,2,source,21,LUGGED,LF,target,left,aqua,pleasantness,liberal,no,8,0,0.816705062536,-,-
2019_Oct_25,21,001,2,source,22,DEBACLE,LF,target,right,yellow,imageability,conservative,no,8,1,1.66688088678,-,-
2019_Oct_25,21,001,2,source,23,HUSBAND,HF,target,left,aqua,pleasantness,liberal,no,3,1,1.23359804731,-,-
2019_Oct_25,21,001,2,source,24,HAGGLING,LF,target,right,yellow,imageability,liberal,no,8,1,1.16664479251,-,-
2019_Oct_25,21,001,2,source,25,PATCHY,LF,target,left,aqua,pleasantness,conservative,no,2,1,3.01654529564,-,-
2019_Oct_25,21,001,2,source,26,SMIRK,LF,target,left,aqua,pleasantness,conservative,no,2,1,1.11696491287,-,-
2019_Oct_25,21,001,2,source,27,LOLLED,LF,target,right,yellow,imageability,liberal,no,8,1,1.4833839494,-,-
2019_Oct_25,21,001,2,source,28,STICKER,LF,target,left,aqua,pleasantness,conservative,no,1,1,1.1002282489,-,-
2019_Oct_25,21,001,2,source,29,WEAKENS,LF,target,right,yellow,imageability,conservative,no,7,1,1.81653275771,-,-
2019_Oct_25,21,001,2,source,30,APTLY,LF,target,left,aqua,pleasantness,liberal,no,2,1,1.95016064675,-,-
2019_Oct_25,21,001,2,source,31,LABOUR,HF,target,left,aqua,pleasantness,conservative,yes,2,1,0.633536970749,-,-
2019_Oct_25,21,001,2,source,32,KNOWLEDGE,HF,target,left,aqua,pleasantness,conservative,no,2,1,0.683619383779,-,-
2019_Oct_25,21,001,2,source,33,LARGE,HF,target,right,yellow,imageability,conservative,no,8,1,1.65030736248,-,-
2019_Oct_25,21,001,2,source,34,UNKEMPT,LF,target,left,aqua,pleasantness,conservative,no,8,0,1.45016541263,-,-
2019_Oct_25,21,001,2,source,35,REACHED,HF,target,left,aqua,pleasantness,liberal,no,2,1,2.31679011513,-,-
2019_Oct_25,21,001,2,source,36,SYSTEM,HF,target,right,yellow,imageability,conservative,no,1,0,1.65020361298,-,-
2019_Oct_25,21,001,2,source,37,WRANGLING,LF,target,left,aqua,pleasantness,conservative,no,8,0,2.65016695237,-,-
2019_Oct_25,21,001,2,source,38,MOTHER,HF,target,left,aqua,pleasantness,conservative,no,2,1,1.03335491421,-,-
2019_Oct_25,21,001,2,source,39,ERODE,LF,target,left,aqua,pleasantness,liberal,no,8,0,1.10020038684,-,-
2019_Oct_25,21,001,2,source,40,SPUDS,LF,target,left,aqua,pleasantness,liberal,no,8,0,1.36690992197,-,-
2019_Oct_25,21,001,2,source,41,POWER,HF,target,left,aqua,pleasantness,liberal,yes,8,0,0.533627669075,-,-
2019_Oct_25,21,001,2,source,42,TIDILY,LF,target,right,yellow,imageability,liberal,no,2,0,0.933567692332,-,-
2019_Oct_25,21,001,2,source,43,LUCERNE,LF,target,left,aqua,pleasantness,liberal,no,3,1,2.36693155173,-,-
2019_Oct_25,21,001,2,source,44,SIMILAR,HF,target,right,yellow,imageability,liberal,no,2,0,1.68332573237,-,-
2019_Oct_25,21,001,2,source,45,OVENS,LF,target,right,yellow,imageability,conservative,yes,2,0,0.533553981268,-,-
2019_Oct_25,21,001,2,source,46,FRONT,HF,target,left,aqua,pleasantness,conservative,no,1,1,1.9669446029,-,-
2019_Oct_25,21,001,2,source,47,TINGLING,LF,target,right,yellow,imageability,conservative,no,7,1,1.50000403267,-,-
2019_Oct_25,21,001,2,recog,0,ICILY,LF,lure,-,-,-,conservative,no,m,1,4.18334882855,3,291
2019_Oct_25,21,001,2,recog,1,FUDGE,LF,target,right,yellow,imageability,liberal,no,z,1,1.10017655745,3,294
2019_Oct_25,21,001,2,recog,2,WATCH,HF,lure,-,-,-,liberal,no,m,1,1.70025449789,1,295
2019_Oct_25,21,001,2,recog,3,RECENT,HF,target,right,yellow,imageability,liberal,no,z,1,0.966856984065,3,298
2019_Oct_25,21,001,2,recog,4,GLEANED,LF,lure,-,-,-,conservative,no,m,1,1.30021329137,3,301
2019_Oct_25,21,001,2,recog,5,WHETHER,HF,lure,-,-,-,conservative,no,m,1,0.7502808202,3,304
2019_Oct_25,21,001,2,recog,6,SPLASHES,LF,target,right,yellow,imageability,liberal,no,z,1,0.766941230124,3,307
2019_Oct_25,21,001,2,recog,7,SUSPEND,LF,target,left,aqua,pleasantness,conservative,no,z,1,1.30021365798,1,308
2019_Oct_25,21,001,2,recog,8,INCLUDING,HF,lure,-,-,-,liberal,no,m,1,0.950009605077,1,309
2019_Oct_25,21,001,2,recog,9,ANYONE,HF,lure,-,-,-,liberal,no,m,1,1.43359408797,1,310
2019_Oct_25,21,001,2,recog,10,UNKEMPT,LF,target,left,aqua,pleasantness,conservative,no,z,1,1.55016233314,1,311
2019_Oct_25,21,001,2,recog,11,SPOKE,HF,target,right,yellow,imageability,liberal,no,z,1,0.833580303579,3,314
2019_Oct_25,21,001,2,recog,12,LOLLED,LF,target,right,yellow,imageability,liberal,no,z,1,0.716900610179,3,317
2019_Oct_25,21,001,2,recog,13,CHURCH,HF,lure,-,-,-,conservative,no,m,1,0.700238367225,3,320
2019_Oct_25,21,001,2,recog,14,REACHED,HF,target,left,aqua,pleasantness,liberal,no,z,1,0.816918060625,3,323
2019_Oct_25,21,001,2,recog,15,STICKER,LF,target,left,aqua,pleasantness,conservative,no,z,1,0.66686585593,1,324
2019_Oct_25,21,001,2,recog,16,KNOWLEDGE,HF,target,left,aqua,pleasantness,conservative,no,z,1,0.783576344234,1,325
2019_Oct_25,21,001,2,recog,17,WEAKENS,LF,target,right,yellow,imageability,conservative,no,z,1,0.766864609469,1,326
2019_Oct_25,21,001,2,recog,18,SIMILAR,HF,target,right,yellow,imageability,liberal,no,z,1,0.650200680127,3,329
2019_Oct_25,21,001,2,recog,19,TRUTH,HF,target,left,aqua,pleasantness,liberal,no,z,1,0.716875680971,3,332
2019_Oct_25,21,001,2,recog,20,SWOOPING,LF,lure,-,-,-,liberal,no,m,1,1.25016827216,1,333
2019_Oct_25,21,001,2,recog,21,TABLE,HF,lure,-,-,-,liberal,no,m,1,1.4834997969,1,334
2019_Oct_25,21,001,2,recog,22,TEACUP,LF,lure,-,-,-,liberal,no,m,1,0.700207938926,1,335
2019_Oct_25,21,001,2,recog,23,LOUDEST,LF,lure,-,-,-,conservative,no,m,1,1.63350910869,3,338
2019_Oct_25,21,001,2,recog,24,NIPPED,LF,lure,-,-,-,conservative,no,m,1,0.833606332605,3,341
2019_Oct_25,21,001,2,recog,25,OVENS,LF,target,right,yellow,imageability,conservative,no,z,1,0.783558013934,1,342
2019_Oct_25,21,001,2,recog,26,TWAIN,LF,lure,-,-,-,liberal,no,m,1,0.66687135502,1,343
2019_Oct_25,21,001,2,recog,27,LUGGED,LF,target,left,aqua,pleasantness,liberal,no,z,1,0.550273048153,3,346
2019_Oct_25,21,001,2,recog,28,TIDILY,LF,target,right,yellow,imageability,liberal,no,z,1,0.650240640182,3,349
2019_Oct_25,21,001,2,recog,29,VAULTED,LF,target,right,yellow,imageability,liberal,no,z,1,0.766805219296,3,352
2019_Oct_25,21,001,2,recog,30,SMIRK,LF,target,left,aqua,pleasantness,conservative,no,z,1,0.683540196882,1,353
2019_Oct_25,21,001,2,recog,31,FIELD,HF,lure,-,-,-,conservative,no,m,1,0.733531691623,3,356
2019_Oct_25,21,001,2,recog,32,EIGHT,HF,lure,-,-,-,conservative,no,m,1,0.716892178241,3,359
2019_Oct_25,21,001,2,recog,33,EFFECT,HF,lure,-,-,-,liberal,no,z,0,0.833326245617,-1,358
2019_Oct_25,21,001,2,recog,34,SITTING,HF,lure,-,-,-,liberal,no,z,0,2.06685903706,-1,357
2019_Oct_25,21,001,2,recog,35,BREAK,HF,lure,-,-,-,liberal,no,m,1,0.866879493673,1,358
2019_Oct_25,21,001,2,recog,36,INSIDE,HF,lure,-,-,-,conservative,no,m,1,0.96686101673,3,361
2019_Oct_25,21,001,2,recog,37,POWER,HF,target,left,aqua,pleasantness,liberal,yes,m,0,0.900251271756,-3,358
2019_Oct_25,21,001,2,recog,38,ZOOLOGY,LF,lure,-,-,-,liberal,no,m,1,1.36682890204,1,359
2019_Oct_25,21,001,2,recog,39,WICKEDLY,LF,lure,-,-,-,liberal,no,m,1,1.13365538449,1,360
2019_Oct_25,21,001,2,recog,40,RUFFLES,LF,lure,-,-,-,conservative,no,m,1,1.36672515254,3,363
2019_Oct_25,21,001,2,recog,41,MOTHER,HF,target,left,aqua,pleasantness,conservative,no,z,1,0.683419950112,1,364
2019_Oct_25,21,001,2,recog,42,SINCE,HF,lure,-,-,-,conservative,no,m,1,1.51677662403,3,367
2019_Oct_25,21,001,2,recog,43,BLUECOATS,LF,target,right,yellow,imageability,conservative,no,z,1,0.71685185158,1,368
2019_Oct_25,21,001,2,recog,44,TOKENS,LF,lure,-,-,-,liberal,no,z,0,1.46684268643,-1,367
2019_Oct_25,21,001,2,recog,45,THEORY,HF,lure,-,-,-,liberal,no,m,1,1.13350104336,1,368
2019_Oct_25,21,001,2,recog,46,SPUDS,LF,target,left,aqua,pleasantness,liberal,no,z,1,2.78348029346,3,371
2019_Oct_25,21,001,2,recog,47,SMALL,HF,lure,-,-,-,liberal,no,m,1,1.05018579592,1,372
2019_Oct_25,21,001,2,recog,48,RANGE,HF,target,right,yellow,imageability,conservative,no,z,1,1.53359907381,1,373
2019_Oct_25,21,001,2,recog,49,LOCAL,HF,lure,-,-,-,conservative,no,z,0,2.38346584918,-3,370
2019_Oct_25,21,001,2,recog,50,PROBABLY,HF,target,right,yellow,imageability,liberal,yes,z,1,0.866874361189,3,373
2019_Oct_25,21,001,2,recog,51,HUSBAND,HF,target,left,aqua,pleasantness,liberal,no,z,1,1.61665146474,3,376
2019_Oct_25,21,001,2,recog,52,UTTERANCE,LF,lure,-,-,-,conservative,no,z,0,1.21684488607,-3,373
2019_Oct_25,21,001,2,recog,53,DUPLICITY,LF,lure,-,-,-,liberal,no,m,1,1.51687084177,1,374
2019_Oct_25,21,001,2,recog,54,JACKALS,LF,lure,-,-,-,conservative,no,m,1,0.933620850203,3,377
2019_Oct_25,21,001,2,recog,55,MELODIC,LF,lure,-,-,-,liberal,no,m,1,0.750202733121,1,378
2019_Oct_25,21,001,2,recog,56,NEEDED,HF,lure,-,-,-,conservative,no,m,1,0.966904642845,3,381
2019_Oct_25,21,001,2,recog,57,APTLY,LF,target,left,aqua,pleasantness,liberal,no,z,1,0.850196354177,3,384
2019_Oct_25,21,001,2,recog,58,KIDNAP,LF,lure,-,-,-,liberal,no,m,1,1.05021329137,1,385
2019_Oct_25,21,001,2,recog,59,UNDER,HF,lure,-,-,-,conservative,no,m,1,0.966898410543,3,388
2019_Oct_25,21,001,2,recog,60,LABOUR,HF,target,left,aqua,pleasantness,conservative,no,z,1,0.916898483864,1,389
2019_Oct_25,21,001,2,recog,61,NEARLY,HF,lure,-,-,-,liberal,no,z,0,2.60015089503,-1,388
2019_Oct_25,21,001,2,recog,62,PINAFORE,LF,target,right,yellow,imageability,conservative,no,z,1,1.11688865882,1,389
2019_Oct_25,21,001,2,recog,63,DEBACLE,LF,target,right,yellow,imageability,conservative,no,z,1,1.00023572766,1,390
2019_Oct_25,21,001,2,recog,64,TREES,HF,lure,-,-,-,liberal,no,m,1,1.01686314305,1,391
2019_Oct_25,21,001,2,recog,65,LUCERNE,LF,target,left,aqua,pleasantness,liberal,no,z,1,1.00020199991,3,394
2019_Oct_25,21,001,2,recog,66,NUMBER,HF,target,right,yellow,imageability,liberal,no,z,1,1.23356358635,3,397
2019_Oct_25,21,001,2,recog,67,DULLED,LF,lure,-,-,-,conservative,no,m,1,1.66682369624,3,400
2019_Oct_25,21,001,2,recog,68,ANGERS,LF,lure,-,-,-,conservative,no,m,1,0.733641306819,3,403
2019_Oct_25,21,001,2,recog,69,FRONT,HF,target,left,aqua,pleasantness,conservative,yes,m,0,0.616804706048,-1,402
2019_Oct_25,21,001,2,recog,70,SYSTEM,HF,target,right,yellow,imageability,conservative,no,z,1,0.83363346145,1,403
2019_Oct_25,21,001,2,recog,71,ROYALS,LF,lure,-,-,-,conservative,no,m,1,1.61690185664,3,406
2019_Oct_25,21,001,2,recog,72,ERODE,LF,target,left,aqua,pleasantness,liberal,no,z,1,0.833533011404,3,409
2019_Oct_25,21,001,2,recog,73,DRINK,HF,target,left,aqua,pleasantness,conservative,no,z,1,1.16688271981,1,410
2019_Oct_25,21,001,2,recog,74,WINDOW,HF,lure,-,-,-,liberal,no,m,1,3.63342515592,1,411
2019_Oct_25,21,001,2,recog,75,LARGE,HF,target,right,yellow,imageability,conservative,no,z,1,1.10026857556,1,412
2019_Oct_25,21,001,2,recog,76,FIVER,LF,lure,-,-,-,liberal,no,m,1,1.10018462278,1,413
2019_Oct_25,21,001,2,recog,77,HILLSIDES,LF,lure,-,-,-,conservative,no,m,1,0.900236607516,3,416
2019_Oct_25,21,001,2,recog,78,HAGGLING,LF,target,right,yellow,imageability,liberal,no,z,1,1.05011650739,3,419
2019_Oct_25,21,001,2,recog,79,PATCHY,LF,target,left,aqua,pleasantness,conservative,no,z,1,2.16679473436,1,420
2019_Oct_25,21,001,2,recog,80,MEANS,HF,lure,-,-,-,conservative,no,m,1,0.966916374237,3,423
2019_Oct_25,21,001,2,recog,81,COFFINS,LF,lure,-,-,-,liberal,no,m,1,2.36681020514,1,424
2019_Oct_25,21,001,2,recog,82,HOWEVER,HF,lure,-,-,-,conservative,no,m,1,1.16688271981,3,427
2019_Oct_25,21,001,2,recog,83,PLACE,HF,lure,-,-,-,conservative,no,z,0,1.01692399964,-3,424
2019_Oct_25,21,001,2,recog,84,CUBED,LF,lure,-,-,-,conservative,no,m,1,1.13360076019,3,427
2019_Oct_25,21,001,2,recog,85,TURNED,HF,target,left,aqua,pleasantness,liberal,no,m,0,0.88356996529,-3,424
2019_Oct_25,21,001,2,recog,86,BASIC,HF,target,right,yellow,imageability,conservative,no,z,1,1.98350932866,1,425
2019_Oct_25,21,001,2,recog,87,SENSE,HF,target,left,aqua,pleasantness,liberal,no,m,0,2.63347758058,-3,422
2019_Oct_25,21,001,2,recog,88,TIMES,HF,target,right,yellow,imageability,conservative,no,z,1,1.13356336638,1,423
2019_Oct_25,21,001,2,recog,89,AVAILABLE,HF,target,right,yellow,imageability,conservative,no,z,1,1.3835402702,1,424
2019_Oct_25,21,001,2,recog,90,EVENING,HF,target,right,yellow,imageability,liberal,yes,z,1,0.833687719139,3,427
2019_Oct_25,21,001,2,recog,91,OTHERS,HF,target,left,aqua,pleasantness,conservative,no,z,1,0.950217104077,1,428
2019_Oct_25,21,001,2,recog,92,LAVISHED,LF,target,left,aqua,pleasantness,liberal,no,z,1,0.750243426388,3,431
2019_Oct_25,21,001,2,recog,93,TINGLING,LF,target,right,yellow,imageability,conservative,no,z,1,0.766894304556,1,432
2019_Oct_25,21,001,2,recog,94,WRANGLING,LF,target,left,aqua,pleasantness,conservative,no,z,1,0.649999046825,1,433
2019_Oct_25,21,001,2,recog,95,CREAK,LF,lure,-,-,-,liberal,no,m,1,0.666706748923,1,434
2019_Oct_25,21,001,3,source,0,OUTSIDE,HF,target,left,aqua,pleasantness,conservative,no,8,0,3.3831923611,-,-
2019_Oct_25,21,001,3,source,1,POACHED,LF,target,left,aqua,pleasantness,liberal,no,2,1,2.53359687417,-,-
2019_Oct_25,21,001,3,source,2,GYMKHANA,LF,target,left,aqua,pleasantness,liberal,no,2,1,1.03351585424,-,-
2019_Oct_25,21,001,3,source,3,INVOLVED,HF,target,right,yellow,imageability,liberal,no,8,1,1.93348227313,-,-
2019_Oct_25,21,001,3,source,4,SPACE,HF,target,right,yellow,imageability,conservative,no,8,1,1.01689943704,-,-
2019_Oct_25,21,001,3,source,5,RALLIED,LF,target,right,yellow,imageability,conservative,no,8,1,1.13355090178,-,-
2019_Oct_25,21,001,3,source,6,SOUND,HF,target,right,yellow,imageability,conservative,no,8,1,1.53329589064,-,-
2019_Oct_25,21,001,3,source,7,EATERS,LF,target,left,aqua,pleasantness,liberal,no,2,1,0.800226855796,-,-
2019_Oct_25,21,001,3,source,8,PARENTS,HF,target,left,aqua,pleasantness,liberal,yes,2,1,0.650246505878,-,-
2019_Oct_25,21,001,3,source,9,BORAX,LF,target,right,yellow,imageability,liberal,no,2,0,1.43349510434,-,-
2019_Oct_25,21,001,3,source,10,NOTHING,HF,target,right,yellow,imageability,conservative,no,8,1,1.20017787723,-,-
2019_Oct_25,21,001,3,source,11,STOOD,HF,target,left,aqua,pleasantness,liberal,no,2,1,1.43352076676,-,-
2019_Oct_25,21,001,3,source,12,FURTHER,HF,target,right,yellow,imageability,liberal,no,2,0,1.03355654751,-,-
2019_Oct_25,21,001,3,source,13,POUNDS,HF,target,right,yellow,imageability,liberal,no,8,1,0.916742309706,-,-
2019_Oct_25,21,001,3,source,14,DIABETIC,LF,target,right,yellow,imageability,conservative,no,8,1,2.26657719036,-,-
2019_Oct_25,21,001,3,source,15,ARCADES,LF,target,left,aqua,pleasantness,conservative,no,8,0,1.05001019165,-,-
2019_Oct_25,21,001,3,source,16,MYTHIC,LF,target,left,aqua,pleasantness,conservative,no,2,1,1.91664332608,-,-
2019_Oct_25,21,001,3,source,17,RIVER,HF,target,right,yellow,imageability,liberal,no,8,1,6.04998782868,-,-
2019_Oct_25,21,001,3,source,18,SPEAK,HF,target,right,yellow,imageability,liberal,no,8,1,1.03356314642,-,-
2019_Oct_25,21,001,3,source,19,DUSTER,LF,target,left,aqua,pleasantness,conservative,no,2,1,0.950189975232,-,-
2019_Oct_25,21,001,3,source,20,OPENED,HF,target,left,aqua,pleasantness,conservative,no,2,1,1.81660937837,-,-
2019_Oct_25,21,001,3,source,21,HESITATES,LF,target,right,yellow,imageability,liberal,no,8,1,2.36688865882,-,-
2019_Oct_25,21,001,3,source,22,WRONG,HF,target,right,yellow,imageability,conservative,no,2,0,1.74998606897,-,-
2019_Oct_25,21,001,3,source,23,TIGHTNESS,LF,target,left,aqua,pleasantness,liberal,yes,8,0,0.816860870088,-,-
2019_Oct_25,21,001,3,source,24,SPRATS,LF,target,right,yellow,imageability,conservative,no,8,1,0.900303329809,-,-
2019_Oct_25,21,001,3,source,25,TRIED,HF,target,left,aqua,pleasantness,conservative,no,8,0,1.70009942355,-,-
2019_Oct_25,21,001,3,source,26,PIGLETS,LF,target,right,yellow,imageability,liberal,no,8,1,0.850360593667,-,-
2019_Oct_25,21,001,3,source,27,ALLOWED,HF,target,right,yellow,imageability,conservative,no,2,0,1.20028162673,-,-
2019_Oct_25,21,001,3,source,28,CIRCUSES,LF,target,right,yellow,imageability,conservative,no,2,0,0.85018865545,-,-
2019_Oct_25,21,001,3,source,29,JOCKEYS,LF,target,left,aqua,pleasantness,conservative,no,2,1,2.16681416448,-,-
2019_Oct_25,21,001,3,source,30,DOLPHIN,LF,target,left,aqua,pleasantness,conservative,no,2,1,1.33339076827,-,-
2019_Oct_25,21,001,3,source,31,FATHER,HF,target,left,aqua,pleasantness,liberal,no,2,1,0.966873481334,-,-
2019_Oct_25,21,001,3,source,32,POINT,HF,target,right,yellow,imageability,liberal,no,8,1,0.950183009718,-,-
2019_Oct_25,21,001,3,source,33,PAINTWORK,LF,target,right,yellow,imageability,conservative,no,8,1,0.866675660734,-,-
2019_Oct_25,21,001,3,source,34,SERIOUS,HF,target,left,aqua,pleasantness,conservative,no,2,1,1.1835105018,-,-
2019_Oct_25,21,001,3,source,35,VICEREGAL,LF,target,right,yellow,imageability,liberal,no,2,0,1.0501901952,-,-
2019_Oct_25,21,001,3,source,36,CANNOT,HF,target,left,aqua,pleasantness,liberal,no,2,1,0.783557280722,-,-
2019_Oct_25,21,001,3,source,37,CAVERN,LF,target,right,yellow,imageability,liberal,no,2,0,0.833364372641,-,-
2019_Oct_25,21,001,3,source,38,ABETTED,LF,target,right,yellow,imageability,conservative,no,2,0,0.766907135766,-,-
2019_Oct_25,21,001,3,source,39,HERSELF,HF,target,left,aqua,pleasantness,liberal,no,2,1,1.00002786206,-,-
2019_Oct_25,21,001,3,source,40,EDICT,LF,target,left,aqua,pleasantness,liberal,no,2,1,2.4001255259,-,-
2019_Oct_25,21,001,3,source,41,INNATELY,LF,target,left,aqua,pleasantness,conservative,yes,8,0,0.899976683858,-,-
2019_Oct_25,21,001,3,source,42,PEDALLING,LF,target,right,yellow,imageability,liberal,yes,8,1,0.483589981978,-,-
2019_Oct_25,21,001,3,source,43,UNLESS,HF,target,right,yellow,imageability,conservative,no,2,0,1.23332529244,-,-
2019_Oct_25,21,001,3,source,44,BROUGHT,HF,target,left,aqua,pleasantness,conservative,no,2,1,0.800195694286,-,-
2019_Oct_25,21,001,3,source,45,ALERTING,LF,target,left,aqua,pleasantness,liberal,no,2,1,1.03350815552,-,-
2019_Oct_25,21,001,3,source,46,CLOSE,HF,target,left,aqua,pleasantness,liberal,no,2,1,1.63353660414,-,-
2019_Oct_25,21,001,3,source,47,FINAL,HF,target,left,aqua,pleasantness,conservative,no,2,1,0.950189975232,-,-
2019_Oct_25,21,001,3,recog,0,SLIGHTLY,HF,lure,-,-,-,conservative,no,m,1,2.86678784217,3,437
2019_Oct_25,21,001,3,recog,1,CHOICE,HF,lure,-,-,-,liberal,no,m,1,0.866861529979,1,438
2019_Oct_25,21,001,3,recog,2,CULINARY,LF,lure,-,-,-,conservative,no,m,1,1.28350852212,3,441
2019_Oct_25,21,001,3,recog,3,DITTO,LF,lure,-,-,-,liberal,no,m,1,0.783473327947,1,442
2019_Oct_25,21,001,3,recog,4,PIGLETS,LF,target,right,yellow,imageability,liberal,no,z,1,0.866901856639,3,445
2019_Oct_25,21,001,3,recog,5,VICEREGAL,LF,target,right,yellow,imageability,liberal,no,z,1,0.983605746036,3,448
2019_Oct_25,21,001,3,recog,6,INVOLVED,HF,target,right,yellow,imageability,liberal,no,z,1,1.01701491793,3,451
2019_Oct_25,21,001,3,recog,7,STYLED,LF,lure,-,-,-,conservative,no,m,1,1.28356241321,3,454
2019_Oct_25,21,001,3,recog,8,INNATELY,LF,target,left,aqua,pleasantness,conservative,yes,z,1,1.20021637086,1,455
2019_Oct_25,21,001,3,recog,9,RIVER,HF,target,right,yellow,imageability,liberal,no,z,1,2.15016401953,3,458
2019_Oct_25,21,001,3,recog,10,FINAL,HF,target,left,aqua,pleasantness,conservative,no,z,1,0.73337405104,1,459
2019_Oct_25,21,001,3,recog,11,AREAS,HF,lure,-,-,-,liberal,no,m,1,1.33359790067,1,460
2019_Oct_25,21,001,3,recog,12,SHALL,HF,lure,-,-,-,liberal,no,m,1,0.783624736227,1,461
2019_Oct_25,21,001,3,recog,13,HESITATES,LF,target,right,yellow,imageability,liberal,no,z,1,0.850193054723,3,464
2019_Oct_25,21,001,3,recog,14,TAPER,LF,lure,-,-,-,conservative,no,m,1,1.10024364635,3,467
2019_Oct_25,21,001,3,recog,15,OLDER,HF,lure,-,-,-,conservative,no,m,1,1.0502701153,3,470
2019_Oct_25,21,001,3,recog,16,INDEED,HF,lure,-,-,-,conservative,no,m,1,0.733528758775,3,473
2019_Oct_25,21,001,3,recog,17,YANKED,LF,lure,-,-,-,liberal,no,z,0,0.63362495619,-1,472
2019_Oct_25,21,001,3,recog,18,HALLMARK,LF,lure,-,-,-,liberal,no,m,1,1.15017355128,1,473
2019_Oct_25,21,001,3,recog,19,TIERS,LF,lure,-,-,-,conservative,no,z,0,0.800031821401,-3,470
2019_Oct_25,21,001,3,recog,20,DUSTER,LF,target,left,aqua,pleasantness,conservative,no,z,1,1.0500072588,1,471
2019_Oct_25,21,001,3,recog,21,CIRCUSES,LF,target,right,yellow,imageability,conservative,no,z,1,0.583578103943,1,472
2019_Oct_25,21,001,3,recog,22,ABETTED,LF,target,right,yellow,imageability,conservative,no,m,0,1.15001481088,-1,471
2019_Oct_25,21,001,3,recog,23,PAPER,HF,lure,-,-,-,liberal,no,m,1,0.950197307352,1,472
2019_Oct_25,21,001,3,recog,24,SHIELDING,LF,lure,-,-,-,conservative,no,m,1,1.28354884878,3,475
2019_Oct_25,21,001,3,recog,25,EATERS,LF,target,left,aqua,pleasantness,liberal,no,z,1,0.850241080109,3,478
2019_Oct_25,21,001,3,recog,26,RESEARCH,HF,lure,-,-,-,liberal,no,m,1,0.816898997112,1,479
2019_Oct_25,21,001,3,recog,27,AMONG,HF,lure,-,-,-,liberal,no,m,1,0.550281480091,1,480
2019_Oct_25,21,001,3,recog,28,OPENED,HF,target,left,aqua,pleasantness,conservative,no,z,1,0.783369945053,1,481
2019_Oct_25,21,001,3,recog,29,WHOLE,HF,lure,-,-,-,conservative,no,m,1,1.3501670257,3,484
2019_Oct_25,21,001,3,recog,30,EXPECT,HF,lure,-,-,-,conservative,no,m,1,0.950191808262,3,487
2019_Oct_25,21,001,3,recog,31,BROUGHT,HF,target,left,aqua,pleasantness,conservative,no,z,1,0.716868715457,1,488
2019_Oct_25,21,001,3,recog,32,CAVERN,LF,target,right,yellow,imageability,liberal,no,z,1,0.66691168168,3,491
2019_Oct_25,21,001,3,recog,33,EDICT,LF,target,left,aqua,pleasantness,liberal,no,m,0,2.01683161493,-3,488
2019_Oct_25,21,001,3,recog,34,FATHER,HF,target,left,aqua,pleasantness,liberal,no,z,1,1.60011276801,3,491
2019_Oct_25,21,001,3,recog,35,REPORT,HF,lure,-,-,-,conservative,no,m,1,0.866903689669,3,494
2019_Oct_25,21,001,3,recog,36,PARENTS,HF,target,left,aqua,pleasantness,liberal,no,z,1,0.750016863876,3,497
2019_Oct_25,21,001,3,recog,37,POSITION,HF,lure,-,-,-,liberal,no,m,1,1.81680147992,1,498
2019_Oct_25,21,001,3,recog,38,FOLLOWED,HF,lure,-,-,-,liberal,no,m,1,0.833530445163,1,499
2019_Oct_25,21,001,3,recog,39,MEETING,HF,lure,-,-,-,liberal,no,m,1,0.800224289554,1,500
2019_Oct_25,21,001,3,recog,40,SKYLIGHT,LF,lure,-,-,-,conservative,yes,z,0,0.866851998223,-3,497
2019_Oct_25,21,001,3,recog,41,SPRATS,LF,target,right,yellow,imageability,conservative,no,z,1,1.33359020194,1,498
2019_Oct_25,21,001,3,recog,42,GASEOUS,LF,lure,-,-,-,liberal,yes,z,0,0.916856324174,-1,497
2019_Oct_25,21,001,3,recog,43,BULBOUS,LF,lure,-,-,-,conservative,no,z,0,1.61684833216,-3,494
2019_Oct_25,21,001,3,recog,44,OBVIOUSLY,HF,lure,-,-,-,conservative,no,m,1,1.05023052186,3,497
2019_Oct_25,21,001,3,recog,45,UGLIEST,LF,lure,-,-,-,conservative,no,m,1,0.800031821401,3,500
2019_Oct_25,21,001,3,recog,46,UNLESS,HF,target,right,yellow,imageability,conservative,no,m,0,0.966927372418,-1,499
2019_Oct_25,21,001,3,recog,47,DIABETIC,LF,target,right,yellow,imageability,conservative,no,z,1,0.783600906837,1,500
2019_Oct_25,21,001,3,recog,48,STOOD,HF,target,left,aqua,pleasantness,liberal,no,z,1,1.06667133478,3,503
2019_Oct_25,21,001,3,recog,49,TIGHTNESS,LF,target,left,aqua,pleasantness,liberal,no,z,1,0.700267695705,3,506
2019_Oct_25,21,001,3,recog,50,UPROOTED,LF,lure,-,-,-,liberal,no,m,1,0.850192688117,1,507
2019_Oct_25,21,001,3,recog,51,ACCORDING,HF,lure,-,-,-,liberal,no,m,1,1.2002735614,1,508
2019_Oct_25,21,001,3,recog,52,IRONICAL,LF,lure,-,-,-,liberal,no,m,1,1.1170217368,1,509
2019_Oct_25,21,001,3,recog,53,LEECH,LF,lure,-,-,-,liberal,no,m,1,0.733533158047,1,510
2019_Oct_25,21,001,3,recog,54,SERIOUS,HF,target,left,aqua,pleasantness,conservative,no,z,1,0.683580890149,1,511
2019_Oct_25,21,001,3,recog,55,BORAX,LF,target,right,yellow,imageability,liberal,no,z,1,0.800192394832,3,514
2019_Oct_25,21,001,3,recog,56,POUNDS,HF,target,right,yellow,imageability,liberal,no,z,1,0.683591888329,3,517
2019_Oct_25,21,001,3,recog,57,ALLOWED,HF,target,right,yellow,imageability,conservative,no,m,0,1.28355654751,-1,516
2019_Oct_25,21,001,3,recog,58,CIVILITY,LF,lure,-,-,-,liberal,no,m,1,0.866972978205,1,517
2019_Oct_25,21,001,3,recog,59,GYMKHANA,LF,target,left,aqua,pleasantness,liberal,no,z,1,0.700295557761,3,520
2019_Oct_25,21,001,3,recog,60,ENOUGH,HF,lure,-,-,-,liberal,no,z,0,0.983567619011,-1,519
2019_Oct_25,21,001,3,recog,61,SOUND,HF,target,right,yellow,imageability,conservative,no,z,1,1.33349928365,1,520
2019_Oct_25,21,001,3,recog,62,CLOSE,HF,target,left,aqua,pleasantness,liberal,no,z,1,1.06684987191,3,523
2019_Oct_25,21,001,3,recog,63,PEDALLING,LF,target,right,yellow,imageability,liberal,no,m,0,1.20022003692,-3,520
2019_Oct_25,21,001,3,recog,64,ETHER,LF,lure,-,-,-,conservative,no,m,1,2.55020009356,3,523
2019_Oct_25,21,001,3,recog,65,GROUND,HF,lure,-,-,-,conservative,no,m,1,1.35025501114,3,526
2019_Oct_25,21,001,3,recog,66,CANNOT,HF,target,left,aqua,pleasantness,liberal,no,z,1,0.933547162396,3,529
2019_Oct_25,21,001,3,recog,67,OFFER,HF,lure,-,-,-,conservative,no,m,1,1.00023279481,3,532
2019_Oct_25,21,001,3,recog,68,DOLPHIN,LF,target,left,aqua,pleasantness,conservative,no,z,1,0.750370638672,1,533
2019_Oct_25,21,001,3,recog,69,NOTHING,HF,target,right,yellow,imageability,conservative,no,z,1,3.46672610572,1,534
2019_Oct_25,21,001,3,recog,70,PAINTWORK,LF,target,right,yellow,imageability,conservative,no,z,1,1.28360017363,1,535
2019_Oct_25,21,001,3,recog,71,TRIED,HF,target,left,aqua,pleasantness,conservative,no,m,0,3.0499705982,-1,534
2019_Oct_25,21,001,3,recog,72,PIECE,HF,lure,-,-,-,liberal,no,m,1,1.18347677404,1,535
2019_Oct_25,21,001,3,recog,73,FAKING,LF,lure,-,-,-,conservative,no,m,1,0.666873554656,3,538
2019_Oct_25,21,001,3,recog,74,POINT,HF,target,right,yellow,imageability,liberal,no,z,1,0.750193201365,3,541
2019_Oct_25,21,001,3,recog,75,ALERTING,LF,target,left,aqua,pleasantness,liberal,no,z,1,0.833362173006,3,544
2019_Oct_25,21,001,3,recog,76,ANOINTED,LF,lure,-,-,-,liberal,no,m,1,2.95014708233,1,545
2019_Oct_25,21,001,3,recog,77,SPEAK,HF,target,right,yellow,imageability,liberal,no,z,1,0.750201999909,3,548
2019_Oct_25,21,001,3,recog,78,WRONG,HF,target,right,yellow,imageability,conservative,no,z,1,1.08355977364,1,549
2019_Oct_25,21,001,3,recog,79,RALLIED,LF,target,right,yellow,imageability,conservative,no,z,1,0.650320926898,1,550
2019_Oct_25,21,001,3,recog,80,LULLED,LF,lure,-,-,-,conservative,no,z,0,1.61687179495,-3,547
2019_Oct_25,21,001,3,recog,81,SPACE,HF,target,right,yellow,imageability,conservative,no,z,1,1.05023382131,1,548
2019_Oct_25,21,001,3,recog,82,MAJOR,HF,lure,-,-,-,conservative,no,z,0,1.05023015525,-3,545
2019_Oct_25,21,001,3,recog,83,FURTHER,HF,target,right,yellow,imageability,liberal,no,m,0,1.03356534605,-3,542
2019_Oct_25,21,001,3,recog,84,POACHED,LF,target,left,aqua,pleasantness,liberal,no,z,1,0.93353396458,3,545
2019_Oct_25,21,001,3,recog,85,FAMILY,HF,lure,-,-,-,conservative,no,m,1,1.5003050162,3,548
2019_Oct_25,21,001,3,recog,86,OCCUPANCY,LF,lure,-,-,-,liberal,no,m,1,0.766972025029,1,549
2019_Oct_25,21,001,3,recog,87,DOSSIERS,LF,lure,-,-,-,liberal,no,z,0,0.81700018037,-1,548
2019_Oct_25,21,001,3,recog,88,JOCKEYS,LF,target,left,aqua,pleasantness,conservative,no,z,1,0.766976424301,1,549
2019_Oct_25,21,001,3,recog,89,HAPPEN,HF,lure,-,-,-,conservative,no,m,1,0.81699284825,3,552
2019_Oct_25,21,001,3,recog,90,RADIAL,LF,lure,-,-,-,liberal,yes,m,1,0.966862849761,1,553
2019_Oct_25,21,001,3,recog,91,ARCADES,LF,target,left,aqua,pleasantness,conservative,no,z,1,0.700299223822,1,554
2019_Oct_25,21,001,3,recog,92,HERSELF,HF,target,left,aqua,pleasantness,liberal,no,z,1,0.666959707067,3,557
2019_Oct_25,21,001,3,recog,93,OUTSIDE,HF,target,left,aqua,pleasantness,conservative,no,z,1,2.23344737224,1,558
2019_Oct_25,21,001,3,recog,94,USHERS,LF,lure,-,-,-,conservative,no,m,1,0.833567472369,3,561
2019_Oct_25,21,001,3,recog,95,MYTHIC,LF,target,left,aqua,pleasantness,conservative,no,z,1,0.616897823973,1,562
2019_Oct_25,21,001,4,source,0,WEEKS,HF,target,right,yellow,imageability,liberal,no,9,1,3.96650027642,-,-
2019_Oct_25,21,001,4,source,1,ELECTING,LF,target,right,yellow,imageability,liberal,no,3,0,4.98335902019,-,-
2019_Oct_25,21,001,4,source,2,SUGARY,LF,target,left,aqua,pleasantness,conservative,no,1,1,1.31683924033,-,-
2019_Oct_25,21,001,4,source,3,MARKET,HF,target,right,yellow,imageability,conservative,no,7,1,1.00026725578,-,-
2019_Oct_25,21,001,4,source,4,SLEEP,HF,target,left,aqua,pleasantness,liberal,no,1,1,1.93354496276,-,-
2019_Oct_25,21,001,4,source,5,RUNNING,HF,target,right,yellow,imageability,conservative,no,9,1,1.36670792206,-,-
2019_Oct_25,21,001,4,source,6,FENCED,LF,target,right,yellow,imageability,conservative,no,9,1,0.700249365405,-,-
2019_Oct_25,21,001,4,source,7,SUCCESS,HF,target,left,aqua,pleasantness,liberal,no,1,1,1.33350148329,-,-
2019_Oct_25,21,001,4,source,8,BOWER,LF,target,right,yellow,imageability,liberal,no,1,0,1.28355544769,-,-
2019_Oct_25,21,001,4,source,9,CAPITAL,HF,target,left,aqua,pleasantness,conservative,no,1,1,1.81681027846,-,-
2019_Oct_25,21,001,4,source,10,DERANGED,LF,target,right,yellow,imageability,liberal,no,9,1,0.966741136566,-,-
2019_Oct_25,21,001,4,source,11,BENIGNLY,LF,target,right,yellow,imageability,conservative,no,2,0,3.70003600071,-,-
2019_Oct_25,21,001,4,source,12,BAOBAB,LF,target,left,aqua,pleasantness,conservative,no,2,1,0.866720020061,-,-
2019_Oct_25,21,001,4,source,13,PLEASE,HF,target,right,yellow,imageability,conservative,no,8,1,1.80018872877,-,-
2019_Oct_25,21,001,4,source,14,NUCLEAR,HF,target,left,aqua,pleasantness,liberal,yes,8,0,0.733371851404,-,-
2019_Oct_25,21,001,4,source,15,SEVEN,HF,target,left,aqua,pleasantness,conservative,no,8,0,4.00004435933,-,-
2019_Oct_25,21,001,4,source,16,HAMLETS,LF,target,right,yellow,imageability,conservative,no,8,1,0.833695417864,-,-
2019_Oct_25,21,001,4,source,17,WAFER,LF,target,left,aqua,pleasantness,conservative,yes,8,0,0.616870695129,-,-
2019_Oct_25,21,001,4,source,18,SKATES,LF,target,left,aqua,pleasantness,liberal,no,8,0,0.600212118235,-,-
2019_Oct_25,21,001,4,source,19,SOFTENING,LF,target,right,yellow,imageability,liberal,no,8,1,3.64989053145,-,-
2019_Oct_25,21,001,4,source,20,HIMSELF,HF,target,right,yellow,imageability,conservative,no,8,1,0.900271435087,-,-
2019_Oct_25,21,001,4,source,21,DOUBT,HF,target,right,yellow,imageability,conservative,no,2,0,4.01688843886,-,-
2019_Oct_25,21,001,4,source,22,SHORT,HF,target,right,yellow,imageability,liberal,no,8,1,0.883575097774,-,-
2019_Oct_25,21,001,4,source,23,AWAITS,LF,target,right,yellow,imageability,conservative,no,8,1,1.45016724566,-,-
2019_Oct_25,21,001,4,source,24,INLAID,LF,target,left,aqua,pleasantness,conservative,no,2,1,1.06687663415,-,-
2019_Oct_25,21,001,4,source,25,QUESTION,HF,target,right,yellow,imageability,liberal,no,8,1,0.983554787801,-,-
2019_Oct_25,21,001,4,source,26,EVIDENCE,HF,target,right,yellow,imageability,liberal,no,8,1,1.93349547095,-,-
2019_Oct_25,21,001,4,source,27,MOUTH,HF,target,right,yellow,imageability,liberal,yes,8,1,0.85025391132,-,-
2019_Oct_25,21,001,4,source,28,COVER,HF,target,left,aqua,pleasantness,liberal,no,2,1,1.23357055186,-,-
2019_Oct_25,21,001,4,source,29,SUMMER,HF,target,left,aqua,pleasantness,liberal,no,2,1,0.633344869202,-,-
2019_Oct_25,21,001,4,source,30,SURER,LF,target,left,aqua,pleasantness,conservative,no,2,1,1.48358924877,-,-
2019_Oct_25,21,001,4,source,31,MINISTER,HF,target,left,aqua,pleasantness,conservative,no,3,1,1.60021945035,-,-
2019_Oct_25,21,001,4,source,32,WIPERS,LF,target,right,yellow,imageability,conservative,no,8,1,2.26679202148,-,-
2019_Oct_25,21,001,4,source,33,FEUDALISM,LF,target,left,aqua,pleasantness,conservative,no,8,0,2.45012032009,-,-
2019_Oct_25,21,001,4,source,34,WITHIN,HF,target,left,aqua,pleasantness,conservative,no,8,0,0.800196794104,-,-
2019_Oct_25,21,001,4,source,35,HASSLE,LF,target,right,yellow,imageability,liberal,yes,8,1,0.733533158047,-,-
2019_Oct_25,21,001,4,source,36,QUALITY,HF,target,left,aqua,pleasantness,conservative,no,2,1,0.833568938793,-,-
2019_Oct_25,21,001,4,source,37,HIVES,LF,target,left,aqua,pleasantness,liberal,no,2,1,0.750039960055,-,-
2019_Oct_25,21,001,4,source,38,CHIEF,HF,target,left,aqua,pleasantness,conservative,no,2,1,1.11695574772,-,-
2019_Oct_25,21,001,4,source,39,UNHEEDED,LF,target,right,yellow,imageability,conservative,no,8,1,0.766861676621,-,-
2019_Oct_25,21,001,4,source,40,VIBRATE,LF,target,left,aqua,pleasantness,liberal,no,2,1,0.96694276987,-,-
2019_Oct_25,21,001,4,source,41,MOMENT,HF,target,right,yellow,imageability,conservative,no,8,1,1.51687780729,-,-
2019_Oct_25,21,001,4,source,42,YEOMAN,LF,target,left,aqua,pleasantness,liberal,no,2,1,0.900292331629,-,-
2019_Oct_25,21,001,4,source,43,NOURISH,LF,target,left,aqua,pleasantness,liberal,no,2,1,0.916861090051,-,-
2019_Oct_25,21,001,4,source,44,TRYING,HF,target,right,yellow,imageability,liberal,no,8,1,2.4167844694,-,-
2019_Oct_25,21,001,4,source,45,EMIGRATED,LF,target,right,yellow,imageability,liberal,no,8,1,0.800249218762,-,-
2019_Oct_25,21,001,4,source,46,SUBJECT,HF,target,left,aqua,pleasantness,liberal,no,2,1,1.08355794061,-,-
2019_Oct_25,21,001,4,source,47,PADDLE,LF,target,left,aqua,pleasantness,liberal,no,8,0,1.08353557765,-,-
2019_Oct_25,21,001,4,recog,0,DERANGED,LF,target,right,yellow,imageability,liberal,no,m,0,2.08346335626,-3,559
2019_Oct_25,21,001,4,recog,1,DOUBT,HF,target,right,yellow,imageability,conservative,no,z,1,1.25026652257,1,560
2019_Oct_25,21,001,4,recog,2,STAFF,HF,lure,-,-,-,conservative,no,m,1,0.950205739291,3,563
2019_Oct_25,21,001,4,recog,3,CHIEF,HF,target,left,aqua,pleasantness,conservative,yes,m,0,1.08357443788,-1,562
2019_Oct_25,21,001,4,recog,4,FIGURE,HF,lure,-,-,-,conservative,no,m,1,1.48353719071,3,565
2019_Oct_25,21,001,4,recog,5,WITHIN,HF,target,left,aqua,pleasantness,conservative,no,z,1,0.866871794947,1,566
2019_Oct_25,21,001,4,recog,6,PIZZA,LF,lure,-,-,-,conservative,no,m,1,0.617019537167,3,569
2019_Oct_25,21,001,4,recog,7,GOBBLE,LF,lure,-,-,-,liberal,no,m,1,0.750280086988,1,570
2019_Oct_25,21,001,4,recog,8,PHYSICAL,HF,lure,-,-,-,conservative,no,m,1,0.816940790197,3,573
2019_Oct_25,21,001,4,recog,9,QUALITY,HF,target,left,aqua,pleasantness,conservative,no,z,1,0.683584556209,1,574
2019_Oct_25,21,001,4,recog,10,HOSPITAL,HF,lure,-,-,-,liberal,no,m,1,1.00032737916,1,575
2019_Oct_25,21,001,4,recog,11,SOFTENING,LF,target,right,yellow,imageability,liberal,no,z,1,0.616877660643,3,578
2019_Oct_25,21,001,4,recog,12,RENAMED,LF,lure,-,-,-,conservative,no,m,1,0.983330791532,3,581
2019_Oct_25,21,001,4,recog,13,BOWER,LF,target,right,yellow,imageability,liberal,no,z,1,0.633533671295,3,584
2019_Oct_25,21,001,4,recog,14,SIESTA,LF,lure,-,-,-,liberal,no,m,1,0.700067895432,1,585
2019_Oct_25,21,001,4,recog,15,HOTEL,HF,lure,-,-,-,conservative,no,m,1,0.716884479515,3,588
2019_Oct_25,21,001,4,recog,16,HIVES,LF,target,left,aqua,pleasantness,liberal,no,z,1,0.700247165769,3,591
2019_Oct_25,21,001,4,recog,17,FABLE,LF,lure,-,-,-,conservative,no,m,1,1.11685309804,3,594
2019_Oct_25,21,001,4,recog,18,IDEAS,HF,lure,-,-,-,conservative,no,m,1,0.583598633879,3,597
2019_Oct_25,21,001,4,recog,19,WEEKS,HF,target,right,yellow,imageability,liberal,no,z,1,0.916880886776,3,600
2019_Oct_25,21,001,4,recog,20,SUCCESS,HF,target,left,aqua,pleasantness,liberal,no,z,1,0.750261756688,3,603
2019_Oct_25,21,001,4,recog,21,SAYING,HF,lure,-,-,-,liberal,no,m,1,1.08335667392,1,604
2019_Oct_25,21,001,4,recog,22,CELLO,LF,lure,-,-,-,liberal,no,m,1,0.600229348717,1,605
2019_Oct_25,21,001,4,recog,23,BAOBAB,LF,target,left,aqua,pleasantness,conservative,no,z,1,0.616949148814,1,606
2019_Oct_25,21,001,4,recog,24,HIMSELF,HF,target,right,yellow,imageability,conservative,no,z,1,0.81685977027,1,607
2019_Oct_25,21,001,4,recog,25,MINISTER,HF,target,left,aqua,pleasantness,conservative,yes,z,1,1.00027128844,1,608
2019_Oct_25,21,001,4,recog,26,MATERIAL,HF,lure,-,-,-,liberal,yes,m,1,0.850219816961,1,609
2019_Oct_25,21,001,4,recog,27,TALKING,HF,lure,-,-,-,conservative,no,m,1,4.03336004669,3,612
2019_Oct_25,21,001,4,recog,28,CAPITAL,HF,target,left,aqua,pleasantness,conservative,no,z,1,0.900240273576,1,613
2019_Oct_25,21,001,4,recog,29,MARKET,HF,target,right,yellow,imageability,conservative,no,z,1,0.583552441523,1,614
2019_Oct_25,21,001,4,recog,30,NORTH,HF,lure,-,-,-,conservative,no,z,0,0.783608972169,-3,611
2019_Oct_25,21,001,4,recog,31,BENIGNLY,LF,target,right,yellow,imageability,conservative,no,z,1,0.866906622517,1,612
2019_Oct_25,21,001,4,recog,32,RUNNING,HF,target,right,yellow,imageability,conservative,yes,m,0,0.650199946916,-1,611
2019_Oct_25,21,001,4,recog,33,INLAID,LF,target,left,aqua,pleasantness,conservative,no,z,1,1.00018110337,1,612
2019_Oct_25,21,001,4,recog,34,SHORT,HF,target,right,yellow,imageability,liberal,no,z,1,0.650263369754,3,615
2019_Oct_25,21,001,4,recog,35,GLASS,HF,lure,-,-,-,conservative,no,m,1,0.750296584259,3,618
2019_Oct_25,21,001,4,recog,36,YEOMAN,LF,target,left,aqua,pleasantness,liberal,no,z,1,0.566868568814,3,621
2019_Oct_25,21,001,4,recog,37,ORDER,HF,lure,-,-,-,liberal,no,z,0,1.18354349634,-1,620
2019_Oct_25,21,001,4,recog,38,AWAITS,LF,target,right,yellow,imageability,conservative,no,z,1,0.80018982859,1,621
2019_Oct_25,21,001,4,recog,39,MUTATIONS,LF,lure,-,-,-,conservative,no,m,1,0.583383436154,3,624
2019_Oct_25,21,001,4,recog,40,ENTIRELY,HF,lure,-,-,-,liberal,no,m,1,1.08330314944,1,625
2019_Oct_25,21,001,4,recog,41,ECONOMIC,HF,lure,-,-,-,liberal,no,m,1,1.0666907649,1,626
2019_Oct_25,21,001,4,recog,42,PLEASE,HF,target,right,yellow,imageability,conservative,no,z,1,1.51683234814,1,627
2019_Oct_25,21,001,4,recog,43,NUCLEAR,HF,target,left,aqua,pleasantness,liberal,no,z,1,0.750194301183,3,630
2019_Oct_25,21,001,4,recog,44,ANIMAL,HF,lure,-,-,-,conservative,no,m,1,1.4336142513,3,633
2019_Oct_25,21,001,4,recog,45,DILATED,LF,lure,-,-,-,conservative,no,m,1,1.23351079508,3,636
2019_Oct_25,21,001,4,recog,46,UNWARY,LF,lure,-,-,-,conservative,no,m,1,0.750236460874,3,639
2019_Oct_25,21,001,4,recog,47,BLOOD,HF,lure,-,-,-,liberal,no,m,1,1.46691050854,1,640
2019_Oct_25,21,001,4,recog,48,SEVEN,HF,target,left,aqua,pleasantness,conservative,no,m,0,0.733579717009,-1,639
2019_Oct_25,21,001,4,recog,49,TRYING,HF,target,right,yellow,imageability,liberal,no,z,1,1.23350053011,3,642
2019_Oct_25,21,001,4,recog,50,SWIFTNESS,LF,lure,-,-,-,liberal,no,m,1,1.01685361129,1,643
2019_Oct_25,21,001,4,recog,51,FEUDALISM,LF,target,left,aqua,pleasantness,conservative,no,z,1,0.733560286891,1,644
2019_Oct_25,21,001,4,recog,52,VIBRATE,LF,target,left,aqua,pleasantness,liberal,no,z,1,0.866703156184,3,647
2019_Oct_25,21,001,4,recog,53,MOUTH,HF,target,right,yellow,imageability,liberal,no,z,1,1.18362195002,3,650
2019_Oct_25,21,001,4,recog,54,CARRIED,HF,lure,-,-,-,liberal,no,m,1,1.31692319311,1,651
2019_Oct_25,21,001,4,recog,55,UNHEEDED,LF,target,right,yellow,imageability,conservative,no,z,1,0.816866735784,1,652
2019_Oct_25,21,001,4,recog,56,SUMMER,HF,target,left,aqua,pleasantness,liberal,no,z,1,0.91687135502,3,655
2019_Oct_25,21,001,4,recog,57,PADDLE,LF,target,left,aqua,pleasantness,liberal,no,z,1,1.03358147672,3,658
2019_Oct_25,21,001,4,recog,58,EMIGRATED,LF,target,right,yellow,imageability,liberal,no,z,1,0.900238440546,3,661
2019_Oct_25,21,001,4,recog,59,AUGMENT,LF,lure,-,-,-,liberal,no,z,0,1.13356299978,-1,660
2019_Oct_25,21,001,4,recog,60,FESTERING,LF,lure,-,-,-,liberal,no,m,1,0.86694035027,1,661
2019_Oct_25,21,001,4,recog,61,NOURISH,LF,target,left,aqua,pleasantness,liberal,no,z,1,0.666931111798,3,664
2019_Oct_25,21,001,4,recog,62,UNSAVOURY,LF,lure,-,-,-,liberal,no,m,1,0.833519080376,1,665
2019_Oct_25,21,001,4,recog,63,EVIDENCE,HF,target,right,yellow,imageability,liberal,no,m,0,0.850304136342,-3,662
2019_Oct_25,21,001,4,recog,64,MAYBE,HF,lure,-,-,-,liberal,no,m,1,1.46692590599,1,663
2019_Oct_25,21,001,4,recog,65,ELECTING,LF,target,right,yellow,imageability,liberal,no,z,1,0.900213511337,3,666
2019_Oct_25,21,001,4,recog,66,HASSLE,LF,target,right,yellow,imageability,liberal,no,z,1,0.716912708177,3,669
2019_Oct_25,21,001,4,recog,67,SURER,LF,target,left,aqua,pleasantness,conservative,no,z,1,1.01684627917,1,670
2019_Oct_25,21,001,4,recog,68,SIZZLING,LF,lure,-,-,-,conservative,no,m,1,0.766882206558,3,673
2019_Oct_25,21,001,4,recog,69,SUBJECT,HF,target,left,aqua,pleasantness,liberal,no,z,1,1.43349913701,3,676
2019_Oct_25,21,001,4,recog,70,QUESTION,HF,target,right,yellow,imageability,liberal,no,z,1,1.00028228662,3,679
2019_Oct_25,21,001,4,recog,71,TANGIER,LF,lure,-,-,-,conservative,no,m,1,0.983531325017,3,682
2019_Oct_25,21,001,4,recog,72,VILLAGE,HF,lure,-,-,-,liberal,no,m,1,0.733537190712,1,683
2019_Oct_25,21,001,4,recog,73,HEALTH,HF,lure,-,-,-,conservative,no,m,1,1.20026879552,3,686
2019_Oct_25,21,001,4,recog,74,FLYWHEEL,LF,lure,-,-,-,conservative,no,m,1,0.750277887352,3,689
2019_Oct_25,21,001,4,recog,75,FENCED,LF,target,right,yellow,imageability,conservative,no,z,1,1.13356593262,1,690
2019_Oct_25,21,001,4,recog,76,WIPERS,LF,target,right,yellow,imageability,conservative,no,z,1,1.5168418799,1,691
2019_Oct_25,21,001,4,recog,77,DAMASK,LF,lure,-,-,-,liberal,no,m,1,0.83363529448,1,692
2019_Oct_25,21,001,4,recog,78,WIRING,LF,lure,-,-,-,liberal,no,m,1,0.799992227953,1,693
2019_Oct_25,21,001,4,recog,79,HUNDRED,HF,lure,-,-,-,conservative,no,m,1,0.75024049354,3,696
2019_Oct_25,21,001,4,recog,80,SLEEP,HF,target,left,aqua,pleasantness,liberal,no,z,1,0.850249145441,3,699
2019_Oct_25,21,001,4,recog,81,SUGARY,LF,target,left,aqua,pleasantness,conservative,no,z,1,0.700345782784,1,700
2019_Oct_25,21,001,4,recog,82,HEDGED,LF,lure,-,-,-,liberal,no,m,1,0.966905742663,1,701
2019_Oct_25,21,001,4,recog,83,ASTERN,LF,lure,-,-,-,liberal,no,m,1,0.700200240201,1,702
2019_Oct_25,21,001,4,recog,84,MOMENT,HF,target,right,yellow,imageability,conservative,no,z,1,2.08347985353,1,703
2019_Oct_25,21,001,4,recog,85,AFRAID,HF,lure,-,-,-,conservative,no,m,1,2.50018623585,3,706
2019_Oct_25,21,001,4,recog,86,WAFER,LF,target,left,aqua,pleasantness,conservative,no,z,1,0.73361454458,1,707
2019_Oct_25,21,001,4,recog,87,BOILERS,LF,lure,-,-,-,conservative,no,m,1,0.833554274553,3,710
2019_Oct_25,21,001,4,recog,88,HAMLETS,LF,target,right,yellow,imageability,conservative,no,z,1,0.766911168432,1,711
2019_Oct_25,21,001,4,recog,89,REQUIRED,HF,lure,-,-,-,liberal,no,m,1,0.650229275396,1,712
2019_Oct_25,21,001,4,recog,90,TOXICITY,LF,lure,-,-,-,liberal,no,m,1,0.716969898714,1,713
2019_Oct_25,21,001,4,recog,91,PURCHASER,LF,lure,-,-,-,conservative,no,m,1,0.666892984774,3,716
2019_Oct_25,21,001,4,recog,92,POLICE,HF,lure,-,-,-,liberal,no,m,1,0.700252664859,1,717
2019_Oct_25,21,001,4,recog,93,SKATES,LF,target,left,aqua,pleasantness,liberal,no,z,1,0.716918573873,3,720
2019_Oct_25,21,001,4,recog,94,ANCHORAGE,LF,lure,-,-,-,conservative,no,m,1,0.633542103234,3,723
2019_Oct_25,21,001,4,recog,95,COVER,HF,target,left,aqua,pleasantness,liberal,no,z,1,1.25022802894,3,726
