date,subj,session,cycle,task,trial,item,wf,type,source,colour,encoding,bias,null,response,corr,rt,points,total
2019_Oct_24,210,001,0,source,0,BEDLAM,LF,target,left,yellow,pleasantness,liberal,no,2,1,3.85222038593,-,-
2019_Oct_24,210,001,0,source,1,PARENTS,HF,target,left,yellow,pleasantness,conservative,no,1,1,1.55980443769,-,-
2019_Oct_24,210,001,0,source,2,LOUDEST,LF,target,left,yellow,pleasantness,liberal,no,1,1,1.54645154715,-,-
2019_Oct_24,210,001,0,source,3,DAUGHTER,HF,target,left,yellow,pleasantness,liberal,no,1,1,0.706542524097,-,-
2019_Oct_24,210,001,0,source,4,SUMMER,HF,target,right,aqua,imageability,conservative,no,7,1,1.02667571939,-,-
2019_Oct_24,210,001,0,source,5,FANATICS,LF,target,left,yellow,pleasantness,conservative,no,1,1,1.09330966036,-,-
2019_Oct_24,210,001,0,source,6,BEFALL,LF,target,right,aqua,imageability,conservative,yes,9,1,2.4261123926,-,-
2019_Oct_24,210,001,0,source,7,PUNCTUAL,LF,target,right,aqua,imageability,liberal,no,1,0,1.61308475491,-,-
2019_Oct_24,210,001,0,source,8,NEEDED,HF,target,right,aqua,imageability,conservative,no,9,1,2.51938099309,-,-
2019_Oct_24,210,001,0,source,9,CLEAR,HF,target,left,yellow,pleasantness,conservative,no,1,1,1.66639660024,-,-
2019_Oct_24,210,001,0,source,10,NUMBER,HF,target,left,yellow,pleasantness,liberal,no,2,1,4.13187294609,-,-
2019_Oct_24,210,001,0,source,11,GAPED,LF,target,right,aqua,imageability,liberal,no,8,1,1.892941148,-,-
2019_Oct_24,210,001,0,source,12,VORACIOUS,LF,target,left,yellow,pleasantness,conservative,no,9,0,1.46621065768,-,-
2019_Oct_24,210,001,0,source,13,TRYING,HF,target,right,aqua,imageability,liberal,no,1,0,3.39881527603,-,-
2019_Oct_24,210,001,0,source,14,LEARN,HF,target,right,aqua,imageability,liberal,no,8,1,3.57231633406,-,-
2019_Oct_24,210,001,0,source,15,ABBOT,LF,target,right,aqua,imageability,conservative,no,9,1,1.4132012623,-,-
2019_Oct_24,210,001,0,source,16,ICILY,LF,target,right,aqua,imageability,conservative,no,9,1,0.826744934605,-,-
2019_Oct_24,210,001,0,source,17,ASPIRED,LF,target,left,yellow,pleasantness,conservative,no,2,1,2.55913868119,-,-
2019_Oct_24,210,001,0,source,18,CINDER,LF,target,left,yellow,pleasantness,conservative,yes,2,1,1.37331819495,-,-
2019_Oct_24,210,001,0,source,19,FAMILY,HF,target,left,yellow,pleasantness,conservative,no,1,1,1.51980259,-,-
2019_Oct_24,210,001,0,source,20,FUMING,LF,target,right,aqua,imageability,liberal,no,9,1,1.45290066004,-,-
2019_Oct_24,210,001,0,source,21,THOUSAND,HF,target,right,aqua,imageability,conservative,no,9,1,1.03996628691,-,-
2019_Oct_24,210,001,0,source,22,SOVIET,HF,target,right,aqua,imageability,liberal,no,9,1,0.879815919792,-,-
2019_Oct_24,210,001,0,source,23,PERHAPS,HF,target,right,aqua,imageability,conservative,no,8,1,2.0662633023,-,-
2019_Oct_24,210,001,0,source,24,DORMS,LF,target,right,aqua,imageability,conservative,no,9,1,0.89338584109,-,-
2019_Oct_24,210,001,0,source,25,PRIVATE,HF,target,left,yellow,pleasantness,liberal,no,1,1,1.70613155876,-,-
2019_Oct_24,210,001,0,source,26,FREEDOM,HF,target,right,aqua,imageability,liberal,no,9,1,0.880043582122,-,-
2019_Oct_24,210,001,0,source,27,TELEPHONE,HF,target,left,yellow,pleasantness,conservative,no,9,0,2.31948173642,-,-
2019_Oct_24,210,001,0,source,28,CUFFED,LF,target,left,yellow,pleasantness,liberal,no,8,0,2.42585833464,-,-
2019_Oct_24,210,001,0,source,29,SEEMED,HF,target,left,yellow,pleasantness,conservative,no,7,0,1.43983262236,-,-
2019_Oct_24,210,001,0,source,30,INDEED,HF,target,left,yellow,pleasantness,liberal,no,7,0,1.27988938764,-,-
2019_Oct_24,210,001,0,source,31,TWINE,LF,target,right,aqua,imageability,conservative,no,9,1,0.906483207245,-,-
2019_Oct_24,210,001,0,source,32,LONGER,HF,target,right,aqua,imageability,conservative,yes,2,0,1.10663945472,-,-
2019_Oct_24,210,001,0,source,33,ZEBRA,LF,target,right,aqua,imageability,liberal,no,9,1,1.3331726377,-,-
2019_Oct_24,210,001,0,source,34,JUROR,LF,target,right,aqua,imageability,conservative,no,9,1,0.813393143881,-,-
2019_Oct_24,210,001,0,source,35,PHRASED,LF,target,left,yellow,pleasantness,liberal,no,2,1,3.55898800612,-,-
2019_Oct_24,210,001,0,source,36,TUSKS,LF,target,right,aqua,imageability,liberal,no,9,1,0.879787324524,-,-
2019_Oct_24,210,001,0,source,37,PUPPETS,LF,target,left,yellow,pleasantness,conservative,no,9,0,1.01330669819,-,-
2019_Oct_24,210,001,0,source,38,ROADWAY,LF,target,left,yellow,pleasantness,liberal,no,2,1,5.54485094533,-,-
2019_Oct_24,210,001,0,source,39,EARLIER,HF,target,left,yellow,pleasantness,liberal,no,1,1,1.65300484946,-,-
2019_Oct_24,210,001,0,source,40,SPOKE,HF,target,left,yellow,pleasantness,liberal,yes,2,1,1.22657424285,-,-
2019_Oct_24,210,001,0,source,41,EMIGRATED,LF,target,left,yellow,pleasantness,conservative,no,1,1,2.51940042321,-,-
2019_Oct_24,210,001,0,source,42,ODOURS,LF,target,right,aqua,imageability,liberal,no,2,0,2.50604130037,-,-
2019_Oct_24,210,001,0,source,43,TIMES,HF,target,left,yellow,pleasantness,conservative,no,2,1,1.90628267376,-,-
2019_Oct_24,210,001,0,source,44,MOUTH,HF,target,right,aqua,imageability,conservative,no,7,1,2.98590766515,-,-
2019_Oct_24,210,001,0,source,45,GETTING,HF,target,right,aqua,imageability,liberal,no,7,1,0.973366806906,-,-
2019_Oct_24,210,001,0,source,46,RIVER,HF,target,right,aqua,imageability,liberal,no,9,1,1.97292577988,-,-
2019_Oct_24,210,001,0,source,47,VELVETY,LF,target,left,yellow,pleasantness,liberal,no,1,1,1.62641454927,-,-
2019_Oct_24,210,001,0,recog,0,EARLIER,HF,target,left,yellow,pleasantness,liberal,no,z,1,5.53151198582,3,3
2019_Oct_24,210,001,0,recog,1,TALKING,HF,lure,-,-,-,conservative,no,m,1,2.59936672479,3,6
2019_Oct_24,210,001,0,recog,2,ENFORCING,LF,lure,-,-,-,conservative,no,m,1,1.13326494909,3,9
2019_Oct_24,210,001,0,recog,3,ICILY,LF,target,right,aqua,imageability,conservative,no,z,1,0.920001437096,1,10
2019_Oct_24,210,001,0,recog,4,OBNOXIOUS,LF,lure,-,-,-,conservative,no,m,1,0.933355794061,3,13
2019_Oct_24,210,001,0,recog,5,IDLING,LF,lure,-,-,-,conservative,no,m,1,0.986668739213,3,16
2019_Oct_24,210,001,0,recog,6,INDEED,HF,target,left,yellow,pleasantness,liberal,no,z,1,1.23986737661,3,19
2019_Oct_24,210,001,0,recog,7,LOCAL,HF,lure,-,-,-,conservative,no,m,1,1.02639489919,3,22
2019_Oct_24,210,001,0,recog,8,UNABATED,LF,lure,-,-,-,liberal,no,m,1,1.03999524879,1,23
2019_Oct_24,210,001,0,recog,9,NUMBER,HF,target,left,yellow,pleasantness,liberal,no,z,1,2.21281368643,3,26
2019_Oct_24,210,001,0,recog,10,LOUDEST,LF,target,left,yellow,pleasantness,liberal,no,z,1,1.27987545661,3,29
2019_Oct_24,210,001,0,recog,11,STRAIGHT,HF,lure,-,-,-,liberal,no,m,1,0.946673123821,1,30
2019_Oct_24,210,001,0,recog,12,FREEDOM,HF,target,right,aqua,imageability,liberal,no,z,1,0.999978736852,3,33
2019_Oct_24,210,001,0,recog,13,TWINE,LF,target,right,aqua,imageability,conservative,no,z,1,1.74632990728,1,34
2019_Oct_24,210,001,0,recog,14,DAUGHTER,HF,target,left,yellow,pleasantness,liberal,no,z,1,0.933348461941,3,37
2019_Oct_24,210,001,0,recog,15,TONAL,LF,lure,-,-,-,conservative,no,m,1,1.14655624983,3,40
2019_Oct_24,210,001,0,recog,16,DIOCESE,LF,lure,-,-,-,conservative,no,m,1,1.2532228334,3,43
2019_Oct_24,210,001,0,recog,17,ROADWAY,LF,target,left,yellow,pleasantness,liberal,no,z,1,0.97310028434,3,46
2019_Oct_24,210,001,0,recog,18,LETTER,HF,lure,-,-,-,liberal,no,m,1,0.86669435764,1,47
2019_Oct_24,210,001,0,recog,19,APPEARED,HF,lure,-,-,-,liberal,no,m,1,1.38652590951,1,48
2019_Oct_24,210,001,0,recog,20,HYENA,LF,lure,-,-,-,liberal,no,m,1,0.813153383554,1,49
2019_Oct_24,210,001,0,recog,21,TELEPHONE,HF,target,left,yellow,pleasantness,conservative,no,z,1,0.773416958607,1,50
2019_Oct_24,210,001,0,recog,22,BEYOND,HF,lure,-,-,-,conservative,no,z,0,1.0932693337,-3,47
2019_Oct_24,210,001,0,recog,23,SUMMER,HF,target,right,aqua,imageability,conservative,no,z,1,1.00001099818,1,48
2019_Oct_24,210,001,0,recog,24,BROUGHT,HF,lure,-,-,-,conservative,no,m,1,0.813389111215,3,51
2019_Oct_24,210,001,0,recog,25,GAPED,LF,target,right,aqua,imageability,liberal,yes,z,1,1.26655739364,3,54
2019_Oct_24,210,001,0,recog,26,ABBOT,LF,target,right,aqua,imageability,conservative,no,z,1,2.49272287079,1,55
2019_Oct_24,210,001,0,recog,27,INVOLVED,HF,lure,-,-,-,conservative,no,m,1,1.3199135983,3,58
2019_Oct_24,210,001,0,recog,28,CENTRAL,HF,lure,-,-,-,liberal,yes,m,1,1.14656614819,1,59
2019_Oct_24,210,001,0,recog,29,CLEAR,HF,target,left,yellow,pleasantness,conservative,no,m,0,3.50564829873,-1,58
2019_Oct_24,210,001,0,recog,30,RIVER,HF,target,right,aqua,imageability,liberal,no,z,1,0.813405241879,3,61
2019_Oct_24,210,001,0,recog,31,LONGER,HF,target,right,aqua,imageability,conservative,no,m,0,3.41237969824,-1,60
2019_Oct_24,210,001,0,recog,32,FURTHER,HF,lure,-,-,-,liberal,no,z,0,2.59935609321,-1,59
2019_Oct_24,210,001,0,recog,33,VELVETY,LF,target,left,yellow,pleasantness,liberal,no,z,1,1.02640883022,3,62
2019_Oct_24,210,001,0,recog,34,WRONG,HF,lure,-,-,-,conservative,no,m,1,1.07974377173,3,65
2019_Oct_24,210,001,0,recog,35,ZEBRA,LF,target,right,aqua,imageability,liberal,no,z,1,0.760073233216,3,68
2019_Oct_24,210,001,0,recog,36,TIMES,HF,target,left,yellow,pleasantness,conservative,no,z,1,1.86607919276,1,69
2019_Oct_24,210,001,0,recog,37,JUROR,LF,target,right,aqua,imageability,conservative,no,z,1,0.626800952002,1,70
2019_Oct_24,210,001,0,recog,38,ASPIRED,LF,target,left,yellow,pleasantness,conservative,no,z,1,0.626771256916,1,71
2019_Oct_24,210,001,0,recog,39,NEEDED,HF,target,right,aqua,imageability,conservative,yes,m,0,2.15951833837,-1,70
2019_Oct_24,210,001,0,recog,40,PRIVATE,HF,target,left,yellow,pleasantness,liberal,no,z,1,3.46571390654,3,73
2019_Oct_24,210,001,0,recog,41,OTHERS,HF,lure,-,-,-,liberal,no,m,1,0.720112812,1,74
2019_Oct_24,210,001,0,recog,42,FAMILY,HF,target,left,yellow,pleasantness,conservative,no,z,1,0.600160793394,1,75
2019_Oct_24,210,001,0,recog,43,TUSKS,LF,target,right,aqua,imageability,liberal,no,z,1,0.600213584659,3,78
2019_Oct_24,210,001,0,recog,44,ABOVE,HF,lure,-,-,-,conservative,no,m,1,0.813393143881,3,81
2019_Oct_24,210,001,0,recog,45,ROLLERS,LF,lure,-,-,-,conservative,no,m,1,0.666767972126,3,84
2019_Oct_24,210,001,0,recog,46,WANTED,HF,lure,-,-,-,liberal,no,m,1,0.746774600363,1,85
2019_Oct_24,210,001,0,recog,47,GETTING,HF,target,right,aqua,imageability,liberal,no,m,0,0.786735388185,-3,82
2019_Oct_24,210,001,0,recog,48,ANOINTED,LF,lure,-,-,-,conservative,no,m,1,1.8260795447,3,85
2019_Oct_24,210,001,0,recog,49,ACTION,HF,lure,-,-,-,conservative,yes,m,1,1.21325617988,3,88
2019_Oct_24,210,001,0,recog,50,HIMSELF,HF,lure,-,-,-,conservative,no,m,1,0.866487958459,3,91
2019_Oct_24,210,001,0,recog,51,PERHAPS,HF,target,right,aqua,imageability,conservative,no,m,0,1.33319976655,-1,90
2019_Oct_24,210,001,0,recog,52,HOSPITAL,HF,lure,-,-,-,liberal,no,m,1,2.03960811284,1,91
2019_Oct_24,210,001,0,recog,53,MAYBE,HF,lure,-,-,-,conservative,no,m,1,2.05290857873,3,94
2019_Oct_24,210,001,0,recog,54,PUNCTUAL,LF,target,right,aqua,imageability,liberal,no,z,1,1.09330672751,3,97
2019_Oct_24,210,001,0,recog,55,VORACIOUS,LF,target,left,yellow,pleasantness,conservative,no,z,1,1.21321841946,1,98
2019_Oct_24,210,001,0,recog,56,CUFFED,LF,target,left,yellow,pleasantness,liberal,no,z,1,1.33320049976,3,101
2019_Oct_24,210,001,0,recog,57,MOUTH,HF,target,right,aqua,imageability,conservative,no,z,1,0.760085331214,1,102
2019_Oct_24,210,001,0,recog,58,GOBBLE,LF,lure,-,-,-,liberal,no,m,1,0.826723671456,1,103
2019_Oct_24,210,001,0,recog,59,PARENTS,HF,target,left,yellow,pleasantness,conservative,no,m,0,1.73307526715,-1,102
2019_Oct_24,210,001,0,recog,60,FANATICS,LF,target,left,yellow,pleasantness,conservative,no,z,1,0.973376338662,1,103
2019_Oct_24,210,001,0,recog,61,ODOURS,LF,target,right,aqua,imageability,liberal,no,z,1,0.826694709582,3,106
2019_Oct_24,210,001,0,recog,62,CINDER,LF,target,left,yellow,pleasantness,conservative,no,z,1,0.893163311244,1,107
2019_Oct_24,210,001,0,recog,63,ZENITH,LF,lure,-,-,-,conservative,no,m,1,0.72010364685,3,110
2019_Oct_24,210,001,0,recog,64,SMUDGE,LF,lure,-,-,-,liberal,no,m,1,0.746759569517,1,111
2019_Oct_24,210,001,0,recog,65,SOVIET,HF,target,right,aqua,imageability,liberal,no,z,1,0.879822885307,3,114
2019_Oct_24,210,001,0,recog,66,LIGHT,HF,lure,-,-,-,liberal,no,m,1,0.880058979574,1,115
2019_Oct_24,210,001,0,recog,67,GURGLE,LF,lure,-,-,-,liberal,no,m,1,0.746730607642,1,116
2019_Oct_24,210,001,0,recog,68,SPOKE,HF,target,left,yellow,pleasantness,liberal,no,z,1,2.09290786018,3,119
2019_Oct_24,210,001,0,recog,69,SPUDS,LF,lure,-,-,-,liberal,no,m,1,1.03996078782,1,120
2019_Oct_24,210,001,0,recog,70,PLACE,HF,lure,-,-,-,liberal,no,m,1,0.813448501388,1,121
2019_Oct_24,210,001,0,recog,71,DORMS,LF,target,right,aqua,imageability,conservative,no,z,1,0.733100929566,1,122
2019_Oct_24,210,001,0,recog,72,PHRASED,LF,target,left,yellow,pleasantness,liberal,no,z,1,0.786758484363,3,125
2019_Oct_24,210,001,0,recog,73,GULLIBLE,LF,lure,-,-,-,conservative,no,m,1,0.773494312474,3,128
2019_Oct_24,210,001,0,recog,74,FOUND,HF,lure,-,-,-,conservative,no,m,1,1.46646361582,3,131
2019_Oct_24,210,001,0,recog,75,HOIST,LF,lure,-,-,-,liberal,no,m,1,2.41281009369,1,132
2019_Oct_24,210,001,0,recog,76,FUMING,LF,target,right,aqua,imageability,liberal,no,z,1,0.70676615376,3,135
2019_Oct_24,210,001,0,recog,77,JAUNDICE,LF,lure,-,-,-,liberal,no,m,1,0.880045048546,1,136
2019_Oct_24,210,001,0,recog,78,FEVERS,LF,lure,-,-,-,liberal,no,m,1,0.693446257759,1,137
2019_Oct_24,210,001,0,recog,79,EXHALED,LF,lure,-,-,-,liberal,no,m,1,1.39986266939,1,138
2019_Oct_24,210,001,0,recog,80,SEEMED,HF,target,left,yellow,pleasantness,conservative,no,m,0,2.0395993143,-1,137
2019_Oct_24,210,001,0,recog,81,MIDDLE,HF,lure,-,-,-,conservative,no,m,1,1.03975292222,3,140
2019_Oct_24,210,001,0,recog,82,MAJOR,HF,lure,-,-,-,liberal,no,m,1,0.893386574302,1,141
2019_Oct_24,210,001,0,recog,83,CALLED,HF,lure,-,-,-,liberal,no,m,1,1.55982900029,1,142
2019_Oct_24,210,001,0,recog,84,PUPPETS,LF,target,left,yellow,pleasantness,conservative,no,z,1,0.920117284593,1,143
2019_Oct_24,210,001,0,recog,85,BEDLAM,LF,target,left,yellow,pleasantness,liberal,no,z,1,1.08011587683,3,146
2019_Oct_24,210,001,0,recog,86,NAIVELY,LF,lure,-,-,-,conservative,no,m,1,2.22623806514,3,149
2019_Oct_24,210,001,0,recog,87,BEFALL,LF,target,right,aqua,imageability,conservative,no,z,1,0.866765112599,1,150
2019_Oct_24,210,001,0,recog,88,TRYING,HF,target,right,aqua,imageability,liberal,no,z,1,1.19991208788,3,153
2019_Oct_24,210,001,0,recog,89,BUNGALOWS,LF,lure,-,-,-,liberal,no,m,1,1.35987548594,1,154
2019_Oct_24,210,001,0,recog,90,AXLES,LF,lure,-,-,-,conservative,no,m,1,0.760133356601,3,157
2019_Oct_24,210,001,0,recog,91,JEALOUSLY,LF,lure,-,-,-,liberal,no,m,1,0.960028213998,1,158
2019_Oct_24,210,001,0,recog,92,THOUSAND,HF,target,right,aqua,imageability,conservative,no,z,1,0.920025633092,1,159
2019_Oct_24,210,001,0,recog,93,EMIGRATED,LF,target,left,yellow,pleasantness,conservative,no,z,1,0.680098866308,1,160
2019_Oct_24,210,001,0,recog,94,LEARN,HF,target,right,aqua,imageability,liberal,no,z,1,1.17326643018,3,163
2019_Oct_24,210,001,0,recog,95,BAUXITE,LF,lure,-,-,-,conservative,no,m,1,0.666833594601,3,166
2019_Oct_24,210,001,1,source,0,INUNDATED,LF,target,right,aqua,imageability,liberal,no,8,1,3.94548495376,-,-
2019_Oct_24,210,001,1,source,1,ACROSS,HF,target,right,aqua,imageability,conservative,no,9,1,1.49311330618,-,-
2019_Oct_24,210,001,1,source,2,PRACTICE,HF,target,right,aqua,imageability,conservative,no,9,1,1.54641415334,-,-
2019_Oct_24,210,001,1,source,3,BOXCAR,LF,target,right,aqua,imageability,conservative,yes,2,0,0.920011702064,-,-
2019_Oct_24,210,001,1,source,4,NAGGED,LF,target,right,aqua,imageability,liberal,no,2,0,3.82529060858,-,-
2019_Oct_24,210,001,1,source,5,UMBILICAL,LF,target,right,aqua,imageability,liberal,no,9,1,1.90631163563,-,-
2019_Oct_24,210,001,1,source,6,HAVING,HF,target,left,yellow,pleasantness,liberal,no,2,1,1.59953719658,-,-
2019_Oct_24,210,001,1,source,7,INACTION,LF,target,left,yellow,pleasantness,conservative,no,8,0,1.10660572697,-,-
2019_Oct_24,210,001,1,source,8,CHAIR,HF,target,left,yellow,pleasantness,conservative,no,9,0,1.30650571685,-,-
2019_Oct_24,210,001,1,source,9,CHROMIUM,LF,target,left,yellow,pleasantness,conservative,no,2,1,1.01330486516,-,-
2019_Oct_24,210,001,1,source,10,VISCOUS,LF,target,left,yellow,pleasantness,conservative,no,2,1,1.09324440449,-,-
2019_Oct_24,210,001,1,source,11,ADULATION,LF,target,right,aqua,imageability,conservative,no,8,1,1.21324921436,-,-
2019_Oct_24,210,001,1,source,12,JELLIES,LF,target,right,aqua,imageability,conservative,no,9,1,0.866784176112,-,-
2019_Oct_24,210,001,1,source,13,RANGE,HF,target,right,aqua,imageability,liberal,yes,9,1,0.506797975162,-,-
2019_Oct_24,210,001,1,source,14,UNKEMPT,LF,target,right,aqua,imageability,conservative,no,9,1,1.50623303531,-,-
2019_Oct_24,210,001,1,source,15,TREES,HF,target,left,yellow,pleasantness,liberal,yes,8,0,1.17327046285,-,-
2019_Oct_24,210,001,1,source,16,SMEARING,LF,target,right,aqua,imageability,liberal,no,9,1,1.06641507719,-,-
2019_Oct_24,210,001,1,source,17,DOCTOR,HF,target,right,aqua,imageability,conservative,no,9,1,1.49311330619,-,-
2019_Oct_24,210,001,1,source,18,ABLAZE,LF,target,left,yellow,pleasantness,liberal,no,1,1,1.69282339416,-,-
2019_Oct_24,210,001,1,source,19,PAVILIONS,LF,target,left,yellow,pleasantness,liberal,no,1,1,0.880023785397,-,-
2019_Oct_24,210,001,1,source,20,QUALITY,HF,target,left,yellow,pleasantness,conservative,no,1,1,1.3064716225,-,-
2019_Oct_24,210,001,1,source,21,CLASS,HF,target,right,aqua,imageability,conservative,no,2,0,2.89247409195,-,-
2019_Oct_24,210,001,1,source,22,CHURCH,HF,target,right,aqua,imageability,conservative,no,9,1,0.693503448296,-,-
2019_Oct_24,210,001,1,source,23,GLUTINOUS,LF,target,right,aqua,imageability,conservative,no,2,0,1.01340788144,-,-
2019_Oct_24,210,001,1,source,24,ACCORDING,HF,target,left,yellow,pleasantness,conservative,no,7,0,1.62644717721,-,-
2019_Oct_24,210,001,1,source,25,TODAY,HF,target,left,yellow,pleasantness,conservative,no,1,1,0.879836816335,-,-
2019_Oct_24,210,001,1,source,26,HOTEL,HF,target,right,aqua,imageability,liberal,no,9,1,0.800077647152,-,-
2019_Oct_24,210,001,1,source,27,RECENT,HF,target,left,yellow,pleasantness,conservative,no,1,1,0.760076166064,-,-
2019_Oct_24,210,001,1,source,28,EXUDED,LF,target,left,yellow,pleasantness,liberal,no,2,1,1.01336938781,-,-
2019_Oct_24,210,001,1,source,29,COMES,HF,target,right,aqua,imageability,conservative,no,2,0,1.43981355885,-,-
2019_Oct_24,210,001,1,source,30,MODERN,HF,target,right,aqua,imageability,liberal,no,1,0,1.71967251819,-,-
2019_Oct_24,210,001,1,source,31,AHEAD,HF,target,left,yellow,pleasantness,liberal,no,1,1,1.74633540637,-,-
2019_Oct_24,210,001,1,source,32,RIPEN,LF,target,left,yellow,pleasantness,conservative,no,9,0,1.46646728188,-,-
2019_Oct_24,210,001,1,source,33,BILATERAL,LF,target,left,yellow,pleasantness,conservative,no,1,1,1.45315765085,-,-
2019_Oct_24,210,001,1,source,34,CEMENTED,LF,target,left,yellow,pleasantness,liberal,no,2,1,2.09266809985,-,-
2019_Oct_24,210,001,1,source,35,TOGETHER,HF,target,right,aqua,imageability,liberal,no,8,1,1.34650023243,-,-
2019_Oct_24,210,001,1,source,36,EDUCATION,HF,target,left,yellow,pleasantness,liberal,no,1,1,0.920056794602,-,-
2019_Oct_24,210,001,1,source,37,UNHEEDED,LF,target,right,aqua,imageability,liberal,no,8,1,0.906720034725,-,-
2019_Oct_24,210,001,1,source,38,PIECE,HF,target,left,yellow,pleasantness,liberal,yes,2,1,0.613494253817,-,-
2019_Oct_24,210,001,1,source,39,LACING,LF,target,right,aqua,imageability,conservative,no,9,1,1.69302979334,-,-
2019_Oct_24,210,001,1,source,40,SHEARING,LF,target,left,yellow,pleasantness,liberal,no,2,1,1.37293215883,-,-
2019_Oct_24,210,001,1,source,41,IMPORTANT,HF,target,right,aqua,imageability,liberal,no,9,1,1.50653328563,-,-
2019_Oct_24,210,001,1,source,42,CHOICE,HF,target,right,aqua,imageability,liberal,no,2,0,1.70637425194,-,-
2019_Oct_24,210,001,1,source,43,PUFFS,LF,target,right,aqua,imageability,liberal,no,9,1,0.826524237789,-,-
2019_Oct_24,210,001,1,source,44,LEVEL,HF,target,left,yellow,pleasantness,conservative,no,1,1,1.66641089788,-,-
2019_Oct_24,210,001,1,source,45,DEXTERITY,LF,target,left,yellow,pleasantness,liberal,no,2,1,1.3998263754,-,-
2019_Oct_24,210,001,1,source,46,WHATEVER,HF,target,left,yellow,pleasantness,liberal,no,1,1,1.25324812921,-,-
2019_Oct_24,210,001,1,source,47,ATONEMENT,LF,target,left,yellow,pleasantness,conservative,no,1,1,0.946467824457,-,-
2019_Oct_24,210,001,1,recog,0,HAVING,HF,target,left,yellow,pleasantness,liberal,no,z,1,4.23874226278,3,169
2019_Oct_24,210,001,1,recog,1,CHAIR,HF,target,left,yellow,pleasantness,conservative,no,z,1,1.18658375994,1,170
2019_Oct_24,210,001,1,recog,2,CHROMIUM,LF,target,left,yellow,pleasantness,conservative,no,z,1,0.866520953,1,171
2019_Oct_24,210,001,1,recog,3,DEXTERITY,LF,target,left,yellow,pleasantness,liberal,no,z,1,0.773458751692,3,174
2019_Oct_24,210,001,1,recog,4,AMALGAM,LF,lure,-,-,-,liberal,no,m,1,0.720088616004,1,175
2019_Oct_24,210,001,1,recog,5,KANGAROO,LF,lure,-,-,-,conservative,no,m,1,0.88007401042,3,178
2019_Oct_24,210,001,1,recog,6,MODERN,HF,target,right,aqua,imageability,liberal,no,z,1,0.866696923882,3,181
2019_Oct_24,210,001,1,recog,7,LUSCIOUS,LF,lure,-,-,-,liberal,no,z,0,1.87967844254,-1,180
2019_Oct_24,210,001,1,recog,8,PRACTICE,HF,target,right,aqua,imageability,conservative,no,z,1,1.48005443366,1,181
2019_Oct_24,210,001,1,recog,9,GROUND,HF,lure,-,-,-,conservative,no,m,1,0.973308149945,3,184
2019_Oct_24,210,001,1,recog,10,PIGLETS,LF,lure,-,-,-,liberal,no,m,1,0.826752266725,1,185
2019_Oct_24,210,001,1,recog,11,BUGGED,LF,lure,-,-,-,conservative,no,m,1,0.706977685425,3,188
2019_Oct_24,210,001,1,recog,12,TOPICAL,LF,lure,-,-,-,liberal,no,m,1,0.640168506784,1,189
2019_Oct_24,210,001,1,recog,13,ATTACK,HF,lure,-,-,-,liberal,no,m,1,0.626782621702,1,190
2019_Oct_24,210,001,1,recog,14,NAGGED,LF,target,right,aqua,imageability,liberal,no,z,1,0.746756270062,3,193
2019_Oct_24,210,001,1,recog,15,UNLESS,HF,lure,-,-,-,conservative,no,m,1,0.66685302472,3,196
2019_Oct_24,210,001,1,recog,16,GRUBS,LF,lure,-,-,-,conservative,no,m,1,0.773404127397,3,199
2019_Oct_24,210,001,1,recog,17,NOTHING,HF,lure,-,-,-,conservative,no,m,1,0.826632019955,3,202
2019_Oct_24,210,001,1,recog,18,INFECT,LF,lure,-,-,-,conservative,no,m,1,1.25322723267,3,205
2019_Oct_24,210,001,1,recog,19,ROBBERIES,LF,lure,-,-,-,liberal,no,m,1,0.719867919188,1,206
2019_Oct_24,210,001,1,recog,20,EIGHT,HF,lure,-,-,-,liberal,yes,z,0,1.35982746055,-1,205
2019_Oct_24,210,001,1,recog,21,ATONEMENT,LF,target,left,yellow,pleasantness,conservative,no,z,1,0.786517624217,1,206
2019_Oct_24,210,001,1,recog,22,TESTIFIES,LF,lure,-,-,-,liberal,no,m,1,0.720150205813,1,207
2019_Oct_24,210,001,1,recog,23,PAVILIONS,LF,target,left,yellow,pleasantness,liberal,no,z,1,0.719867185976,3,210
2019_Oct_24,210,001,1,recog,24,TEDIUM,LF,lure,-,-,-,conservative,no,m,1,0.706772752668,3,213
2019_Oct_24,210,001,1,recog,25,QUALITY,HF,target,left,yellow,pleasantness,conservative,no,z,1,0.68011792982,1,214
2019_Oct_24,210,001,1,recog,26,PIECE,HF,target,left,yellow,pleasantness,liberal,no,m,0,1.21325288042,-3,211
2019_Oct_24,210,001,1,recog,27,UNKEMPT,LF,target,right,aqua,imageability,conservative,no,z,1,0.640146143818,1,212
2019_Oct_24,210,001,1,recog,28,PIQUE,LF,lure,-,-,-,liberal,no,m,1,0.906693272487,1,213
2019_Oct_24,210,001,1,recog,29,GLUTINOUS,LF,target,right,aqua,imageability,conservative,no,z,1,0.74683545696,1,214
2019_Oct_24,210,001,1,recog,30,BOXCAR,LF,target,right,aqua,imageability,conservative,yes,m,0,1.00000219964,-1,213
2019_Oct_24,210,001,1,recog,31,USING,HF,lure,-,-,-,liberal,no,m,1,0.786790012479,1,214
2019_Oct_24,210,001,1,recog,32,DEGREE,HF,lure,-,-,-,liberal,no,m,1,0.88000802134,1,215
2019_Oct_24,210,001,1,recog,33,BILATERAL,LF,target,left,yellow,pleasantness,conservative,no,z,1,0.600191954904,1,216
2019_Oct_24,210,001,1,recog,34,MAUSOLEUM,LF,lure,-,-,-,conservative,no,m,1,0.653181553559,3,219
2019_Oct_24,210,001,1,recog,35,SMEARING,LF,target,right,aqua,imageability,liberal,no,z,1,0.626865841265,3,222
2019_Oct_24,210,001,1,recog,36,ARSENALS,LF,lure,-,-,-,conservative,no,m,1,0.693443324911,3,225
2019_Oct_24,210,001,1,recog,37,SLOWLY,HF,lure,-,-,-,conservative,no,m,1,0.706507696526,3,228
2019_Oct_24,210,001,1,recog,38,HOWEVER,HF,lure,-,-,-,liberal,no,m,1,0.613427531525,1,229
2019_Oct_24,210,001,1,recog,39,BUOYANCY,LF,lure,-,-,-,liberal,no,m,1,0.680101799155,1,230
2019_Oct_24,210,001,1,recog,40,ACROSS,HF,target,right,aqua,imageability,conservative,no,z,1,0.720098880972,1,231
2019_Oct_24,210,001,1,recog,41,LACING,LF,target,right,aqua,imageability,conservative,no,z,1,0.600170691756,1,232
2019_Oct_24,210,001,1,recog,42,RECENT,HF,target,left,yellow,pleasantness,conservative,no,z,1,0.786810909022,1,233
2019_Oct_24,210,001,1,recog,43,AVAILABLE,HF,lure,-,-,-,liberal,no,m,1,0.706690999529,1,234
2019_Oct_24,210,001,1,recog,44,ADULATION,LF,target,right,aqua,imageability,conservative,no,m,0,0.893406371026,-1,233
2019_Oct_24,210,001,1,recog,45,LEVEL,HF,target,left,yellow,pleasantness,conservative,no,z,1,0.680155690239,1,234
2019_Oct_24,210,001,1,recog,46,AFIELD,LF,lure,-,-,-,conservative,no,m,1,0.547015020581,3,237
2019_Oct_24,210,001,1,recog,47,FEELING,HF,lure,-,-,-,liberal,no,m,1,1.6265993187,1,238
2019_Oct_24,210,001,1,recog,48,ATHEIST,LF,lure,-,-,-,liberal,no,m,1,0.76008019873,1,239
2019_Oct_24,210,001,1,recog,49,RIPEN,LF,target,left,yellow,pleasantness,conservative,no,z,1,0.680122695698,1,240
2019_Oct_24,210,001,1,recog,50,BIRCHES,LF,lure,-,-,-,liberal,no,m,1,0.680097033278,1,241
2019_Oct_24,210,001,1,recog,51,WITHIN,HF,lure,-,-,-,conservative,no,m,1,0.77346351757,3,244
2019_Oct_24,210,001,1,recog,52,SHEARING,LF,target,left,yellow,pleasantness,liberal,no,z,1,0.706799514907,3,247
2019_Oct_24,210,001,1,recog,53,WHATEVER,HF,target,left,yellow,pleasantness,liberal,yes,z,1,0.880028551276,3,250
2019_Oct_24,210,001,1,recog,54,INACTION,LF,target,left,yellow,pleasantness,conservative,no,m,0,1.67982024574,-1,249
2019_Oct_24,210,001,1,recog,55,EXUDED,LF,target,left,yellow,pleasantness,liberal,no,z,1,2.06625670339,3,252
2019_Oct_24,210,001,1,recog,56,HOTEL,HF,target,right,aqua,imageability,liberal,no,z,1,0.53355288145,3,255
2019_Oct_24,210,001,1,recog,57,JELLIES,LF,target,right,aqua,imageability,conservative,no,z,1,0.546862512483,1,256
2019_Oct_24,210,001,1,recog,58,TOGETHER,HF,target,right,aqua,imageability,liberal,no,z,1,0.826474379373,3,259
2019_Oct_24,210,001,1,recog,59,ABLAZE,LF,target,left,yellow,pleasantness,liberal,no,z,1,0.560176176182,3,262
2019_Oct_24,210,001,1,recog,60,COMES,HF,target,right,aqua,imageability,conservative,no,z,1,0.693303281417,1,263
2019_Oct_24,210,001,1,recog,61,KNOWLEDGE,HF,lure,-,-,-,liberal,no,m,1,0.800064815942,1,264
2019_Oct_24,210,001,1,recog,62,GIVEN,HF,lure,-,-,-,conservative,no,m,1,1.77276989901,3,267
2019_Oct_24,210,001,1,recog,63,UNHEEDED,LF,target,right,aqua,imageability,liberal,no,z,1,0.773393495823,3,270
2019_Oct_24,210,001,1,recog,64,VISCOUS,LF,target,left,yellow,pleasantness,conservative,no,z,1,0.613492054182,1,271
2019_Oct_24,210,001,1,recog,65,INUNDATED,LF,target,right,aqua,imageability,liberal,no,z,1,1.33319646709,3,274
2019_Oct_24,210,001,1,recog,66,CHOICE,HF,target,right,aqua,imageability,liberal,no,z,1,1.93296682509,3,277
2019_Oct_24,210,001,1,recog,67,PUFFS,LF,target,right,aqua,imageability,liberal,no,z,1,0.533571578356,3,280
2019_Oct_24,210,001,1,recog,68,CEMENTED,LF,target,left,yellow,pleasantness,liberal,no,z,1,0.573477741883,3,283
2019_Oct_24,210,001,1,recog,69,ANAEMIC,LF,lure,-,-,-,conservative,no,m,1,0.760115392906,3,286
2019_Oct_24,210,001,1,recog,70,SITTING,HF,lure,-,-,-,liberal,no,m,1,1.00003886024,1,287
2019_Oct_24,210,001,1,recog,71,KRAALS,LF,lure,-,-,-,conservative,no,m,1,0.680097399884,3,290
2019_Oct_24,210,001,1,recog,72,WINDOW,HF,lure,-,-,-,liberal,no,z,0,0.840070329696,-1,289
2019_Oct_24,210,001,1,recog,73,CLASS,HF,target,right,aqua,imageability,conservative,no,m,0,1.87964361497,-1,288
2019_Oct_24,210,001,1,recog,74,IMPORTANT,HF,target,right,aqua,imageability,liberal,no,z,1,0.853344033341,3,291
2019_Oct_24,210,001,1,recog,75,ACCORDING,HF,target,left,yellow,pleasantness,conservative,no,z,1,2.70574845549,1,292
2019_Oct_24,210,001,1,recog,76,TOOTHACHE,LF,lure,-,-,-,conservative,no,m,1,0.733451404907,3,295
2019_Oct_24,210,001,1,recog,77,CHURCH,HF,target,right,aqua,imageability,conservative,no,z,1,0.666780070125,1,296
2019_Oct_24,210,001,1,recog,78,QUESTION,HF,lure,-,-,-,conservative,yes,m,1,0.959805684153,3,299
2019_Oct_24,210,001,1,recog,79,AHEAD,HF,target,left,yellow,pleasantness,liberal,no,z,1,0.600164092848,3,302
2019_Oct_24,210,001,1,recog,80,MERELY,HF,lure,-,-,-,liberal,no,m,1,0.773447753512,1,303
2019_Oct_24,210,001,1,recog,81,TREES,HF,target,left,yellow,pleasantness,liberal,no,z,1,0.733208345126,3,306
2019_Oct_24,210,001,1,recog,82,GUSHED,LF,lure,-,-,-,liberal,no,m,1,0.575204822775,1,307
2019_Oct_24,210,001,1,recog,83,UMBILICAL,LF,target,right,aqua,imageability,liberal,no,z,1,0.573537498662,3,310
2019_Oct_24,210,001,1,recog,84,ENOUGH,HF,lure,-,-,-,conservative,no,m,1,0.693497949206,3,313
2019_Oct_24,210,001,1,recog,85,LIVED,HF,lure,-,-,-,conservative,no,m,1,0.746770567697,3,316
2019_Oct_24,210,001,1,recog,86,CLOSE,HF,lure,-,-,-,conservative,no,m,1,0.639878154828,3,319
2019_Oct_24,210,001,1,recog,87,RANGE,HF,target,right,aqua,imageability,liberal,no,z,1,0.853384360001,3,322
2019_Oct_24,210,001,1,recog,88,BASIC,HF,lure,-,-,-,liberal,no,m,1,2.3994300743,1,323
2019_Oct_24,210,001,1,recog,89,TODAY,HF,target,left,yellow,pleasantness,conservative,no,z,1,0.600148695396,1,324
2019_Oct_24,210,001,1,recog,90,RUNNING,HF,lure,-,-,-,conservative,no,m,1,1.11993038885,3,327
2019_Oct_24,210,001,1,recog,91,TIDILY,LF,lure,-,-,-,conservative,no,m,1,0.77350017817,3,330
2019_Oct_24,210,001,1,recog,92,TIPSY,LF,lure,-,-,-,liberal,no,m,1,0.773397895095,1,331
2019_Oct_24,210,001,1,recog,93,DOCTOR,HF,target,right,aqua,imageability,conservative,no,z,1,0.786503693189,1,332
2019_Oct_24,210,001,1,recog,94,EDUCATION,HF,target,left,yellow,pleasantness,liberal,no,z,1,1.01335948945,3,335
2019_Oct_24,210,001,1,recog,95,NEITHER,HF,lure,-,-,-,conservative,no,m,1,1.37292042743,3,338
2019_Oct_24,210,001,2,source,0,UNDER,HF,target,left,yellow,pleasantness,liberal,no,8,0,3.37242477611,-,-
2019_Oct_24,210,001,2,source,1,HOLED,LF,target,right,aqua,imageability,liberal,no,9,1,0.933388421996,-,-
2019_Oct_24,210,001,2,source,2,LOOKED,HF,target,right,aqua,imageability,liberal,no,9,1,0.866449831434,-,-
2019_Oct_24,210,001,2,source,3,GREATER,HF,target,right,aqua,imageability,liberal,no,9,1,0.693445891153,-,-
2019_Oct_24,210,001,2,source,4,SHALL,HF,target,left,yellow,pleasantness,conservative,no,2,1,0.826516905669,-,-
2019_Oct_24,210,001,2,source,5,THANK,HF,target,right,aqua,imageability,conservative,no,2,0,1.75967326606,-,-
2019_Oct_24,210,001,2,source,6,DIETING,LF,target,left,yellow,pleasantness,conservative,no,1,1,1.05329974734,-,-
2019_Oct_24,210,001,2,source,7,SMALL,HF,target,right,aqua,imageability,liberal,no,2,0,2.34612079521,-,-
2019_Oct_24,210,001,2,source,8,HAWKED,LF,target,left,yellow,pleasantness,liberal,no,2,1,1.5461857578,-,-
2019_Oct_24,210,001,2,source,9,TANGIER,LF,target,left,yellow,pleasantness,conservative,no,2,1,0.773477815204,-,-
2019_Oct_24,210,001,2,source,10,DREADING,LF,target,right,aqua,imageability,conservative,no,2,0,1.53287356052,-,-
2019_Oct_24,210,001,2,source,11,APART,HF,target,right,aqua,imageability,conservative,yes,2,0,0.893343314793,-,-
2019_Oct_24,210,001,2,source,12,HALLMARK,LF,target,left,yellow,pleasantness,liberal,no,1,1,1.87974039896,-,-
2019_Oct_24,210,001,2,source,13,CRACKLE,LF,target,right,aqua,imageability,conservative,no,9,1,1.21324041582,-,-
2019_Oct_24,210,001,2,source,14,BIBLES,LF,target,left,yellow,pleasantness,liberal,no,1,1,0.853372995215,-,-
2019_Oct_24,210,001,2,source,15,KITCHEN,HF,target,left,yellow,pleasantness,liberal,yes,8,0,1.62641528248,-,-
2019_Oct_24,210,001,2,source,16,BALDING,LF,target,left,yellow,pleasantness,liberal,no,1,1,4.14521923772,-,-
2019_Oct_24,210,001,2,source,17,RESEARCH,HF,target,left,yellow,pleasantness,conservative,no,1,1,1.05340093059,-,-
2019_Oct_24,210,001,2,source,18,IDEAS,HF,target,left,yellow,pleasantness,liberal,no,1,1,0.840077661816,-,-
2019_Oct_24,210,001,2,source,19,GADGET,LF,target,left,yellow,pleasantness,conservative,no,1,1,0.760159019021,-,-
2019_Oct_24,210,001,2,source,20,MINISTER,HF,target,left,yellow,pleasantness,conservative,no,1,1,0.720123443574,-,-
2019_Oct_24,210,001,2,source,21,CHIEF,HF,target,right,aqua,imageability,liberal,no,9,1,0.733163619193,-,-
2019_Oct_24,210,001,2,source,22,MILES,HF,target,right,aqua,imageability,conservative,no,8,1,1.35987255309,-,-
2019_Oct_24,210,001,2,source,23,JAILS,LF,target,left,yellow,pleasantness,conservative,no,1,1,0.66676577249,-,-
2019_Oct_24,210,001,2,source,24,INROADS,LF,target,right,aqua,imageability,liberal,no,9,1,0.706862937746,-,-
2019_Oct_24,210,001,2,source,25,ANEMONES,LF,target,right,aqua,imageability,liberal,no,9,1,0.66678960188,-,-
2019_Oct_24,210,001,2,source,26,EXACTLY,HF,target,left,yellow,pleasantness,conservative,no,2,1,2.26615082758,-,-
2019_Oct_24,210,001,2,source,27,AEONS,LF,target,right,aqua,imageability,liberal,no,8,1,1.27968298846,-,-
2019_Oct_24,210,001,2,source,28,OBVIOUSLY,HF,target,right,aqua,imageability,conservative,no,8,1,2.85256389576,-,-
2019_Oct_24,210,001,2,source,29,TERMS,HF,target,left,yellow,pleasantness,liberal,no,7,0,1.17324040115,-,-
2019_Oct_24,210,001,2,source,30,REOPEN,LF,target,left,yellow,pleasantness,conservative,no,1,1,1.13331040824,-,-
2019_Oct_24,210,001,2,source,31,SUDDENLY,HF,target,right,aqua,imageability,liberal,no,9,1,1.29296952331,-,-
2019_Oct_24,210,001,2,source,32,EVIDENCE,HF,target,left,yellow,pleasantness,liberal,no,1,1,0.853124436343,-,-
2019_Oct_24,210,001,2,source,33,BLUECOATS,LF,target,right,aqua,imageability,conservative,yes,2,0,0.906454978583,-,-
2019_Oct_24,210,001,2,source,34,LARGE,HF,target,left,yellow,pleasantness,liberal,no,1,1,1.21326277879,-,-
2019_Oct_24,210,001,2,source,35,SHORT,HF,target,right,aqua,imageability,conservative,no,8,1,1.46647937988,-,-
2019_Oct_24,210,001,2,source,36,ALMOST,HF,target,left,yellow,pleasantness,conservative,no,9,0,1.19971045458,-,-
2019_Oct_24,210,001,2,source,37,PIANOS,LF,target,right,aqua,imageability,conservative,no,9,1,0.59990966828,-,-
2019_Oct_24,210,001,2,source,38,HISTORY,HF,target,right,aqua,imageability,liberal,no,9,1,0.60016299303,-,-
2019_Oct_24,210,001,2,source,39,CUDDLE,LF,target,right,aqua,imageability,conservative,no,9,1,0.586598570823,-,-
2019_Oct_24,210,001,2,source,40,YOUNG,HF,target,left,yellow,pleasantness,conservative,no,9,0,0.573484340791,-,-
2019_Oct_24,210,001,2,source,41,LUGGED,LF,target,right,aqua,imageability,conservative,no,8,1,2.69242599325,-,-
2019_Oct_24,210,001,2,source,42,FABLE,LF,target,right,aqua,imageability,liberal,no,9,1,1.05327628455,-,-
2019_Oct_24,210,001,2,source,43,PRUDENTLY,LF,target,right,aqua,imageability,liberal,no,2,0,1.03998828327,-,-
2019_Oct_24,210,001,2,source,44,PINAFORE,LF,target,left,yellow,pleasantness,liberal,no,2,1,1.47977801273,-,-
2019_Oct_24,210,001,2,source,45,EXPECT,HF,target,right,aqua,imageability,conservative,no,2,0,1.38625132161,-,-
2019_Oct_24,210,001,2,source,46,ENROLMENT,LF,target,left,yellow,pleasantness,conservative,no,1,1,1.0799619023,-,-
2019_Oct_24,210,001,2,source,47,AVENGE,LF,target,left,yellow,pleasantness,liberal,yes,2,1,1.03993549201,-,-
2019_Oct_24,210,001,2,recog,0,SHORT,HF,target,right,aqua,imageability,conservative,no,z,1,1.69316470435,1,339
2019_Oct_24,210,001,2,recog,1,ANIMAL,HF,lure,-,-,-,liberal,no,m,1,0.78656418318,1,340
2019_Oct_24,210,001,2,recog,2,PIANOS,LF,target,right,aqua,imageability,conservative,no,z,1,0.679995116808,1,341
2019_Oct_24,210,001,2,recog,3,IDEAS,HF,target,left,yellow,pleasantness,liberal,no,z,1,0.626855942903,3,344
2019_Oct_24,210,001,2,recog,4,TROUBLE,HF,lure,-,-,-,liberal,no,m,1,0.68011976285,1,345
2019_Oct_24,210,001,2,recog,5,RETURN,HF,lure,-,-,-,conservative,no,m,1,0.920053495148,3,348
2019_Oct_24,210,001,2,recog,6,ANEMONES,LF,target,right,aqua,imageability,liberal,no,z,1,0.680096666671,3,351
2019_Oct_24,210,001,2,recog,7,ROWAN,LF,lure,-,-,-,conservative,no,m,1,0.639917748276,3,354
2019_Oct_24,210,001,2,recog,8,ENROLMENT,LF,target,left,yellow,pleasantness,conservative,no,z,1,1.7861136244,1,355
2019_Oct_24,210,001,2,recog,9,THANK,HF,target,right,aqua,imageability,conservative,no,m,0,0.786746386365,-1,354
2019_Oct_24,210,001,2,recog,10,SUDDENLY,HF,target,right,aqua,imageability,liberal,no,z,1,0.746754070427,3,357
2019_Oct_24,210,001,2,recog,11,HAWKED,LF,target,left,yellow,pleasantness,liberal,no,z,1,0.533559113752,3,360
2019_Oct_24,210,001,2,recog,12,EXACTLY,HF,target,left,yellow,pleasantness,conservative,no,z,1,0.706752222732,1,361
2019_Oct_24,210,001,2,recog,13,ARMAMENT,LF,lure,-,-,-,liberal,no,m,1,1.00001869691,1,362
2019_Oct_24,210,001,2,recog,14,WICKEDLY,LF,lure,-,-,-,liberal,no,m,1,0.786712292006,1,363
2019_Oct_24,210,001,2,recog,15,INSIDE,HF,lure,-,-,-,conservative,no,m,1,0.840081694482,3,366
2019_Oct_24,210,001,2,recog,16,REQUIRED,HF,lure,-,-,-,liberal,yes,z,0,0.999976537216,-1,365
2019_Oct_24,210,001,2,recog,17,BIBLES,LF,target,left,yellow,pleasantness,liberal,no,z,1,0.62688747102,3,368
2019_Oct_24,210,001,2,recog,18,SOMEONE,HF,lure,-,-,-,conservative,no,m,1,0.573494605759,3,371
2019_Oct_24,210,001,2,recog,19,FLUFF,LF,lure,-,-,-,conservative,no,m,1,1.54649004078,3,374
2019_Oct_24,210,001,2,recog,20,HYPNOSIS,LF,lure,-,-,-,liberal,no,m,1,0.693507114356,1,375
2019_Oct_24,210,001,2,recog,21,PINAFORE,LF,target,left,yellow,pleasantness,liberal,no,z,1,0.693447724183,3,378
2019_Oct_24,210,001,2,recog,22,VOYAGES,LF,lure,-,-,-,conservative,no,m,1,0.60014649576,3,381
2019_Oct_24,210,001,2,recog,23,HOPPER,LF,lure,-,-,-,liberal,no,m,1,0.97337193939,1,382
2019_Oct_24,210,001,2,recog,24,PROBABLY,HF,lure,-,-,-,liberal,no,z,0,1.17322133764,-1,381
2019_Oct_24,210,001,2,recog,25,ALLOWED,HF,lure,-,-,-,conservative,no,m,1,2.13282648831,3,384
2019_Oct_24,210,001,2,recog,26,ZEALOTS,LF,lure,-,-,-,conservative,no,m,1,0.560193406664,3,387
2019_Oct_24,210,001,2,recog,27,NAPPY,LF,lure,-,-,-,conservative,no,m,1,0.693435626185,3,390
2019_Oct_24,210,001,2,recog,28,ARRIVED,HF,lure,-,-,-,liberal,no,m,1,2.37280641297,1,391
2019_Oct_24,210,001,2,recog,29,MINISTER,HF,target,left,yellow,pleasantness,conservative,no,z,1,0.653458707699,1,392
2019_Oct_24,210,001,2,recog,30,HISTORY,HF,target,right,aqua,imageability,liberal,no,z,1,0.586822933698,3,395
2019_Oct_24,210,001,2,recog,31,DRINK,HF,lure,-,-,-,liberal,yes,z,0,0.880017186489,-1,394
2019_Oct_24,210,001,2,recog,32,MEANS,HF,lure,-,-,-,conservative,no,m,1,0.666812331453,3,397
2019_Oct_24,210,001,2,recog,33,INTEREST,HF,lure,-,-,-,liberal,no,m,1,0.880031484124,1,398
2019_Oct_24,210,001,2,recog,34,CANNOT,HF,lure,-,-,-,conservative,no,m,1,0.600466909409,3,401
2019_Oct_24,210,001,2,recog,35,ARGUABLE,LF,lure,-,-,-,liberal,no,m,1,0.666554240825,1,402
2019_Oct_24,210,001,2,recog,36,RUPTURE,LF,lure,-,-,-,conservative,no,m,1,0.813492127503,3,405
2019_Oct_24,210,001,2,recog,37,SOCIAL,HF,lure,-,-,-,liberal,no,m,1,0.680196750111,1,406
2019_Oct_24,210,001,2,recog,38,SMALL,HF,target,right,aqua,imageability,liberal,yes,z,1,0.773156668343,3,409
2019_Oct_24,210,001,2,recog,39,ALMOST,HF,target,left,yellow,pleasantness,conservative,no,m,0,2.4660409191,-1,408
2019_Oct_24,210,001,2,recog,40,SERIOUS,HF,lure,-,-,-,liberal,no,m,1,0.853366029701,1,409
2019_Oct_24,210,001,2,recog,41,INROADS,LF,target,right,aqua,imageability,liberal,no,z,1,1.79971580702,3,412
2019_Oct_24,210,001,2,recog,42,SCABS,LF,lure,-,-,-,liberal,no,m,1,0.786514691369,1,413
2019_Oct_24,210,001,2,recog,43,HALLMARK,LF,target,left,yellow,pleasantness,liberal,no,z,1,0.560544615218,3,416
2019_Oct_24,210,001,2,recog,44,WETTER,LF,lure,-,-,-,liberal,no,m,1,0.693478885694,1,417
2019_Oct_24,210,001,2,recog,45,YOUNG,HF,target,left,yellow,pleasantness,conservative,no,z,1,0.5601406154,1,418
2019_Oct_24,210,001,2,recog,46,EXPECT,HF,target,right,aqua,imageability,conservative,no,z,1,0.546790657706,1,419
2019_Oct_24,210,001,2,recog,47,POWER,HF,lure,-,-,-,liberal,no,m,1,0.600167392302,1,420
2019_Oct_24,210,001,2,recog,48,ORIGINALS,LF,lure,-,-,-,conservative,no,m,1,0.600128898671,3,423
2019_Oct_24,210,001,2,recog,49,BALDING,LF,target,left,yellow,pleasantness,liberal,no,z,1,0.666814897695,3,426
2019_Oct_24,210,001,2,recog,50,AVENGE,LF,target,left,yellow,pleasantness,liberal,no,z,1,0.959852976328,3,429
2019_Oct_24,210,001,2,recog,51,LINEAGE,LF,lure,-,-,-,conservative,no,m,1,0.640178405147,3,432
2019_Oct_24,210,001,2,recog,52,PISTONS,LF,lure,-,-,-,liberal,no,m,1,0.693545974593,1,433
2019_Oct_24,210,001,2,recog,53,SHUNNED,LF,lure,-,-,-,liberal,no,z,0,0.640138078486,-1,432
2019_Oct_24,210,001,2,recog,54,PRUDENTLY,LF,target,right,aqua,imageability,liberal,no,z,1,0.813174646702,3,435
2019_Oct_24,210,001,2,recog,55,YEOMAN,LF,lure,-,-,-,conservative,no,m,1,0.573490939699,3,438
2019_Oct_24,210,001,2,recog,56,WALKED,HF,lure,-,-,-,conservative,no,m,1,0.84034895026,3,441
2019_Oct_24,210,001,2,recog,57,HOLED,LF,target,right,aqua,imageability,liberal,no,z,1,0.880076943268,3,444
2019_Oct_24,210,001,2,recog,58,FABLE,LF,target,right,aqua,imageability,liberal,no,z,1,0.600453344987,3,447
2019_Oct_24,210,001,2,recog,59,SHALL,HF,target,left,yellow,pleasantness,conservative,no,m,0,1.09331295982,-1,446
2019_Oct_24,210,001,2,recog,60,SUAVE,LF,lure,-,-,-,conservative,no,m,1,1.59951703325,3,449
2019_Oct_24,210,001,2,recog,61,REOPEN,LF,target,left,yellow,pleasantness,conservative,no,z,1,0.640185737267,1,450
2019_Oct_24,210,001,2,recog,62,NUCLEAR,HF,lure,-,-,-,conservative,no,m,1,0.680158989693,3,453
2019_Oct_24,210,001,2,recog,63,MUMBLES,LF,lure,-,-,-,liberal,no,m,1,0.733458003816,1,454
2019_Oct_24,210,001,2,recog,64,OBVIOUSLY,HF,target,right,aqua,imageability,conservative,no,z,1,0.586589039067,1,455
2019_Oct_24,210,001,2,recog,65,CUDDLE,LF,target,right,aqua,imageability,conservative,no,z,1,0.586556777738,1,456
2019_Oct_24,210,001,2,recog,66,REJOICED,LF,lure,-,-,-,liberal,no,m,1,0.75983787216,1,457
2019_Oct_24,210,001,2,recog,67,UNDER,HF,target,left,yellow,pleasantness,liberal,yes,z,1,0.773430156424,3,460
2019_Oct_24,210,001,2,recog,68,BLUECOATS,LF,target,right,aqua,imageability,conservative,no,z,1,0.773439688179,1,461
2019_Oct_24,210,001,2,recog,69,DREADING,LF,target,right,aqua,imageability,conservative,no,z,1,0.813381045883,1,462
2019_Oct_24,210,001,2,recog,70,ANSWER,HF,lure,-,-,-,conservative,no,m,1,0.880040649274,3,465
2019_Oct_24,210,001,2,recog,71,STEADFAST,LF,lure,-,-,-,conservative,no,m,1,0.906698771576,3,468
2019_Oct_24,210,001,2,recog,72,PHYSICAL,HF,lure,-,-,-,conservative,no,m,1,0.693425727823,3,471
2019_Oct_24,210,001,2,recog,73,CRACKLE,LF,target,right,aqua,imageability,conservative,no,z,1,0.70675515558,1,472
2019_Oct_24,210,001,2,recog,74,LUGGED,LF,target,right,aqua,imageability,conservative,no,z,1,0.86670168976,1,473
2019_Oct_24,210,001,2,recog,75,NIGHT,HF,lure,-,-,-,liberal,no,m,1,1.11970529276,1,474
2019_Oct_24,210,001,2,recog,76,AEONS,LF,target,right,aqua,imageability,liberal,no,m,0,0.573480674731,-3,471
2019_Oct_24,210,001,2,recog,77,GREATER,HF,target,right,aqua,imageability,liberal,no,z,1,1.39980694528,3,474
2019_Oct_24,210,001,2,recog,78,LARGE,HF,target,left,yellow,pleasantness,liberal,no,z,1,0.666815997513,3,477
2019_Oct_24,210,001,2,recog,79,APART,HF,target,right,aqua,imageability,conservative,no,m,0,0.760077632488,-1,476
2019_Oct_24,210,001,2,recog,80,VEHEMENCE,LF,lure,-,-,-,liberal,no,m,1,0.906736165389,1,477
2019_Oct_24,210,001,2,recog,81,JAILS,LF,target,left,yellow,pleasantness,conservative,no,z,1,0.653459074305,1,478
2019_Oct_24,210,001,2,recog,82,GADGET,LF,target,left,yellow,pleasantness,conservative,no,z,1,0.613490954363,1,479
2019_Oct_24,210,001,2,recog,83,CHIEF,HF,target,right,aqua,imageability,liberal,no,z,1,0.493265814283,3,482
2019_Oct_24,210,001,2,recog,84,ENTIRELY,HF,lure,-,-,-,conservative,no,m,1,0.720161570599,3,485
2019_Oct_24,210,001,2,recog,85,MILES,HF,target,right,aqua,imageability,conservative,no,z,1,0.546628617852,1,486
2019_Oct_24,210,001,2,recog,86,DALES,LF,lure,-,-,-,conservative,no,m,1,0.640286553918,3,489
2019_Oct_24,210,001,2,recog,87,EVIDENCE,HF,target,left,yellow,pleasantness,liberal,no,z,1,0.533492391459,3,492
2019_Oct_24,210,001,2,recog,88,TERMS,HF,target,left,yellow,pleasantness,liberal,no,z,1,0.733651938393,3,495
2019_Oct_24,210,001,2,recog,89,DIETING,LF,target,left,yellow,pleasantness,conservative,no,z,1,0.693501981872,1,496
2019_Oct_24,210,001,2,recog,90,LOOKED,HF,target,right,aqua,imageability,liberal,no,z,1,0.813430537693,3,499
2019_Oct_24,210,001,2,recog,91,KITCHEN,HF,target,left,yellow,pleasantness,liberal,no,z,1,0.600211018417,3,502
2019_Oct_24,210,001,2,recog,92,POINT,HF,lure,-,-,-,liberal,no,m,1,0.706740124734,1,503
2019_Oct_24,210,001,2,recog,93,TANGIER,LF,target,left,yellow,pleasantness,conservative,no,z,1,0.680140292786,1,504
2019_Oct_24,210,001,2,recog,94,RESEARCH,HF,target,left,yellow,pleasantness,conservative,no,z,1,0.54661688646,1,505
2019_Oct_24,210,001,2,recog,95,HEALTH,HF,lure,-,-,-,conservative,no,m,1,0.680097033278,3,508
2019_Oct_24,210,001,3,source,0,FRIEND,HF,target,right,aqua,imageability,conservative,no,1,0,2.18594806513,-,-
2019_Oct_24,210,001,3,source,1,CORNER,HF,target,right,aqua,imageability,liberal,no,9,1,1.01336095587,-,-
2019_Oct_24,210,001,3,source,2,DOUBT,HF,target,right,aqua,imageability,conservative,no,9,1,1.57298502341,-,-
2019_Oct_24,210,001,3,source,3,SOUND,HF,target,right,aqua,imageability,liberal,no,9,1,0.65324021052,-,-
2019_Oct_24,210,001,3,source,4,ALONE,HF,target,left,yellow,pleasantness,liberal,yes,8,0,1.11992452316,-,-
2019_Oct_24,210,001,3,source,5,LEDGES,LF,target,left,yellow,pleasantness,conservative,no,2,1,4.26537435606,-,-
2019_Oct_24,210,001,3,source,6,HANDS,HF,target,right,aqua,imageability,liberal,yes,9,1,0.840058598304,-,-
2019_Oct_24,210,001,3,source,7,FIELD,HF,target,left,yellow,pleasantness,conservative,no,1,1,1.4398531523,-,-
2019_Oct_24,210,001,3,source,8,FOLLOWED,HF,target,left,yellow,pleasantness,conservative,no,1,1,1.66642922818,-,-
2019_Oct_24,210,001,3,source,9,BOOKS,HF,target,right,aqua,imageability,liberal,no,8,1,1.34628906737,-,-
2019_Oct_24,210,001,3,source,10,KICKER,LF,target,left,yellow,pleasantness,liberal,no,1,1,0.839829102944,-,-
2019_Oct_24,210,001,3,source,11,RAGES,LF,target,right,aqua,imageability,liberal,no,8,1,1.23970240391,-,-
2019_Oct_24,210,001,3,source,12,FOCUSES,LF,target,right,aqua,imageability,conservative,no,9,1,0.919792838278,-,-
2019_Oct_24,210,001,3,source,13,POLICE,HF,target,left,yellow,pleasantness,liberal,no,1,1,0.946670557578,-,-
2019_Oct_24,210,001,3,source,14,UPHEAVALS,LF,target,left,yellow,pleasantness,liberal,no,2,1,1.27966832421,-,-
2019_Oct_24,210,001,3,source,15,EUPHEMISM,LF,target,left,yellow,pleasantness,conservative,no,2,1,0.813407808121,-,-
2019_Oct_24,210,001,3,source,16,HOARD,LF,target,right,aqua,imageability,conservative,no,9,1,0.920023800062,-,-
2019_Oct_24,210,001,3,source,17,SUCCESS,HF,target,right,aqua,imageability,conservative,no,9,1,0.786464832952,-,-
2019_Oct_24,210,001,3,source,18,SEQUEL,LF,target,right,aqua,imageability,liberal,yes,8,1,1.039971786,-,-
2019_Oct_24,210,001,3,source,19,NINETIES,LF,target,right,aqua,imageability,liberal,no,9,1,0.720057087887,-,-
2019_Oct_24,210,001,3,source,20,NURTURING,LF,target,left,yellow,pleasantness,liberal,no,9,0,0.586583906583,-,-
2019_Oct_24,210,001,3,source,21,BOASTS,LF,target,left,yellow,pleasantness,conservative,no,9,0,1.05327885079,-,-
2019_Oct_24,210,001,3,source,22,MITIGATE,LF,target,right,aqua,imageability,liberal,no,2,0,1.00009715059,-,-
2019_Oct_24,210,001,3,source,23,FLYWHEEL,LF,target,left,yellow,pleasantness,liberal,no,2,1,1.06662294279,-,-
2019_Oct_24,210,001,3,source,24,YEARN,LF,target,left,yellow,pleasantness,conservative,no,2,1,1.10642865627,-,-
2019_Oct_24,210,001,3,source,25,WARDROBES,LF,target,right,aqua,imageability,conservative,no,8,1,1.09334082187,-,-
2019_Oct_24,210,001,3,source,26,MUSIC,HF,target,right,aqua,imageability,liberal,no,9,1,0.707060171777,-,-
2019_Oct_24,210,001,3,source,27,MAMMAL,LF,target,left,yellow,pleasantness,conservative,no,9,0,0.70686990326,-,-
2019_Oct_24,210,001,3,source,28,SILENCER,LF,target,right,aqua,imageability,liberal,no,9,1,0.599876307134,-,-
2019_Oct_24,210,001,3,source,29,GENERAL,HF,target,right,aqua,imageability,conservative,no,9,1,1.10659912806,-,-
2019_Oct_24,210,001,3,source,30,DAPPER,LF,target,left,yellow,pleasantness,conservative,no,1,1,1.07996593497,-,-
2019_Oct_24,210,001,3,source,31,THING,HF,target,left,yellow,pleasantness,liberal,no,2,1,1.06661671049,-,-
2019_Oct_24,210,001,3,source,32,LUNACY,LF,target,right,aqua,imageability,conservative,no,8,1,1.39983407412,-,-
2019_Oct_24,210,001,3,source,33,GYMKHANA,LF,target,left,yellow,pleasantness,liberal,no,2,1,1.06664897182,-,-
2019_Oct_24,210,001,3,source,34,SABLE,LF,target,right,aqua,imageability,conservative,no,2,0,1.87967440987,-,-
2019_Oct_24,210,001,3,source,35,DEVELOPED,HF,target,left,yellow,pleasantness,liberal,no,9,0,1.17328659351,-,-
2019_Oct_24,210,001,3,source,36,TRUTH,HF,target,left,yellow,pleasantness,liberal,no,1,1,1.55978097491,-,-
2019_Oct_24,210,001,3,source,37,RATHER,HF,target,right,aqua,imageability,conservative,no,9,1,1.05306511949,-,-
2019_Oct_24,210,001,3,source,38,CERTAIN,HF,target,left,yellow,pleasantness,conservative,no,8,0,0.920071092236,-,-
2019_Oct_24,210,001,3,source,39,OFTEN,HF,target,left,yellow,pleasantness,conservative,no,1,1,0.960015382788,-,-
2019_Oct_24,210,001,3,source,40,SWAGGER,LF,target,left,yellow,pleasantness,liberal,no,1,1,0.626594552822,-,-
2019_Oct_24,210,001,3,source,41,PASSED,HF,target,left,yellow,pleasantness,conservative,no,8,0,2.50583930046,-,-
2019_Oct_24,210,001,3,source,42,EITHER,HF,target,right,aqua,imageability,conservative,no,8,1,1.33315210776,-,-
2019_Oct_24,210,001,3,source,43,HACKNEY,LF,target,right,aqua,imageability,conservative,no,2,0,0.893136549006,-,-
2019_Oct_24,210,001,3,source,44,MAKES,HF,target,left,yellow,pleasantness,liberal,no,8,0,0.733437840485,-,-
2019_Oct_24,210,001,3,source,45,OFFER,HF,target,left,yellow,pleasantness,conservative,no,2,1,0.786487562525,-,-
2019_Oct_24,210,001,3,source,46,UNOPENED,LF,target,right,aqua,imageability,liberal,no,9,1,1.05328141703,-,-
2019_Oct_24,210,001,3,source,47,VOICE,HF,target,right,aqua,imageability,liberal,yes,8,1,0.746794763693,-,-
2019_Oct_24,210,001,3,recog,0,LUNACY,LF,target,right,aqua,imageability,conservative,no,z,1,1.18645141517,1,509
2019_Oct_24,210,001,3,recog,1,RATHER,HF,target,right,aqua,imageability,conservative,no,z,1,0.706824810722,1,510
2019_Oct_24,210,001,3,recog,2,GABLE,LF,lure,-,-,-,conservative,no,z,0,0.586820367456,-3,507
2019_Oct_24,210,001,3,recog,3,WHETHER,HF,lure,-,-,-,liberal,no,z,0,1.38654790587,-1,506
2019_Oct_24,210,001,3,recog,4,CORNER,HF,target,right,aqua,imageability,liberal,no,z,1,0.799827988462,3,509
2019_Oct_24,210,001,3,recog,5,LEDGES,LF,target,left,yellow,pleasantness,conservative,no,z,1,0.706754422368,1,510
2019_Oct_24,210,001,3,recog,6,ORCHARDS,LF,lure,-,-,-,liberal,no,m,1,0.760103294908,1,511
2019_Oct_24,210,001,3,recog,7,SEMANTIC,LF,lure,-,-,-,conservative,no,z,0,0.613466758367,-3,508
2019_Oct_24,210,001,3,recog,8,ITSELF,HF,lure,-,-,-,conservative,no,m,1,0.87977302689,3,511
2019_Oct_24,210,001,3,recog,9,FOLLOWED,HF,target,left,yellow,pleasantness,conservative,no,z,1,1.733054004,1,512
2019_Oct_24,210,001,3,recog,10,NERVY,LF,lure,-,-,-,conservative,yes,m,1,0.99999633394,3,515
2019_Oct_24,210,001,3,recog,11,CUISINE,LF,lure,-,-,-,conservative,no,m,1,1.4265336229,3,518
2019_Oct_24,210,001,3,recog,12,SILENCER,LF,target,right,aqua,imageability,liberal,no,z,1,0.626666774204,3,521
2019_Oct_24,210,001,3,recog,13,SABLE,LF,target,right,aqua,imageability,conservative,no,z,1,0.546816320126,1,522
2019_Oct_24,210,001,3,recog,14,COUNCIL,HF,lure,-,-,-,conservative,no,m,1,0.733487332296,3,525
2019_Oct_24,210,001,3,recog,15,VANDALS,LF,lure,-,-,-,conservative,yes,m,1,0.946687054849,3,528
2019_Oct_24,210,001,3,recog,16,OUTSIDE,HF,lure,-,-,-,conservative,no,m,1,1.59954599512,3,531
2019_Oct_24,210,001,3,recog,17,MITIGATE,LF,target,right,aqua,imageability,liberal,no,z,1,0.946689621091,3,534
2019_Oct_24,210,001,3,recog,18,YARDSTICK,LF,lure,-,-,-,liberal,yes,z,0,0.746798429753,-1,533
2019_Oct_24,210,001,3,recog,19,FORCE,HF,lure,-,-,-,conservative,no,z,0,1.23984428043,-3,530
2019_Oct_24,210,001,3,recog,20,UPHEAVALS,LF,target,left,yellow,pleasantness,liberal,no,z,1,6.26459495169,3,533
2019_Oct_24,210,001,3,recog,21,EUPHEMISM,LF,target,left,yellow,pleasantness,conservative,no,z,1,1.30652844643,1,534
2019_Oct_24,210,001,3,recog,22,TRUTH,HF,target,left,yellow,pleasantness,liberal,no,z,1,0.640129646548,3,537
2019_Oct_24,210,001,3,recog,23,EASILY,HF,lure,-,-,-,conservative,no,m,1,1.30655190921,3,540
2019_Oct_24,210,001,3,recog,24,FOCUSES,LF,target,right,aqua,imageability,conservative,no,m,0,0.810801606027,-1,539
2019_Oct_24,210,001,3,recog,25,FATHER,HF,lure,-,-,-,conservative,no,m,1,0.89314901361,3,542
2019_Oct_24,210,001,3,recog,26,PICTURE,HF,lure,-,-,-,conservative,no,m,1,0.693449190607,3,545
2019_Oct_24,210,001,3,recog,27,TICKLE,LF,lure,-,-,-,conservative,no,m,1,0.666539209979,3,548
2019_Oct_24,210,001,3,recog,28,BOOKS,HF,target,right,aqua,imageability,liberal,no,z,1,0.600165192666,3,551
2019_Oct_24,210,001,3,recog,29,MATERIAL,HF,lure,-,-,-,liberal,no,m,1,0.680096666671,1,552
2019_Oct_24,210,001,3,recog,30,EBULLIENT,LF,lure,-,-,-,conservative,no,m,1,0.760060035399,3,555
2019_Oct_24,210,001,3,recog,31,HANDS,HF,target,right,aqua,imageability,liberal,no,z,1,0.586636331242,3,558
2019_Oct_24,210,001,3,recog,32,MAMMAL,LF,target,left,yellow,pleasantness,conservative,no,z,1,0.546832450791,1,559
2019_Oct_24,210,001,3,recog,33,REPORT,HF,lure,-,-,-,conservative,no,m,1,0.746730241036,3,562
2019_Oct_24,210,001,3,recog,34,MOMENT,HF,lure,-,-,-,liberal,no,m,1,1.18658779261,1,563
2019_Oct_24,210,001,3,recog,35,KICKER,LF,target,left,yellow,pleasantness,liberal,no,z,1,0.586777474554,3,566
2019_Oct_24,210,001,3,recog,36,IDYLL,LF,lure,-,-,-,liberal,no,m,1,0.533526852424,1,567
2019_Oct_24,210,001,3,recog,37,ENAMELLED,LF,lure,-,-,-,liberal,no,m,1,0.733422443033,1,568
2019_Oct_24,210,001,3,recog,38,DEVELOPED,HF,target,left,yellow,pleasantness,liberal,no,z,1,0.693456889333,3,571
2019_Oct_24,210,001,3,recog,39,SUCCESS,HF,target,right,aqua,imageability,conservative,no,z,1,0.533477360613,1,572
2019_Oct_24,210,001,3,recog,40,OFTEN,HF,target,left,yellow,pleasantness,conservative,no,z,1,0.573524300845,1,573
2019_Oct_24,210,001,3,recog,41,PIPELINES,LF,lure,-,-,-,conservative,no,m,1,0.760097795818,3,576
2019_Oct_24,210,001,3,recog,42,YEARN,LF,target,left,yellow,pleasantness,conservative,no,z,1,0.693294482873,1,577
2019_Oct_24,210,001,3,recog,43,DANDELION,LF,lure,-,-,-,conservative,no,m,1,0.586833565273,3,580
2019_Oct_24,210,001,3,recog,44,YANKED,LF,lure,-,-,-,conservative,no,z,0,0.600203686297,-3,577
2019_Oct_24,210,001,3,recog,45,PASSED,HF,target,left,yellow,pleasantness,conservative,no,m,0,0.733422076427,-1,576
2019_Oct_24,210,001,3,recog,46,FISHY,LF,lure,-,-,-,liberal,no,m,1,0.760064801278,1,577
2019_Oct_24,210,001,3,recog,47,DIVAN,LF,lure,-,-,-,liberal,no,m,1,0.586810469094,1,578
2019_Oct_24,210,001,3,recog,48,LIARS,LF,lure,-,-,-,liberal,no,m,1,0.68010326558,1,579
2019_Oct_24,210,001,3,recog,49,NINETIES,LF,target,right,aqua,imageability,liberal,no,z,1,0.586552745072,3,582
2019_Oct_24,210,001,3,recog,50,HARDLY,HF,lure,-,-,-,conservative,no,m,1,0.813541252707,3,585
2019_Oct_24,210,001,3,recog,51,CERTAIN,HF,target,left,yellow,pleasantness,conservative,no,z,1,0.56014428146,1,586
2019_Oct_24,210,001,3,recog,52,GENERAL,HF,target,right,aqua,imageability,conservative,no,z,1,0.520174328487,1,587
2019_Oct_24,210,001,3,recog,53,HAPPEN,HF,lure,-,-,-,liberal,no,m,1,0.786771682179,1,588
2019_Oct_24,210,001,3,recog,54,DAPPER,LF,target,left,yellow,pleasantness,conservative,no,z,1,0.560144648066,1,589
2019_Oct_24,210,001,3,recog,55,THING,HF,target,left,yellow,pleasantness,liberal,no,z,1,0.826493076279,3,592
2019_Oct_24,210,001,3,recog,56,FILAMENTS,LF,lure,-,-,-,liberal,no,m,1,0.640204800779,1,593
2019_Oct_24,210,001,3,recog,57,EITHER,HF,target,right,aqua,imageability,conservative,no,z,1,0.600133297944,1,594
2019_Oct_24,210,001,3,recog,58,BOASTS,LF,target,left,yellow,pleasantness,conservative,no,z,1,0.760050503643,1,595
2019_Oct_24,210,001,3,recog,59,LATER,HF,lure,-,-,-,conservative,no,m,1,0.96003078024,3,598
2019_Oct_24,210,001,3,recog,60,POLICE,HF,target,left,yellow,pleasantness,liberal,no,z,1,0.680095566853,3,601
2019_Oct_24,210,001,3,recog,61,SOUND,HF,target,right,aqua,imageability,liberal,no,z,1,0.613497553271,3,604
2019_Oct_24,210,001,3,recog,62,WARDROBES,LF,target,right,aqua,imageability,conservative,no,z,1,0.653168355743,1,605
2019_Oct_24,210,001,3,recog,63,TWENTY,HF,lure,-,-,-,liberal,no,m,1,2.27948612103,1,606
2019_Oct_24,210,001,3,recog,64,BEHIND,HF,lure,-,-,-,liberal,no,m,1,0.94666395867,1,607
2019_Oct_24,210,001,3,recog,65,MARKET,HF,lure,-,-,-,conservative,no,m,1,1.03971699483,3,610
2019_Oct_24,210,001,3,recog,66,UNOPENED,LF,target,right,aqua,imageability,liberal,no,z,1,0.626879405688,3,613
2019_Oct_24,210,001,3,recog,67,MYSELF,HF,lure,-,-,-,liberal,no,m,1,0.733509695262,1,614
2019_Oct_24,210,001,3,recog,68,RUMBLED,LF,lure,-,-,-,conservative,no,m,1,0.773422091091,3,617
2019_Oct_24,210,001,3,recog,69,IDOLATRY,LF,lure,-,-,-,liberal,no,m,1,0.77345435242,1,618
2019_Oct_24,210,001,3,recog,70,VOICE,HF,target,right,aqua,imageability,liberal,no,z,1,0.746743805459,3,621
2019_Oct_24,210,001,3,recog,71,UPROOTED,LF,lure,-,-,-,liberal,no,m,1,0.573264010582,1,622
2019_Oct_24,210,001,3,recog,72,SWAGGER,LF,target,left,yellow,pleasantness,liberal,no,z,1,0.520183127032,3,625
2019_Oct_24,210,001,3,recog,73,HACKNEY,LF,target,right,aqua,imageability,conservative,no,z,1,0.640174005875,1,626
2019_Oct_24,210,001,3,recog,74,PIVOT,LF,lure,-,-,-,liberal,no,m,1,0.560136949339,1,627
2019_Oct_24,210,001,3,recog,75,MAKES,HF,target,left,yellow,pleasantness,liberal,no,z,1,1.10654816983,3,630
2019_Oct_24,210,001,3,recog,76,DOUBT,HF,target,right,aqua,imageability,conservative,no,m,0,0.853284276562,-1,629
2019_Oct_24,210,001,3,recog,77,ALONE,HF,target,left,yellow,pleasantness,liberal,no,z,1,0.986844710095,3,632
2019_Oct_24,210,001,3,recog,78,OFFER,HF,target,left,yellow,pleasantness,conservative,no,z,1,0.733528392169,1,633
2019_Oct_24,210,001,3,recog,79,HOARD,LF,target,right,aqua,imageability,conservative,yes,m,0,0.960031513453,-1,632
2019_Oct_24,210,001,3,recog,80,MUSIC,HF,target,right,aqua,imageability,liberal,no,z,1,0.786762883635,3,635
2019_Oct_24,210,001,3,recog,81,CONCERNED,HF,lure,-,-,-,liberal,no,m,1,0.866460463008,1,636
2019_Oct_24,210,001,3,recog,82,WESTERN,HF,lure,-,-,-,liberal,no,m,1,0.653457974487,1,637
2019_Oct_24,210,001,3,recog,83,CAPITAL,HF,lure,-,-,-,liberal,no,m,1,0.573479941519,1,638
2019_Oct_24,210,001,3,recog,84,VOWEL,LF,lure,-,-,-,conservative,no,m,1,0.693419862127,3,641
2019_Oct_24,210,001,3,recog,85,NURTURING,LF,target,left,yellow,pleasantness,liberal,no,z,1,0.706517961495,3,644
2019_Oct_24,210,001,3,recog,86,GYMKHANA,LF,target,left,yellow,pleasantness,liberal,no,z,1,0.706969986699,3,647
2019_Oct_24,210,001,3,recog,87,SAYING,HF,lure,-,-,-,liberal,no,m,1,0.586812302124,1,648
2019_Oct_24,210,001,3,recog,88,RAGES,LF,target,right,aqua,imageability,liberal,no,z,1,1.71982649271,3,651
2019_Oct_24,210,001,3,recog,89,BEGAN,HF,lure,-,-,-,conservative,no,m,1,0.586849329331,3,654
2019_Oct_24,210,001,3,recog,90,TYCOONS,LF,lure,-,-,-,liberal,no,m,1,0.613448428067,1,655
2019_Oct_24,210,001,3,recog,91,FIELD,HF,target,left,yellow,pleasantness,conservative,no,m,0,0.746740139398,-1,654
2019_Oct_24,210,001,3,recog,92,SEQUEL,LF,target,right,aqua,imageability,liberal,no,z,1,0.56019010721,3,657
2019_Oct_24,210,001,3,recog,93,VARIOUS,HF,lure,-,-,-,liberal,no,m,1,0.666803532908,1,658
2019_Oct_24,210,001,3,recog,94,FRIEND,HF,target,right,aqua,imageability,conservative,no,z,1,0.573492039518,1,659
2019_Oct_24,210,001,3,recog,95,FLYWHEEL,LF,target,left,yellow,pleasantness,liberal,no,z,1,0.666770904974,3,662
2019_Oct_24,210,001,4,source,0,AMONG,HF,target,left,yellow,pleasantness,liberal,no,2,1,1.09337821568,-,-
2019_Oct_24,210,001,4,source,1,POPES,LF,target,left,yellow,pleasantness,conservative,no,1,1,0.733252704453,-,-
2019_Oct_24,210,001,4,source,2,GLEANED,LF,target,right,aqua,imageability,conservative,no,9,1,0.640129646548,-,-
2019_Oct_24,210,001,4,source,3,CICADAS,LF,target,right,aqua,imageability,conservative,no,8,1,3.13245804927,-,-
2019_Oct_24,210,001,4,source,4,ENERGY,HF,target,right,aqua,imageability,conservative,no,8,1,0.853371528791,-,-
2019_Oct_24,210,001,4,source,5,SECOND,HF,target,right,aqua,imageability,conservative,no,8,1,1.58616744216,-,-
2019_Oct_24,210,001,4,source,6,NOXIOUS,LF,target,right,aqua,imageability,liberal,no,8,1,0.733503829566,-,-
2019_Oct_24,210,001,4,source,7,RIOTERS,LF,target,right,aqua,imageability,liberal,no,8,1,0.946456093065,-,-
2019_Oct_24,210,001,4,source,8,FUTURE,HF,target,left,yellow,pleasantness,conservative,yes,2,1,1.09328326473,-,-
2019_Oct_24,210,001,4,source,9,LIKELY,HF,target,left,yellow,pleasantness,liberal,no,8,0,2.13286608176,-,-
2019_Oct_24,210,001,4,source,10,SIMILAR,HF,target,right,aqua,imageability,conservative,no,8,1,1.33318033643,-,-
2019_Oct_24,210,001,4,source,11,TOWARDS,HF,target,left,yellow,pleasantness,conservative,no,7,0,1.77303972103,-,-
2019_Oct_24,210,001,4,source,12,PLEASE,HF,target,left,yellow,pleasantness,liberal,no,1,1,1.35961886173,-,-
2019_Oct_24,210,001,4,source,13,DIFFERENT,HF,target,right,aqua,imageability,liberal,no,1,0,0.839818837976,-,-
2019_Oct_24,210,001,4,source,14,EXCEPT,HF,target,right,aqua,imageability,conservative,no,2,0,0.439984763854,-,-
2019_Oct_24,210,001,4,source,15,LICENSING,LF,target,left,yellow,pleasantness,liberal,no,8,0,0.599893537616,-,-
2019_Oct_24,210,001,4,source,16,THEORY,HF,target,left,yellow,pleasantness,conservative,no,2,1,0.599992521238,-,-
2019_Oct_24,210,001,4,source,17,VALUE,HF,target,left,yellow,pleasantness,conservative,no,7,0,0.34666153907,-,-
2019_Oct_24,210,001,4,source,18,SEABED,LF,target,right,aqua,imageability,conservative,no,1,0,0.280044461976,-,-
2019_Oct_24,210,001,4,source,19,FIDDLED,LF,target,right,aqua,imageability,conservative,no,8,1,0.160352367028,-,-
2019_Oct_24,210,001,4,source,20,VAINLY,LF,target,left,yellow,pleasantness,liberal,yes,8,0,1.63983012944,-,-
2019_Oct_24,210,001,4,source,21,AFTERNOON,HF,target,left,yellow,pleasantness,liberal,no,2,1,2.77239229482,-,-
2019_Oct_24,210,001,4,source,22,MUTATIONS,LF,target,left,yellow,pleasantness,conservative,no,1,1,2.17286169715,-,-
2019_Oct_24,210,001,4,source,23,MALIGNED,LF,target,left,yellow,pleasantness,conservative,no,1,1,1.35982159485,-,-
2019_Oct_24,210,001,4,source,24,ALABASTER,LF,target,left,yellow,pleasantness,liberal,no,8,0,0.920093821809,-,-
2019_Oct_24,210,001,4,source,25,STAFF,HF,target,right,aqua,imageability,liberal,no,1,0,1.0666233094,-,-
2019_Oct_24,210,001,4,source,26,TASSELS,LF,target,left,yellow,pleasantness,liberal,no,1,1,0.959980555217,-,-
2019_Oct_24,210,001,4,source,27,WHITE,HF,target,right,aqua,imageability,liberal,no,9,1,1.62644387775,-,-
2019_Oct_24,210,001,4,source,28,CELLO,LF,target,right,aqua,imageability,liberal,no,9,1,0.95978662064,-,-
2019_Oct_24,210,001,4,source,29,STUDENT,HF,target,right,aqua,imageability,liberal,no,1,0,0.74653813949,-,-
2019_Oct_24,210,001,4,source,30,BREAK,HF,target,left,yellow,pleasantness,conservative,no,8,0,0.693463854847,-,-
2019_Oct_24,210,001,4,source,31,PUBLIC,HF,target,left,yellow,pleasantness,liberal,no,9,0,0.773405960427,-,-
2019_Oct_24,210,001,4,source,32,ENCLOSE,LF,target,left,yellow,pleasantness,conservative,no,1,1,0.879806388036,-,-
2019_Oct_24,210,001,4,source,33,VINEYARDS,LF,target,right,aqua,imageability,liberal,no,9,1,0.853158897308,-,-
2019_Oct_24,210,001,4,source,34,DYNAMISM,LF,target,left,yellow,pleasantness,liberal,no,2,1,0.800051618126,-,-
2019_Oct_24,210,001,4,source,35,ROUND,HF,target,right,aqua,imageability,conservative,no,8,1,1.21324334867,-,-
2019_Oct_24,210,001,4,source,36,EJECTED,LF,target,right,aqua,imageability,conservative,no,1,0,0.986680837211,-,-
2019_Oct_24,210,001,4,source,37,SWIFTNESS,LF,target,left,yellow,pleasantness,conservative,no,2,1,1.53287136089,-,-
2019_Oct_24,210,001,4,source,38,CASES,HF,target,right,aqua,imageability,liberal,no,8,1,1.1999069554,-,-
2019_Oct_24,210,001,4,source,39,AUBURN,LF,target,right,aqua,imageability,liberal,yes,8,1,0.986663973335,-,-
2019_Oct_24,210,001,4,source,40,VILLAGE,HF,target,left,yellow,pleasantness,conservative,no,1,1,0.760113559876,-,-
2019_Oct_24,210,001,4,source,41,LAUNCHER,LF,target,left,yellow,pleasantness,conservative,yes,2,1,0.680135160302,-,-
2019_Oct_24,210,001,4,source,42,HUMAN,HF,target,right,aqua,imageability,conservative,no,1,0,0.773401561155,-,-
2019_Oct_24,210,001,4,source,43,FOOLHARDY,LF,target,right,aqua,imageability,conservative,no,8,1,0.893365677759,-,-
2019_Oct_24,210,001,4,source,44,WRITE,HF,target,left,yellow,pleasantness,liberal,no,8,0,2.26614056261,-,-
2019_Oct_24,210,001,4,source,45,NARRATOR,LF,target,left,yellow,pleasantness,liberal,no,1,1,0.853381060547,-,-
2019_Oct_24,210,001,4,source,46,BUILDING,HF,target,right,aqua,imageability,liberal,no,9,1,0.773430156424,-,-
2019_Oct_24,210,001,4,source,47,EQUALLED,LF,target,right,aqua,imageability,liberal,no,1,0,0.879839015971,-,-
2019_Oct_24,210,001,4,recog,0,ENMESHED,LF,lure,-,-,-,liberal,no,m,1,1.17326313073,1,663
2019_Oct_24,210,001,4,recog,1,DURING,HF,lure,-,-,-,liberal,no,m,1,0.880061545816,1,664
2019_Oct_24,210,001,4,recog,2,PUBLIC,HF,target,left,yellow,pleasantness,liberal,no,m,0,0.893106120707,-3,661
2019_Oct_24,210,001,4,recog,3,AROUND,HF,lure,-,-,-,liberal,no,z,0,2.70596768588,-1,660
2019_Oct_24,210,001,4,recog,4,SWIFTNESS,LF,target,left,yellow,pleasantness,conservative,no,m,0,0.986677537757,-1,659
2019_Oct_24,210,001,4,recog,5,BREAK,HF,target,left,yellow,pleasantness,conservative,no,m,0,1.41314590479,-1,658
2019_Oct_24,210,001,4,recog,6,MOTHER,HF,lure,-,-,-,liberal,no,z,0,0.57343484898,-1,657
2019_Oct_24,210,001,4,recog,7,EQUALLED,LF,target,right,aqua,imageability,liberal,no,z,1,1.78610849192,3,660
2019_Oct_24,210,001,4,recog,8,VEXED,LF,lure,-,-,-,conservative,yes,m,1,1.07994247219,3,663
2019_Oct_24,210,001,4,recog,9,REUNITED,LF,lure,-,-,-,liberal,no,z,0,1.09329279649,-1,662
2019_Oct_24,210,001,4,recog,10,COVER,HF,lure,-,-,-,liberal,no,z,0,1.66636580534,-1,661
2019_Oct_24,210,001,4,recog,11,EJECTED,LF,target,right,aqua,imageability,conservative,no,z,1,0.880012054005,1,662
2019_Oct_24,210,001,4,recog,12,ENERGY,HF,target,right,aqua,imageability,conservative,no,m,0,0.826464481011,-1,661
2019_Oct_24,210,001,4,recog,13,DECIDED,HF,lure,-,-,-,conservative,no,m,1,1.00003996005,3,664
2019_Oct_24,210,001,4,recog,14,FENCED,LF,lure,-,-,-,liberal,no,m,1,0.94666212564,1,665
2019_Oct_24,210,001,4,recog,15,BIGNESS,LF,lure,-,-,-,conservative,no,m,1,0.653445509883,3,668
2019_Oct_24,210,001,4,recog,16,PLEASE,HF,target,left,yellow,pleasantness,liberal,no,m,0,0.986518797356,-3,665
2019_Oct_24,210,001,4,recog,17,TUCKER,LF,lure,-,-,-,conservative,no,m,1,1.03995382231,3,668
2019_Oct_24,210,001,4,recog,18,DIFFERENT,HF,target,right,aqua,imageability,liberal,no,z,1,0.733415477519,3,671
2019_Oct_24,210,001,4,recog,19,ALABASTER,LF,target,left,yellow,pleasantness,liberal,no,z,1,0.626818182485,3,674
2019_Oct_24,210,001,4,recog,20,WHITE,HF,target,right,aqua,imageability,liberal,no,z,1,0.560214669813,3,677
2019_Oct_24,210,001,4,recog,21,AUBURN,LF,target,right,aqua,imageability,liberal,no,z,1,0.56014611449,3,680
2019_Oct_24,210,001,4,recog,22,FUTURE,HF,target,left,yellow,pleasantness,conservative,no,m,0,0.973433529199,-1,679
2019_Oct_24,210,001,4,recog,23,SEVEN,HF,lure,-,-,-,conservative,no,m,1,1.87964471479,3,682
2019_Oct_24,210,001,4,recog,24,HOMESTEAD,LF,lure,-,-,-,conservative,no,z,0,0.813438603026,-3,679
2019_Oct_24,210,001,4,recog,25,CELLO,LF,target,right,aqua,imageability,liberal,no,z,1,0.680088967945,3,682
2019_Oct_24,210,001,4,recog,26,NARRATOR,LF,target,left,yellow,pleasantness,liberal,no,z,1,0.533505589275,3,685
2019_Oct_24,210,001,4,recog,27,SECOND,HF,target,right,aqua,imageability,conservative,no,z,1,0.613504518786,1,686
2019_Oct_24,210,001,4,recog,28,INCLUDING,HF,lure,-,-,-,conservative,no,z,0,0.680104365398,-3,683
2019_Oct_24,210,001,4,recog,29,DYNAMISM,LF,target,left,yellow,pleasantness,liberal,no,z,1,0.640143577576,3,686
2019_Oct_24,210,001,4,recog,30,AMONG,HF,target,left,yellow,pleasantness,liberal,no,z,1,0.586570708767,3,689
2019_Oct_24,210,001,4,recog,31,USUAL,HF,lure,-,-,-,conservative,no,m,1,0.839810406038,3,692
2019_Oct_24,210,001,4,recog,32,LAUNCHER,LF,target,left,yellow,pleasantness,conservative,no,z,1,0.560158212488,1,693
2019_Oct_24,210,001,4,recog,33,BLACK,HF,lure,-,-,-,liberal,no,m,1,1.69303932509,1,694
2019_Oct_24,210,001,4,recog,34,ROUND,HF,target,right,aqua,imageability,conservative,no,z,1,0.693443691517,1,695
2019_Oct_24,210,001,4,recog,35,AQUARIUM,LF,lure,-,-,-,liberal,no,m,1,0.68012342891,1,696
2019_Oct_24,210,001,4,recog,36,STAFF,HF,target,right,aqua,imageability,liberal,no,z,1,0.69350308169,3,699
2019_Oct_24,210,001,4,recog,37,PAPER,HF,lure,-,-,-,liberal,no,m,1,0.626524531074,1,700
2019_Oct_24,210,001,4,recog,38,NEARLY,HF,lure,-,-,-,conservative,no,m,1,0.800083512848,3,703
2019_Oct_24,210,001,4,recog,39,RIOTERS,LF,target,right,aqua,imageability,liberal,no,m,0,0.813417339878,-3,700
2019_Oct_24,210,001,4,recog,40,BEAUTIFUL,HF,lure,-,-,-,conservative,no,m,1,1.86632408557,3,703
2019_Oct_24,210,001,4,recog,41,ACORNS,LF,lure,-,-,-,conservative,no,m,1,0.72010547988,3,706
2019_Oct_24,210,001,4,recog,42,VAINLY,LF,target,left,yellow,pleasantness,liberal,no,m,0,2.71937226787,-3,703
2019_Oct_24,210,001,4,recog,43,DWARFED,LF,lure,-,-,-,conservative,yes,m,1,0.920065593146,3,706
2019_Oct_24,210,001,4,recog,44,DIDACTIC,LF,lure,-,-,-,conservative,no,m,1,0.746815293629,3,709
2019_Oct_24,210,001,4,recog,45,WRITE,HF,target,left,yellow,pleasantness,liberal,no,z,1,0.586556411132,3,712
2019_Oct_24,210,001,4,recog,46,TOWARDS,HF,target,left,yellow,pleasantness,conservative,no,z,1,2.11932438912,1,713
2019_Oct_24,210,001,4,recog,47,FEIGNED,LF,lure,-,-,-,conservative,no,m,1,0.693453589879,3,716
2019_Oct_24,210,001,4,recog,48,NOXIOUS,LF,target,right,aqua,imageability,liberal,no,m,0,0.68014542527,-3,713
2019_Oct_24,210,001,4,recog,49,AUSPICES,LF,lure,-,-,-,liberal,no,z,0,0.573235781919,-1,712
2019_Oct_24,210,001,4,recog,50,MUTATIONS,LF,target,left,yellow,pleasantness,conservative,no,z,1,0.946678256305,1,713
2019_Oct_24,210,001,4,recog,51,KIDNAP,LF,lure,-,-,-,conservative,no,m,1,0.653321230447,3,716
2019_Oct_24,210,001,4,recog,52,VINEYARDS,LF,target,right,aqua,imageability,liberal,no,z,1,0.533494591095,3,719
2019_Oct_24,210,001,4,recog,53,NOVAS,LF,lure,-,-,-,liberal,no,z,0,1.02670284824,-1,718
2019_Oct_24,210,001,4,recog,54,FIDDLED,LF,target,right,aqua,imageability,conservative,no,z,1,0.560184241514,1,719
2019_Oct_24,210,001,4,recog,55,FLOOR,HF,lure,-,-,-,conservative,yes,m,1,0.706763954125,3,722
2019_Oct_24,210,001,4,recog,56,LEMURS,LF,lure,-,-,-,conservative,no,m,1,1.63976340715,3,725
2019_Oct_24,210,001,4,recog,57,BETTER,HF,lure,-,-,-,conservative,no,m,1,0.800128605387,3,728
2019_Oct_24,210,001,4,recog,58,DOLPHIN,LF,lure,-,-,-,liberal,no,m,1,0.66657770361,1,729
2019_Oct_24,210,001,4,recog,59,THEORY,HF,target,left,yellow,pleasantness,conservative,no,m,0,0.693424994611,-1,728
2019_Oct_24,210,001,4,recog,60,SLACKEN,LF,lure,-,-,-,liberal,no,m,1,0.760133723207,1,729
2019_Oct_24,210,001,4,recog,61,TASSELS,LF,target,left,yellow,pleasantness,liberal,no,z,1,0.746503678524,3,732
2019_Oct_24,210,001,4,recog,62,TABLE,HF,lure,-,-,-,conservative,no,m,1,0.760060402005,3,735
2019_Oct_24,210,001,4,recog,63,SEABED,LF,target,right,aqua,imageability,conservative,no,m,0,0.85344778284,-1,734
2019_Oct_24,210,001,4,recog,64,SPLASHES,LF,lure,-,-,-,conservative,no,m,1,0.746756636669,3,737
2019_Oct_24,210,001,4,recog,65,MALIGNED,LF,target,left,yellow,pleasantness,conservative,no,z,1,0.613515516966,1,738
2019_Oct_24,210,001,4,recog,66,ORDER,HF,lure,-,-,-,liberal,no,m,1,0.533540050239,1,739
2019_Oct_24,210,001,4,recog,67,LIKELY,HF,target,left,yellow,pleasantness,liberal,no,z,1,0.613543379022,3,742
2019_Oct_24,210,001,4,recog,68,POPES,LF,target,left,yellow,pleasantness,conservative,no,z,1,0.600136964004,1,743
2019_Oct_24,210,001,4,recog,69,VILLAGE,HF,target,left,yellow,pleasantness,conservative,no,z,1,0.520357631491,1,744
2019_Oct_24,210,001,4,recog,70,GLASS,HF,lure,-,-,-,liberal,no,m,1,0.586873525327,1,745
2019_Oct_24,210,001,4,recog,71,WAITING,HF,lure,-,-,-,liberal,no,m,1,0.880050547636,1,746
2019_Oct_24,210,001,4,recog,72,HOURS,HF,lure,-,-,-,conservative,no,m,1,0.613548878112,3,749
2019_Oct_24,210,001,4,recog,73,FICKLE,LF,lure,-,-,-,conservative,no,m,1,0.613499752908,3,752
2019_Oct_24,210,001,4,recog,74,WHOLE,HF,lure,-,-,-,liberal,no,m,1,0.600242913139,1,753
2019_Oct_24,210,001,4,recog,75,ENCLOSE,LF,target,left,yellow,pleasantness,conservative,no,z,1,0.586833565273,1,754
2019_Oct_24,210,001,4,recog,76,STOOD,HF,lure,-,-,-,liberal,no,m,1,0.613463458913,1,755
2019_Oct_24,210,001,4,recog,77,CASES,HF,target,right,aqua,imageability,liberal,no,z,1,1.07991974261,3,758
2019_Oct_24,210,001,4,recog,78,CICADAS,LF,target,right,aqua,imageability,conservative,no,z,1,0.680122329092,1,759
2019_Oct_24,210,001,4,recog,79,RICKETS,LF,lure,-,-,-,liberal,no,z,0,0.640217265383,-1,758
2019_Oct_24,210,001,4,recog,80,FOOLHARDY,LF,target,right,aqua,imageability,conservative,no,z,1,0.680154223814,1,759
2019_Oct_24,210,001,4,recog,81,HUMAN,HF,target,right,aqua,imageability,conservative,no,z,1,0.613450261097,1,760
2019_Oct_24,210,001,4,recog,82,BUILDING,HF,target,right,aqua,imageability,liberal,no,z,1,0.693426094429,3,763
2019_Oct_24,210,001,4,recog,83,MEETING,HF,lure,-,-,-,conservative,no,z,0,0.680113530548,-3,760
2019_Oct_24,210,001,4,recog,84,SOLEMNITY,LF,lure,-,-,-,liberal,yes,z,0,0.986637211096,-1,759
2019_Oct_24,210,001,4,recog,85,GLEANED,LF,target,right,aqua,imageability,conservative,no,m,0,1.05331477818,-1,758
2019_Oct_24,210,001,4,recog,86,SORRY,HF,lure,-,-,-,liberal,no,m,1,1.49314703394,1,759
2019_Oct_24,210,001,4,recog,87,COWARDS,LF,lure,-,-,-,liberal,no,m,1,0.840050166366,1,760
2019_Oct_24,210,001,4,recog,88,UPLIFT,LF,lure,-,-,-,liberal,no,m,1,0.639886586766,1,761
2019_Oct_24,210,001,4,recog,89,STUDENT,HF,target,right,aqua,imageability,liberal,no,z,1,0.733421343215,3,764
2019_Oct_24,210,001,4,recog,90,SIMILAR,HF,target,right,aqua,imageability,conservative,no,z,1,1.10662625691,1,765
2019_Oct_24,210,001,4,recog,91,EXCEPT,HF,target,right,aqua,imageability,conservative,no,m,0,1.63973444527,-1,764
2019_Oct_24,210,001,4,recog,92,LICENSING,LF,target,left,yellow,pleasantness,liberal,no,z,1,0.64012488067,3,767
2019_Oct_24,210,001,4,recog,93,NECESSARY,HF,lure,-,-,-,conservative,no,z,0,0.973344077333,-3,764
2019_Oct_24,210,001,4,recog,94,AFTERNOON,HF,target,left,yellow,pleasantness,liberal,no,z,1,1.47980477497,3,767
2019_Oct_24,210,001,4,recog,95,VALUE,HF,target,left,yellow,pleasantness,conservative,no,m,0,0.733430508365,-1,766
