date,subj,session,cycle,task,trial,item,wf,type,source,colour,encoding,bias,null,response,corr,rt,points,total
2019_Oct_24,211,001,0,source,0,ATROCITY,LF,target,right,yellow,pleasantness,liberal,no,None,-1,-1,-,-
2019_Oct_24,211,001,0,source,1,HUNDRED,HF,target,right,yellow,pleasantness,conservative,no,7,1,5.99801446187,-,-
2019_Oct_24,211,001,0,source,2,ECHELONS,LF,target,left,aqua,imageability,conservative,yes,None,-1,-1,-,-
2019_Oct_24,211,001,0,source,3,ROUND,HF,target,left,aqua,imageability,conservative,no,7,0,2.66577666949,-,-
2019_Oct_24,211,001,0,source,4,GUESSWORK,LF,target,right,yellow,pleasantness,liberal,no,7,1,2.45274851855,-,-
2019_Oct_24,211,001,0,source,5,ROSEBUD,LF,target,left,aqua,imageability,conservative,no,9,0,2.82571073906,-,-
2019_Oct_24,211,001,0,source,6,TOLERABLY,LF,target,left,aqua,imageability,conservative,no,7,0,4.30533771012,-,-
2019_Oct_24,211,001,0,source,7,RIDDLES,LF,target,left,aqua,imageability,liberal,no,8,0,2.55913134907,-,-
2019_Oct_24,211,001,0,source,8,CUFFED,LF,target,right,yellow,pleasantness,conservative,no,9,1,2.70596218679,-,-
2019_Oct_24,211,001,0,source,9,EARLIER,HF,target,left,aqua,imageability,liberal,no,8,0,2.22593414876,-,-
2019_Oct_24,211,001,0,source,10,EVIDENCE,HF,target,right,yellow,pleasantness,liberal,no,3,0,4.27844166052,-,-
2019_Oct_24,211,001,0,source,11,PAPER,HF,target,left,aqua,imageability,liberal,no,3,1,7.49082715113,-,-
2019_Oct_24,211,001,0,source,12,EXHALED,LF,target,right,yellow,pleasantness,liberal,no,3,0,4.23849443712,-,-
2019_Oct_24,211,001,0,source,13,REACHED,HF,target,left,aqua,imageability,conservative,no,8,0,3.47877571191,-,-
2019_Oct_24,211,001,0,source,14,DEGREE,HF,target,left,aqua,imageability,liberal,no,1,1,4.11881847284,-,-
2019_Oct_24,211,001,0,source,15,BECAME,HF,target,left,aqua,imageability,conservative,no,8,0,3.94549411891,-,-
2019_Oct_24,211,001,0,source,16,FINAL,HF,target,left,aqua,imageability,conservative,no,9,0,3.33239396655,-,-
2019_Oct_24,211,001,0,source,17,MILES,HF,target,left,aqua,imageability,liberal,no,8,0,3.67870796312,-,-
2019_Oct_24,211,001,0,source,18,HAVING,HF,target,right,yellow,pleasantness,conservative,no,9,1,2.55949722186,-,-
2019_Oct_24,211,001,0,source,19,VILLAGE,HF,target,right,yellow,pleasantness,conservative,no,9,1,2.59936305873,-,-
2019_Oct_24,211,001,0,source,20,LATER,HF,target,right,yellow,pleasantness,liberal,no,8,1,3.22577430854,-,-
2019_Oct_24,211,001,0,source,21,VORACIOUS,LF,target,left,aqua,imageability,conservative,no,8,0,3.54563951485,-,-
2019_Oct_24,211,001,0,source,22,EBULLIENT,LF,target,right,yellow,pleasantness,conservative,no,8,1,3.93216359133,-,-
2019_Oct_24,211,001,0,source,23,NOBLEMAN,LF,target,left,aqua,imageability,conservative,no,7,0,2.10622335691,-,-
2019_Oct_24,211,001,0,source,24,EXECUTING,LF,target,left,aqua,imageability,conservative,no,8,0,3.29214355998,-,-
2019_Oct_24,211,001,0,source,25,CARRIED,HF,target,left,aqua,imageability,conservative,no,2,1,3.66560289824,-,-
2019_Oct_24,211,001,0,source,26,GRACES,LF,target,left,aqua,imageability,liberal,no,1,1,2.27948318818,-,-
2019_Oct_24,211,001,0,source,27,UNOPENED,LF,target,right,yellow,pleasantness,conservative,no,9,1,2.58602556564,-,-
2019_Oct_24,211,001,0,source,28,VIOLATING,LF,target,left,aqua,imageability,liberal,no,8,0,2.81237141294,-,-
2019_Oct_24,211,001,0,source,29,SITTING,HF,target,left,aqua,imageability,liberal,no,2,1,3.41239032981,-,-
2019_Oct_24,211,001,0,source,30,UNLESS,HF,target,right,yellow,pleasantness,conservative,no,8,1,3.37240351297,-,-
2019_Oct_24,211,001,0,source,31,NORTH,HF,target,left,aqua,imageability,liberal,no,7,0,3.09251669157,-,-
2019_Oct_24,211,001,0,source,32,CENTRAL,HF,target,left,aqua,imageability,conservative,no,8,0,3.15913303545,-,-
2019_Oct_24,211,001,0,source,33,BOILERS,LF,target,left,aqua,imageability,liberal,no,1,1,3.4388277553,-,-
2019_Oct_24,211,001,0,source,34,LOCAL,HF,target,right,yellow,pleasantness,liberal,no,2,0,2.91927592381,-,-
2019_Oct_24,211,001,0,source,35,FENCED,LF,target,right,yellow,pleasantness,liberal,no,8,1,2.2794538597,-,-
2019_Oct_24,211,001,0,source,36,RECENT,HF,target,right,yellow,pleasantness,conservative,no,8,1,6.17106642754,-,-
2019_Oct_24,211,001,0,source,37,GORGED,LF,target,left,aqua,imageability,liberal,no,9,0,3.42567539824,-,-
2019_Oct_24,211,001,0,source,38,SYRINGE,LF,target,right,yellow,pleasantness,liberal,no,9,1,3.23916202666,-,-
2019_Oct_24,211,001,0,source,39,ENTIRELY,HF,target,right,yellow,pleasantness,liberal,no,8,1,3.15914330042,-,-
2019_Oct_24,211,001,0,source,40,FOUND,HF,target,right,yellow,pleasantness,liberal,no,7,1,2.87927700896,-,-
2019_Oct_24,211,001,0,source,41,IDIOCY,LF,target,right,yellow,pleasantness,conservative,no,7,1,2.30615890757,-,-
2019_Oct_24,211,001,0,source,42,THING,HF,target,right,yellow,pleasantness,liberal,no,2,0,4.47860304048,-,-
2019_Oct_24,211,001,0,source,43,DEJECTED,LF,target,left,aqua,imageability,liberal,yes,7,0,4.75852102339,-,-
2019_Oct_24,211,001,0,source,44,MUMBLES,LF,target,right,yellow,pleasantness,liberal,yes,7,1,3.59873579585,-,-
2019_Oct_24,211,001,0,source,45,LIGHT,HF,target,right,yellow,pleasantness,conservative,no,8,1,2.99895370646,-,-
2019_Oct_24,211,001,0,source,46,ANCHORAGE,LF,target,right,yellow,pleasantness,conservative,yes,7,1,4.51867124387,-,-
2019_Oct_24,211,001,0,source,47,BESOTTED,LF,target,right,yellow,pleasantness,conservative,no,7,1,3.93196379106,-,-
2019_Oct_24,211,001,0,recog,0,INMATE,LF,lure,-,-,-,conservative,no,None,-1,-1,-3,-3
2019_Oct_24,211,001,0,recog,1,SAWDUST,LF,lure,-,-,-,liberal,no,None,-1,-1,-1,-4
2019_Oct_24,211,001,0,recog,2,EVIDENCE,HF,target,right,yellow,pleasantness,liberal,no,z,1,3.09248699648,3,-1
2019_Oct_24,211,001,0,recog,3,GRACES,LF,target,left,aqua,imageability,liberal,no,z,1,1.31984394316,3,2
2019_Oct_24,211,001,0,recog,4,DEJECTED,LF,target,left,aqua,imageability,liberal,no,None,-1,-1,-3,-1
2019_Oct_24,211,001,0,recog,5,TURNED,HF,lure,-,-,-,conservative,no,z,0,4.90512676502,-3,-4
2019_Oct_24,211,001,0,recog,6,DEGREE,HF,target,left,aqua,imageability,liberal,no,z,1,2.09287339921,3,-1
2019_Oct_24,211,001,0,recog,7,LATER,HF,target,right,yellow,pleasantness,liberal,no,z,1,1.31986190685,3,2
2019_Oct_24,211,001,0,recog,8,ATROCITY,LF,target,right,yellow,pleasantness,liberal,no,z,1,1.06668709884,3,5
2019_Oct_24,211,001,0,recog,9,RIDDLES,LF,target,left,aqua,imageability,liberal,no,z,1,0.839975745347,3,8
2019_Oct_24,211,001,0,recog,10,LYNCH,LF,lure,-,-,-,liberal,no,m,1,1.7730320223,1,9
2019_Oct_24,211,001,0,recog,11,NAPPY,LF,lure,-,-,-,liberal,no,m,1,1.33318546891,1,10
2019_Oct_24,211,001,0,recog,12,TOLERABLY,LF,target,left,aqua,imageability,conservative,no,m,0,3.7722324546,-1,9
2019_Oct_24,211,001,0,recog,13,CAPITAL,HF,lure,-,-,-,conservative,yes,m,1,3.22554737943,3,12
2019_Oct_24,211,001,0,recog,14,UNTIL,HF,lure,-,-,-,conservative,no,z,0,4.06545200321,-3,9
2019_Oct_24,211,001,0,recog,15,RATHER,HF,lure,-,-,-,conservative,no,m,1,5.45157721236,3,12
2019_Oct_24,211,001,0,recog,16,SYRINGE,LF,target,right,yellow,pleasantness,liberal,no,z,1,1.50645886461,3,15
2019_Oct_24,211,001,0,recog,17,HIVES,LF,lure,-,-,-,liberal,no,m,1,2.81260970685,1,16
2019_Oct_24,211,001,0,recog,18,HIMSELF,HF,lure,-,-,-,liberal,no,m,1,1.41318183218,1,17
2019_Oct_24,211,001,0,recog,19,GORGED,LF,target,left,aqua,imageability,liberal,no,z,1,0.986684869877,3,20
2019_Oct_24,211,001,0,recog,20,UNION,HF,lure,-,-,-,liberal,no,m,1,1.49312613739,1,21
2019_Oct_24,211,001,0,recog,21,HAVING,HF,target,right,yellow,pleasantness,conservative,no,z,1,1.45313748752,1,22
2019_Oct_24,211,001,0,recog,22,TRYING,HF,lure,-,-,-,liberal,no,m,1,3.13248297848,1,23
2019_Oct_24,211,001,0,recog,23,EBULLIENT,LF,target,right,yellow,pleasantness,conservative,no,z,1,1.07993807291,1,24
2019_Oct_24,211,001,0,recog,24,INNATELY,LF,lure,-,-,-,liberal,no,m,1,1.90630870279,1,25
2019_Oct_24,211,001,0,recog,25,CLEAR,HF,lure,-,-,-,liberal,no,m,1,3.23909237152,1,26
2019_Oct_24,211,001,0,recog,26,HOWEVER,HF,lure,-,-,-,liberal,no,m,1,1.87972133544,1,27
2019_Oct_24,211,001,0,recog,27,RECENT,HF,target,right,yellow,pleasantness,conservative,no,z,1,2.31945057491,1,28
2019_Oct_24,211,001,0,recog,28,POUNDS,HF,lure,-,-,-,liberal,no,m,1,1.22655078006,1,29
2019_Oct_24,211,001,0,recog,29,LACING,LF,lure,-,-,-,liberal,no,m,1,1.58640390303,1,30
2019_Oct_24,211,001,0,recog,30,NIGHT,HF,lure,-,-,-,liberal,no,m,1,1.34627770258,1,31
2019_Oct_24,211,001,0,recog,31,FIGURE,HF,lure,-,-,-,conservative,yes,z,0,1.43986085102,-3,28
2019_Oct_24,211,001,0,recog,32,FENCED,LF,target,right,yellow,pleasantness,liberal,no,z,1,3.70558604903,3,31
2019_Oct_24,211,001,0,recog,33,FATHER,HF,lure,-,-,-,conservative,no,m,1,1.2531986374,3,34
2019_Oct_24,211,001,0,recog,34,VILLAGE,HF,target,right,yellow,pleasantness,conservative,yes,z,1,1.0264077304,1,35
2019_Oct_24,211,001,0,recog,35,SITTING,HF,target,left,aqua,imageability,liberal,no,m,0,2.98562281228,-3,32
2019_Oct_24,211,001,0,recog,36,PICTURE,HF,lure,-,-,-,conservative,no,m,1,4.45195481654,3,35
2019_Oct_24,211,001,0,recog,37,THING,HF,target,right,yellow,pleasantness,liberal,no,m,0,2.58603399757,-3,32
2019_Oct_24,211,001,0,recog,38,FALCON,LF,lure,-,-,-,conservative,no,m,1,1.15993113673,3,35
2019_Oct_24,211,001,0,recog,39,VIOLATING,LF,target,left,aqua,imageability,liberal,no,z,1,1.25324556297,3,38
2019_Oct_24,211,001,0,recog,40,PAPER,HF,target,left,aqua,imageability,liberal,no,z,1,3.37241927702,3,41
2019_Oct_24,211,001,0,recog,41,FINAL,HF,target,left,aqua,imageability,conservative,no,z,1,2.1060030267,1,42
2019_Oct_24,211,001,0,recog,42,BEQUEST,LF,lure,-,-,-,conservative,no,m,1,2.78603003823,3,45
2019_Oct_24,211,001,0,recog,43,ROUND,HF,target,left,aqua,imageability,conservative,no,z,1,2.23925587779,1,46
2019_Oct_24,211,001,0,recog,44,VORACIOUS,LF,target,left,aqua,imageability,conservative,no,z,1,0.786747486183,1,47
2019_Oct_24,211,001,0,recog,45,COERCION,LF,lure,-,-,-,conservative,no,m,1,1.34665970604,3,50
2019_Oct_24,211,001,0,recog,46,REVERE,LF,lure,-,-,-,conservative,no,m,1,1.19981603711,3,53
2019_Oct_24,211,001,0,recog,47,SADDER,LF,lure,-,-,-,liberal,no,m,1,0.986674238303,1,54
2019_Oct_24,211,001,0,recog,48,HUNDRED,HF,target,right,yellow,pleasantness,conservative,no,z,1,1.09331515945,1,55
2019_Oct_24,211,001,0,recog,49,HICKORY,LF,lure,-,-,-,liberal,no,m,1,1.67949506622,1,56
2019_Oct_24,211,001,0,recog,50,UGLIEST,LF,lure,-,-,-,liberal,no,m,1,1.50649295897,1,57
2019_Oct_24,211,001,0,recog,51,MILES,HF,target,left,aqua,imageability,liberal,no,z,1,1.53287172749,3,60
2019_Oct_24,211,001,0,recog,52,SPACE,HF,lure,-,-,-,liberal,no,m,1,1.82652020512,1,61
2019_Oct_24,211,001,0,recog,53,CARRIED,HF,target,left,aqua,imageability,conservative,no,m,0,1.77295503504,-1,60
2019_Oct_24,211,001,0,recog,54,VINEYARDS,LF,lure,-,-,-,conservative,no,m,1,1.82630317437,3,63
2019_Oct_24,211,001,0,recog,55,WHITE,HF,lure,-,-,-,conservative,no,m,1,2.11959897702,3,66
2019_Oct_24,211,001,0,recog,56,ECHELONS,LF,target,left,aqua,imageability,conservative,no,z,1,1.67973482654,1,67
2019_Oct_24,211,001,0,recog,57,FOUND,HF,target,right,yellow,pleasantness,liberal,no,z,1,1.78610262622,3,70
2019_Oct_24,211,001,0,recog,58,NORTH,HF,target,left,aqua,imageability,liberal,no,z,1,0.800044286006,3,73
2019_Oct_24,211,001,0,recog,59,EARLIER,HF,target,left,aqua,imageability,liberal,no,z,1,2.82593473533,3,76
2019_Oct_24,211,001,0,recog,60,CENTRAL,HF,target,left,aqua,imageability,conservative,no,z,1,1.22669192338,1,77
2019_Oct_24,211,001,0,recog,61,MUMBLES,LF,target,right,yellow,pleasantness,liberal,no,z,1,1.09328546437,3,80
2019_Oct_24,211,001,0,recog,62,UNLESS,HF,target,right,yellow,pleasantness,conservative,no,z,1,0.893418102418,1,81
2019_Oct_24,211,001,0,recog,63,PIRACY,LF,lure,-,-,-,liberal,no,m,1,0.906710502969,1,82
2019_Oct_24,211,001,0,recog,64,UNBEATEN,LF,lure,-,-,-,conservative,yes,z,0,0.866715620788,-3,79
2019_Oct_24,211,001,0,recog,65,BOILERS,LF,target,left,aqua,imageability,liberal,no,z,1,2.26616109255,3,82
2019_Oct_24,211,001,0,recog,66,UNOPENED,LF,target,right,yellow,pleasantness,conservative,no,z,1,1.41313124055,1,83
2019_Oct_24,211,001,0,recog,67,SLOWLY,HF,lure,-,-,-,liberal,no,m,1,1.27989525333,1,84
2019_Oct_24,211,001,0,recog,68,EXHALED,LF,target,right,yellow,pleasantness,liberal,no,m,0,1.27988205552,-3,81
2019_Oct_24,211,001,0,recog,69,DUSTER,LF,lure,-,-,-,conservative,no,m,1,1.43981135921,3,84
2019_Oct_24,211,001,0,recog,70,IDIOCY,LF,target,right,yellow,pleasantness,conservative,no,m,0,1.55978354115,-1,83
2019_Oct_24,211,001,0,recog,71,REACHED,HF,target,left,aqua,imageability,conservative,no,z,1,1.06660827855,1,84
2019_Oct_24,211,001,0,recog,72,LIGHT,HF,target,right,yellow,pleasantness,conservative,no,z,1,0.946680822546,1,85
2019_Oct_24,211,001,0,recog,73,CUFFED,LF,target,right,yellow,pleasantness,conservative,no,z,1,0.613464192125,1,86
2019_Oct_24,211,001,0,recog,74,NEGATION,LF,lure,-,-,-,conservative,no,m,1,1.42651052672,3,89
2019_Oct_24,211,001,0,recog,75,ENTIRELY,HF,target,right,yellow,pleasantness,liberal,no,m,0,1.86608175901,-3,86
2019_Oct_24,211,001,0,recog,76,LOCAL,HF,target,right,yellow,pleasantness,liberal,no,z,1,0.946699519453,3,89
2019_Oct_24,211,001,0,recog,77,BECAME,HF,target,left,aqua,imageability,conservative,no,z,1,0.920062660299,1,90
2019_Oct_24,211,001,0,recog,78,DOING,HF,lure,-,-,-,liberal,no,z,0,1.27964632785,-1,89
2019_Oct_24,211,001,0,recog,79,NOBLEMAN,LF,target,left,aqua,imageability,conservative,no,m,0,1.63953134555,-1,88
2019_Oct_24,211,001,0,recog,80,ROSEBUD,LF,target,left,aqua,imageability,conservative,no,z,1,1.26658928836,1,89
2019_Oct_24,211,001,0,recog,81,BEHIND,HF,lure,-,-,-,conservative,no,m,1,2.65265694036,3,92
2019_Oct_24,211,001,0,recog,82,RAVAGES,LF,lure,-,-,-,conservative,no,m,1,1.00003702721,3,95
2019_Oct_24,211,001,0,recog,83,PUNCTUAL,LF,lure,-,-,-,conservative,no,m,1,1.65309430133,3,98
2019_Oct_24,211,001,0,recog,84,DRINK,HF,lure,-,-,-,conservative,no,m,1,1.83942070385,3,101
2019_Oct_24,211,001,0,recog,85,SIMILAR,HF,lure,-,-,-,conservative,no,z,0,1.65307890388,-3,98
2019_Oct_24,211,001,0,recog,86,HAMLETS,LF,lure,-,-,-,conservative,no,m,1,1.10660279412,3,101
2019_Oct_24,211,001,0,recog,87,INROADS,LF,lure,-,-,-,liberal,no,m,1,1.253247396,1,102
2019_Oct_24,211,001,0,recog,88,ANCHORAGE,LF,target,right,yellow,pleasantness,conservative,no,z,1,1.06663100812,1,103
2019_Oct_24,211,001,0,recog,89,GUESSWORK,LF,target,right,yellow,pleasantness,liberal,no,z,1,0.733453237937,3,106
2019_Oct_24,211,001,0,recog,90,BESOTTED,LF,target,right,yellow,pleasantness,conservative,no,z,1,0.840100757995,1,107
2019_Oct_24,211,001,0,recog,91,SAYING,HF,lure,-,-,-,liberal,no,m,1,1.14660610824,1,108
2019_Oct_24,211,001,0,recog,92,EXECUTING,LF,target,left,aqua,imageability,conservative,no,z,1,0.933356893879,1,109
2019_Oct_24,211,001,0,recog,93,WRITE,HF,lure,-,-,-,conservative,no,z,0,1.51954596579,-3,106
2019_Oct_24,211,001,0,recog,94,ACCORDING,HF,lure,-,-,-,liberal,no,m,1,1.2798996526,1,107
2019_Oct_24,211,001,0,recog,95,DONATE,LF,lure,-,-,-,liberal,no,m,1,1.78634751903,1,108
2019_Oct_24,211,001,1,source,0,SUCCESS,HF,target,right,yellow,pleasantness,liberal,no,7,1,2.13290017612,-,-
2019_Oct_24,211,001,1,source,1,RIVER,HF,target,left,aqua,imageability,liberal,no,8,0,1.83967256218,-,-
2019_Oct_24,211,001,1,source,2,EVOCATION,LF,target,right,yellow,pleasantness,conservative,no,9,1,3.30552614561,-,-
2019_Oct_24,211,001,1,source,3,SUBJECT,HF,target,left,aqua,imageability,conservative,no,2,1,3.02584792303,-,-
2019_Oct_24,211,001,1,source,4,GETTING,HF,target,right,yellow,pleasantness,conservative,no,7,1,2.98599968325,-,-
2019_Oct_24,211,001,1,source,5,NARRATOR,LF,target,right,yellow,pleasantness,conservative,no,8,1,1.85273546737,-,-
2019_Oct_24,211,001,1,source,6,MEETING,HF,target,left,aqua,imageability,conservative,no,8,0,2.38609734709,-,-
2019_Oct_24,211,001,1,source,7,HARDLY,HF,target,left,aqua,imageability,liberal,no,1,1,2.65271853017,-,-
2019_Oct_24,211,001,1,source,8,POSITION,HF,target,right,yellow,pleasantness,liberal,no,7,1,2.53274561503,-,-
2019_Oct_24,211,001,1,source,9,ISOLATING,LF,target,left,aqua,imageability,liberal,no,2,1,2.75928356388,-,-
2019_Oct_24,211,001,1,source,10,DEVELOPED,HF,target,right,yellow,pleasantness,conservative,no,9,1,2.47943303648,-,-
2019_Oct_24,211,001,1,source,11,AFTERNOON,HF,target,right,yellow,pleasantness,liberal,no,9,1,1.90631200224,-,-
2019_Oct_24,211,001,1,source,12,PULSAR,LF,target,left,aqua,imageability,conservative,no,1,1,1.38649144855,-,-
2019_Oct_24,211,001,1,source,13,UPTIGHT,LF,target,right,yellow,pleasantness,conservative,yes,1,0,2.50606512976,-,-
2019_Oct_24,211,001,1,source,14,WRONG,HF,target,left,aqua,imageability,conservative,no,9,0,2.81237874506,-,-
2019_Oct_24,211,001,1,source,15,DIFFERENT,HF,target,right,yellow,pleasantness,liberal,no,9,1,0.200100523366,-,-
2019_Oct_24,211,001,1,source,16,KITCHEN,HF,target,right,yellow,pleasantness,conservative,no,2,0,3.50568972521,-,-
2019_Oct_24,211,001,1,source,17,CERTAIN,HF,target,left,aqua,imageability,liberal,no,8,0,3.69229144884,-,-
2019_Oct_24,211,001,1,source,18,CHOICE,HF,target,left,aqua,imageability,liberal,no,7,0,3.30580733241,-,-
2019_Oct_24,211,001,1,source,19,LABOUR,HF,target,right,yellow,pleasantness,liberal,yes,7,1,1.18657422818,-,-
2019_Oct_24,211,001,1,source,20,TIPSY,LF,target,left,aqua,imageability,liberal,no,7,0,2.15969797531,-,-
2019_Oct_24,211,001,1,source,21,ABLAZE,LF,target,right,yellow,pleasantness,conservative,no,9,1,1.25320890237,-,-
2019_Oct_24,211,001,1,source,22,DIMMED,LF,target,right,yellow,pleasantness,liberal,no,9,1,1.25323199855,-,-
2019_Oct_24,211,001,1,source,23,ZIPPED,LF,target,left,aqua,imageability,liberal,no,9,0,1.51955366452,-,-
2019_Oct_24,211,001,1,source,24,VERBALLY,LF,target,right,yellow,pleasantness,liberal,no,8,1,2.0795465377,-,-
2019_Oct_24,211,001,1,source,25,BUSINESS,HF,target,right,yellow,pleasantness,conservative,no,8,1,1.4532401372,-,-
2019_Oct_24,211,001,1,source,26,OBSCURELY,LF,target,right,yellow,pleasantness,liberal,no,7,1,3.35888821596,-,-
2019_Oct_24,211,001,1,source,27,TESTIFIES,LF,target,left,aqua,imageability,conservative,no,7,0,1.65306020697,-,-
2019_Oct_24,211,001,1,source,28,VEERED,LF,target,left,aqua,imageability,conservative,no,8,0,2.73243553967,-,-
2019_Oct_24,211,001,1,source,29,MYSELF,HF,target,left,aqua,imageability,conservative,no,8,0,1.9329671917,-,-
2019_Oct_24,211,001,1,source,30,OCCUPANCY,LF,target,right,yellow,pleasantness,liberal,no,8,1,2.47938574431,-,-
2019_Oct_24,211,001,1,source,31,AQUARIUM,LF,target,left,aqua,imageability,conservative,no,8,0,2.34620474799,-,-
2019_Oct_24,211,001,1,source,32,BEFALL,LF,target,right,yellow,pleasantness,liberal,no,9,1,2.05288474934,-,-
2019_Oct_24,211,001,1,source,33,TEACUP,LF,target,right,yellow,pleasantness,liberal,yes,7,1,1.09334815399,-,-
2019_Oct_24,211,001,1,source,34,WIPERS,LF,target,right,yellow,pleasantness,conservative,no,7,1,2.90592449969,-,-
2019_Oct_24,211,001,1,source,35,JADED,LF,target,right,yellow,pleasantness,conservative,no,8,1,2.89255217903,-,-
2019_Oct_24,211,001,1,source,36,SHUNNED,LF,target,left,aqua,imageability,liberal,no,7,0,2.59939751969,-,-
2019_Oct_24,211,001,1,source,37,CONCERNED,HF,target,left,aqua,imageability,conservative,no,2,1,2.77266834914,-,-
2019_Oct_24,211,001,1,source,38,VOLITION,LF,target,left,aqua,imageability,conservative,no,7,0,2.35944655691,-,-
2019_Oct_24,211,001,1,source,39,HEALTH,HF,target,left,aqua,imageability,liberal,yes,7,0,1.43980036103,-,-
2019_Oct_24,211,001,1,source,40,HOVELS,LF,target,left,aqua,imageability,liberal,no,2,1,2.43943008897,-,-
2019_Oct_24,211,001,1,source,41,NEITHER,HF,target,right,yellow,pleasantness,conservative,no,2,0,3.1591542986,-,-
2019_Oct_24,211,001,1,source,42,JAMMING,LF,target,left,aqua,imageability,liberal,no,1,1,1.67951816239,-,-
2019_Oct_24,211,001,1,source,43,CHAIR,HF,target,left,aqua,imageability,liberal,no,1,1,0.973323547398,-,-
2019_Oct_24,211,001,1,source,44,SINCE,HF,target,left,aqua,imageability,conservative,no,8,0,2.35952904326,-,-
2019_Oct_24,211,001,1,source,45,PREPARED,HF,target,right,yellow,pleasantness,liberal,no,8,1,2.62577188894,-,-
2019_Oct_24,211,001,1,source,46,IDEAS,HF,target,right,yellow,pleasantness,conservative,no,9,1,2.46602625486,-,-
2019_Oct_24,211,001,1,source,47,DIABETIC,LF,target,left,aqua,imageability,conservative,no,8,0,2.71908448215,-,-
2019_Oct_24,211,001,1,recog,0,NEITHER,HF,target,right,yellow,pleasantness,conservative,no,z,1,2.09290419412,1,109
2019_Oct_24,211,001,1,recog,1,JASMINE,LF,lure,-,-,-,liberal,no,m,1,1.46646178279,1,110
2019_Oct_24,211,001,1,recog,2,STRAIGHT,HF,lure,-,-,-,conservative,no,m,1,1.54645484661,3,113
2019_Oct_24,211,001,1,recog,3,FAUCET,LF,lure,-,-,-,conservative,no,m,1,0.906734332359,3,116
2019_Oct_24,211,001,1,recog,4,LIQUEUR,LF,lure,-,-,-,conservative,no,m,1,0.746796963329,3,119
2019_Oct_24,211,001,1,recog,5,SOCIAL,HF,lure,-,-,-,liberal,no,m,1,0.946677889699,1,120
2019_Oct_24,211,001,1,recog,6,INCLUDING,HF,lure,-,-,-,conservative,no,m,1,1.86636257921,3,123
2019_Oct_24,211,001,1,recog,7,SINCE,HF,target,left,aqua,imageability,conservative,no,z,1,1.29323384624,1,124
2019_Oct_24,211,001,1,recog,8,FIELD,HF,lure,-,-,-,conservative,no,m,1,1.55982276799,3,127
2019_Oct_24,211,001,1,recog,9,SUCCESS,HF,target,right,yellow,pleasantness,liberal,no,z,1,1.19997001163,3,130
2019_Oct_24,211,001,1,recog,10,DEVELOPED,HF,target,right,yellow,pleasantness,conservative,yes,z,1,1.06660791194,1,131
2019_Oct_24,211,001,1,recog,11,FLOOR,HF,lure,-,-,-,conservative,no,m,1,1.06663687382,3,134
2019_Oct_24,211,001,1,recog,12,HARDLY,HF,target,left,aqua,imageability,liberal,no,z,1,1.15998502781,3,137
2019_Oct_24,211,001,1,recog,13,HEALTH,HF,target,left,aqua,imageability,liberal,no,z,1,0.880048348,3,140
2019_Oct_24,211,001,1,recog,14,CAIRN,LF,lure,-,-,-,conservative,no,m,1,0.853400490666,3,143
2019_Oct_24,211,001,1,recog,15,BUSINESS,HF,target,right,yellow,pleasantness,conservative,no,z,1,0.813177579549,1,144
2019_Oct_24,211,001,1,recog,16,KITCHEN,HF,target,right,yellow,pleasantness,conservative,no,z,1,0.679874503432,1,145
2019_Oct_24,211,001,1,recog,17,LABOUR,HF,target,right,yellow,pleasantness,liberal,no,z,1,1.58644752915,3,148
2019_Oct_24,211,001,1,recog,18,TESTIFIES,LF,target,left,aqua,imageability,conservative,yes,m,0,1.70635665485,-1,147
2019_Oct_24,211,001,1,recog,19,HOVELS,LF,target,left,aqua,imageability,liberal,no,z,1,2.57245784398,3,150
2019_Oct_24,211,001,1,recog,20,GREATER,HF,lure,-,-,-,liberal,no,m,1,0.959994119639,1,151
2019_Oct_24,211,001,1,recog,21,EITHER,HF,lure,-,-,-,liberal,no,m,1,2.74595816879,1,152
2019_Oct_24,211,001,1,recog,22,NARRATOR,LF,target,right,yellow,pleasantness,conservative,no,z,1,1.1333507349,1,153
2019_Oct_24,211,001,1,recog,23,DIFFERENT,HF,target,right,yellow,pleasantness,liberal,no,z,1,1.1199883126,3,156
2019_Oct_24,211,001,1,recog,24,EVADING,LF,lure,-,-,-,conservative,no,m,1,1.70642630999,3,159
2019_Oct_24,211,001,1,recog,25,SUGARY,LF,lure,-,-,-,conservative,yes,z,0,1.58620116991,-3,156
2019_Oct_24,211,001,1,recog,26,INEDIBLE,LF,lure,-,-,-,liberal,no,m,1,1.82635816527,1,157
2019_Oct_24,211,001,1,recog,27,BEFALL,LF,target,right,yellow,pleasantness,liberal,no,z,1,1.21325031418,3,160
2019_Oct_24,211,001,1,recog,28,LEECH,LF,lure,-,-,-,liberal,no,m,1,2.54607430957,1,161
2019_Oct_24,211,001,1,recog,29,MEANS,HF,lure,-,-,-,conservative,no,m,1,1.999585002,3,164
2019_Oct_24,211,001,1,recog,30,PULSAR,LF,target,left,aqua,imageability,conservative,no,z,1,0.840043567458,1,165
2019_Oct_24,211,001,1,recog,31,CRYPT,LF,lure,-,-,-,liberal,no,m,1,1.03996078782,1,166
2019_Oct_24,211,001,1,recog,32,VERBALLY,LF,target,right,yellow,pleasantness,liberal,no,z,1,0.920078057751,3,169
2019_Oct_24,211,001,1,recog,33,VAULTED,LF,lure,-,-,-,conservative,no,m,1,0.960005484426,3,172
2019_Oct_24,211,001,1,recog,34,ZIPPED,LF,target,left,aqua,imageability,liberal,no,z,1,0.800102209754,3,175
2019_Oct_24,211,001,1,recog,35,MEETING,HF,target,left,aqua,imageability,conservative,no,z,1,1.31991286508,1,176
2019_Oct_24,211,001,1,recog,36,TOWARDS,HF,lure,-,-,-,conservative,no,m,1,1.69304665721,3,179
2019_Oct_24,211,001,1,recog,37,WRONG,HF,target,left,aqua,imageability,conservative,no,z,1,0.760063701459,1,180
2019_Oct_24,211,001,1,recog,38,GURGLE,LF,lure,-,-,-,liberal,no,m,1,0.920028199334,1,181
2019_Oct_24,211,001,1,recog,39,MAPPED,LF,lure,-,-,-,conservative,no,m,1,1.94630138533,3,184
2019_Oct_24,211,001,1,recog,40,SHUNNED,LF,target,left,aqua,imageability,liberal,no,z,1,0.746792930663,3,187
2019_Oct_24,211,001,1,recog,41,ACROSS,HF,lure,-,-,-,conservative,no,z,0,1.02676663768,-3,184
2019_Oct_24,211,001,1,recog,42,GETTING,HF,target,right,yellow,pleasantness,conservative,no,z,1,1.51982421975,1,185
2019_Oct_24,211,001,1,recog,43,FRIEND,HF,lure,-,-,-,liberal,no,m,1,0.786772048786,1,186
2019_Oct_24,211,001,1,recog,44,PIECE,HF,lure,-,-,-,conservative,no,m,1,1.46646654867,3,189
2019_Oct_24,211,001,1,recog,45,RIVER,HF,target,left,aqua,imageability,liberal,no,z,1,0.746816393447,3,192
2019_Oct_24,211,001,1,recog,46,MADDENED,LF,lure,-,-,-,liberal,no,m,1,0.786780114117,1,193
2019_Oct_24,211,001,1,recog,47,SYSTEM,HF,lure,-,-,-,liberal,no,m,1,1.22672638434,1,194
2019_Oct_24,211,001,1,recog,48,OCCUPANCY,LF,target,right,yellow,pleasantness,liberal,no,z,1,0.893401238542,3,197
2019_Oct_24,211,001,1,recog,49,TIPSY,LF,target,left,aqua,imageability,liberal,no,m,0,1.2128914069,-3,194
2019_Oct_24,211,001,1,recog,50,AQUARIUM,LF,target,left,aqua,imageability,conservative,no,z,1,1.77301442521,1,195
2019_Oct_24,211,001,1,recog,51,SUBJECT,HF,target,left,aqua,imageability,conservative,no,z,1,1.22658817388,1,196
2019_Oct_24,211,001,1,recog,52,GALACTIC,LF,lure,-,-,-,liberal,yes,z,0,0.986826013189,-1,195
2019_Oct_24,211,001,1,recog,53,IGNOBLE,LF,lure,-,-,-,conservative,no,m,1,2.02624789018,3,198
2019_Oct_24,211,001,1,recog,54,LIKELY,HF,lure,-,-,-,liberal,no,m,1,1.65307890388,1,199
2019_Oct_24,211,001,1,recog,55,DIABETIC,LF,target,left,aqua,imageability,conservative,no,z,1,0.720160837386,1,200
2019_Oct_24,211,001,1,recog,56,LOLLED,LF,lure,-,-,-,conservative,no,m,1,1.01341448035,3,203
2019_Oct_24,211,001,1,recog,57,ISOLATING,LF,target,left,aqua,imageability,liberal,no,z,1,0.906712335999,3,206
2019_Oct_24,211,001,1,recog,58,MYSELF,HF,target,left,aqua,imageability,conservative,no,z,1,0.706798415088,1,207
2019_Oct_24,211,001,1,recog,59,BUNGALOWS,LF,lure,-,-,-,liberal,no,m,1,0.733445905817,1,208
2019_Oct_24,211,001,1,recog,60,HERSELF,HF,lure,-,-,-,liberal,no,m,1,1.07998536509,1,209
2019_Oct_24,211,001,1,recog,61,THUDDING,LF,lure,-,-,-,liberal,no,m,1,0.746751870791,1,210
2019_Oct_24,211,001,1,recog,62,CERTAIN,HF,target,left,aqua,imageability,liberal,no,z,1,0.786750785636,3,213
2019_Oct_24,211,001,1,recog,63,IDEAS,HF,target,right,yellow,pleasantness,conservative,no,z,1,0.71994124039,1,214
2019_Oct_24,211,001,1,recog,64,DANDELION,LF,lure,-,-,-,conservative,no,m,1,0.880101505871,3,217
2019_Oct_24,211,001,1,recog,65,EVOCATION,LF,target,right,yellow,pleasantness,conservative,no,z,1,0.959771223188,1,218
2019_Oct_24,211,001,1,recog,66,DAUGHTER,HF,lure,-,-,-,conservative,no,m,1,0.933336363943,3,221
2019_Oct_24,211,001,1,recog,67,JAMMING,LF,target,left,aqua,imageability,liberal,no,z,1,0.760088264063,3,224
2019_Oct_24,211,001,1,recog,68,RENAMED,LF,lure,-,-,-,liberal,no,m,1,0.920186573128,1,225
2019_Oct_24,211,001,1,recog,69,POSITION,HF,target,right,yellow,pleasantness,liberal,no,z,1,3.09251119248,3,228
2019_Oct_24,211,001,1,recog,70,WIPERS,LF,target,right,yellow,pleasantness,conservative,no,m,0,0.813408541333,-1,227
2019_Oct_24,211,001,1,recog,71,CONCERNED,HF,target,left,aqua,imageability,conservative,no,z,1,1.9462753563,1,228
2019_Oct_24,211,001,1,recog,72,INSIDE,HF,lure,-,-,-,liberal,no,m,1,2.34617761914,1,229
2019_Oct_24,211,001,1,recog,73,RAYON,LF,lure,-,-,-,conservative,no,m,1,0.786717057885,3,232
2019_Oct_24,211,001,1,recog,74,ECONOMIC,HF,lure,-,-,-,liberal,no,m,1,0.906711236181,1,233
2019_Oct_24,211,001,1,recog,75,CHOICE,HF,target,left,aqua,imageability,liberal,no,z,1,1.15993516939,3,236
2019_Oct_24,211,001,1,recog,76,MERELY,HF,lure,-,-,-,liberal,no,m,1,0.680153123996,1,237
2019_Oct_24,211,001,1,recog,77,SILENCER,LF,lure,-,-,-,liberal,no,m,1,0.973321714368,1,238
2019_Oct_24,211,001,1,recog,78,PREPARED,HF,target,right,yellow,pleasantness,liberal,no,z,1,0.933331231459,3,241
2019_Oct_24,211,001,1,recog,79,OBSCURELY,LF,target,right,yellow,pleasantness,liberal,no,z,1,0.839909023053,3,244
2019_Oct_24,211,001,1,recog,80,USING,HF,lure,-,-,-,conservative,no,z,0,2.42611862491,-3,241
2019_Oct_24,211,001,1,recog,81,OTHERS,HF,lure,-,-,-,conservative,no,m,1,0.946685955031,3,244
2019_Oct_24,211,001,1,recog,82,QUALITY,HF,lure,-,-,-,liberal,no,m,1,2.22592571682,1,245
2019_Oct_24,211,001,1,recog,83,UPTIGHT,LF,target,right,yellow,pleasantness,conservative,no,z,1,2.63935500806,1,246
2019_Oct_24,211,001,1,recog,84,CHAIR,HF,target,left,aqua,imageability,liberal,no,z,1,0.640123414246,3,249
2019_Oct_24,211,001,1,recog,85,VARIOUS,HF,lure,-,-,-,conservative,no,m,1,1.02665079018,3,252
2019_Oct_24,211,001,1,recog,86,FUDGE,LF,lure,-,-,-,liberal,no,z,0,1.65305690752,-1,251
2019_Oct_24,211,001,1,recog,87,TEACUP,LF,target,right,yellow,pleasantness,liberal,no,z,1,0.893428733993,3,254
2019_Oct_24,211,001,1,recog,88,DIMMED,LF,target,right,yellow,pleasantness,liberal,no,z,1,0.986663606728,3,257
2019_Oct_24,211,001,1,recog,89,RADIAL,LF,lure,-,-,-,conservative,no,m,1,1.41301539305,3,260
2019_Oct_24,211,001,1,recog,90,MATERIAL,HF,lure,-,-,-,liberal,no,m,1,2.85261852006,1,261
2019_Oct_24,211,001,1,recog,91,JADED,LF,target,right,yellow,pleasantness,conservative,no,z,1,0.893182741363,1,262
2019_Oct_24,211,001,1,recog,92,VOLITION,LF,target,left,aqua,imageability,conservative,no,z,1,2.23927384149,1,263
2019_Oct_24,211,001,1,recog,93,VEERED,LF,target,left,aqua,imageability,conservative,no,z,1,0.626797285942,1,264
2019_Oct_24,211,001,1,recog,94,ABLAZE,LF,target,right,yellow,pleasantness,conservative,no,z,1,0.626810850365,1,265
2019_Oct_24,211,001,1,recog,95,AFTERNOON,HF,target,right,yellow,pleasantness,liberal,no,z,1,0.666779336912,3,268
2019_Oct_24,211,001,2,source,0,FUNNILY,LF,target,left,aqua,imageability,conservative,no,8,0,2.42604273746,-,-
2019_Oct_24,211,001,2,source,1,SACRAMENT,LF,target,left,aqua,imageability,conservative,no,1,1,1.86632005291,-,-
2019_Oct_24,211,001,2,source,2,FORCE,HF,target,left,aqua,imageability,liberal,no,1,1,0.920021233819,-,-
2019_Oct_24,211,001,2,source,3,SMIRK,LF,target,left,aqua,imageability,liberal,no,1,1,1.55976997673,-,-
2019_Oct_24,211,001,2,source,4,GADGET,LF,target,right,yellow,pleasantness,conservative,yes,3,0,1.67947856895,-,-
2019_Oct_24,211,001,2,source,5,RESEARCH,HF,target,right,yellow,pleasantness,liberal,yes,3,0,0.62699122052,-,-
2019_Oct_24,211,001,2,source,6,ADDED,HF,target,right,yellow,pleasantness,conservative,no,7,1,2.11956781551,-,-
2019_Oct_24,211,001,2,source,7,TIGHTNESS,LF,target,right,yellow,pleasantness,liberal,no,8,1,1.81298694443,-,-
2019_Oct_24,211,001,2,source,8,HAPPEN,HF,target,left,aqua,imageability,liberal,no,8,0,1.54639435661,-,-
2019_Oct_24,211,001,2,source,9,COMES,HF,target,right,yellow,pleasantness,liberal,no,9,1,1.46647204776,-,-
2019_Oct_24,211,001,2,source,10,NUMBER,HF,target,left,aqua,imageability,liberal,no,8,0,2.27954257836,-,-
2019_Oct_24,211,001,2,source,11,AFRAID,HF,target,left,aqua,imageability,liberal,no,8,0,2.30591071531,-,-
2019_Oct_24,211,001,2,source,12,IDLING,LF,target,right,yellow,pleasantness,liberal,no,8,1,2.31955432441,-,-
2019_Oct_24,211,001,2,source,13,MORNING,HF,target,right,yellow,pleasantness,conservative,no,9,1,2.33279943279,-,-
2019_Oct_24,211,001,2,source,14,BURGH,LF,target,left,aqua,imageability,liberal,no,1,1,1.37298641651,-,-
2019_Oct_24,211,001,2,source,15,ASHEN,LF,target,right,yellow,pleasantness,conservative,no,9,1,1.25321293503,-,-
2019_Oct_24,211,001,2,source,16,OUTSIDE,HF,target,right,yellow,pleasantness,conservative,no,8,1,2.14624683436,-,-
2019_Oct_24,211,001,2,source,17,VACATED,LF,target,right,yellow,pleasantness,liberal,yes,7,1,1.02634577399,-,-
2019_Oct_24,211,001,2,source,18,METABOLIC,LF,target,left,aqua,imageability,conservative,no,8,0,2.51916836161,-,-
2019_Oct_24,211,001,2,source,19,WRANGLING,LF,target,right,yellow,pleasantness,conservative,no,7,1,2.22619517224,-,-
2019_Oct_24,211,001,2,source,20,COOING,LF,target,left,aqua,imageability,conservative,no,2,1,1.7197282423,-,-
2019_Oct_24,211,001,2,source,21,CORNER,HF,target,left,aqua,imageability,conservative,yes,1,1,1.25319717097,-,-
2019_Oct_24,211,001,2,source,22,WHATEVER,HF,target,left,aqua,imageability,conservative,no,1,1,2.34610466455,-,-
2019_Oct_24,211,001,2,source,23,STAFF,HF,target,left,aqua,imageability,liberal,no,1,1,1.62639071988,-,-
2019_Oct_24,211,001,2,source,24,BASIC,HF,target,right,yellow,pleasantness,liberal,no,7,1,2.21287674266,-,-
2019_Oct_24,211,001,2,source,25,DIGESTING,LF,target,right,yellow,pleasantness,liberal,no,8,1,2.06600521167,-,-
2019_Oct_24,211,001,2,source,26,LONGER,HF,target,left,aqua,imageability,conservative,no,7,0,2.14623840242,-,-
2019_Oct_24,211,001,2,source,27,TRIED,HF,target,left,aqua,imageability,conservative,no,7,0,2.37278405,-,-
2019_Oct_24,211,001,2,source,28,BODICE,LF,target,left,aqua,imageability,conservative,no,2,1,2.2126226847,-,-
2019_Oct_24,211,001,2,source,29,ARPEGGIO,LF,target,left,aqua,imageability,liberal,no,7,0,2.51916872821,-,-
2019_Oct_24,211,001,2,source,30,TATTERS,LF,target,right,yellow,pleasantness,liberal,no,8,1,1.63952401343,-,-
2019_Oct_24,211,001,2,source,31,LETTER,HF,target,right,yellow,pleasantness,conservative,no,8,1,2.58568902132,-,-
2019_Oct_24,211,001,2,source,32,UPHEAVALS,LF,target,left,aqua,imageability,conservative,no,2,1,1.839637368,-,-
2019_Oct_24,211,001,2,source,33,MARKET,HF,target,right,yellow,pleasantness,liberal,no,8,1,1.77301149237,-,-
2019_Oct_24,211,001,2,source,34,SCHOOL,HF,target,left,aqua,imageability,conservative,no,7,0,1.95963044648,-,-
2019_Oct_24,211,001,2,source,35,SECOND,HF,target,right,yellow,pleasantness,conservative,no,8,1,1.77279226197,-,-
2019_Oct_24,211,001,2,source,36,SNIGGERED,LF,target,right,yellow,pleasantness,conservative,no,7,1,1.99951461365,-,-
2019_Oct_24,211,001,2,source,37,LOANED,LF,target,left,aqua,imageability,liberal,no,8,0,2.63937737103,-,-
2019_Oct_24,211,001,2,source,38,JEWELLED,LF,target,left,aqua,imageability,liberal,no,8,0,1.71974877224,-,-
2019_Oct_24,211,001,2,source,39,TUBERS,LF,target,left,aqua,imageability,liberal,no,1,1,1.41322435848,-,-
2019_Oct_24,211,001,2,source,40,LAGER,LF,target,right,yellow,pleasantness,conservative,no,8,1,1.93294079606,-,-
2019_Oct_24,211,001,2,source,41,ALREADY,HF,target,left,aqua,imageability,conservative,no,2,1,2.51946494587,-,-
2019_Oct_24,211,001,2,source,42,THANK,HF,target,right,yellow,pleasantness,conservative,no,8,1,1.70617298524,-,-
2019_Oct_24,211,001,2,source,43,POINT,HF,target,left,aqua,imageability,liberal,no,7,0,1.38630044682,-,-
2019_Oct_24,211,001,2,source,44,VIGILANT,LF,target,right,yellow,pleasantness,conservative,no,9,1,1.49311587243,-,-
2019_Oct_24,211,001,2,source,45,ROCKER,LF,target,right,yellow,pleasantness,liberal,no,9,1,1.14636818094,-,-
2019_Oct_24,211,001,2,source,46,MOTHER,HF,target,right,yellow,pleasantness,liberal,no,8,1,1.42647753218,-,-
2019_Oct_24,211,001,2,source,47,WHETHER,HF,target,right,yellow,pleasantness,liberal,no,8,1,1.85302691915,-,-
2019_Oct_24,211,001,2,recog,0,ALLOWED,HF,lure,-,-,-,liberal,no,m,1,2.99923489327,1,269
2019_Oct_24,211,001,2,recog,1,WHATEVER,HF,target,left,aqua,imageability,conservative,yes,z,1,1.18654746595,1,270
2019_Oct_24,211,001,2,recog,2,FURTHER,HF,lure,-,-,-,conservative,no,m,1,2.14619770915,3,273
2019_Oct_24,211,001,2,recog,3,TIGHTNESS,LF,target,right,yellow,pleasantness,liberal,no,z,1,1.46626491537,3,276
2019_Oct_24,211,001,2,recog,4,YOGHURT,LF,lure,-,-,-,conservative,no,m,1,1.02665555606,3,279
2019_Oct_24,211,001,2,recog,5,VIGILANT,LF,target,right,yellow,pleasantness,conservative,no,z,1,1.13304791834,1,280
2019_Oct_24,211,001,2,recog,6,POINT,HF,target,left,aqua,imageability,liberal,no,z,1,1.58648675599,3,283
2019_Oct_24,211,001,2,recog,7,COOING,LF,target,left,aqua,imageability,conservative,no,z,1,1.22665892884,1,284
2019_Oct_24,211,001,2,recog,8,ASHEN,LF,target,right,yellow,pleasantness,conservative,no,z,1,0.586832098848,1,285
2019_Oct_24,211,001,2,recog,9,CORNER,HF,target,left,aqua,imageability,conservative,no,z,1,0.70683140963,1,286
2019_Oct_24,211,001,2,recog,10,AHEAD,HF,lure,-,-,-,liberal,no,z,0,2.17287782782,-1,285
2019_Oct_24,211,001,2,recog,11,ITSELF,HF,lure,-,-,-,liberal,no,m,1,1.0933059943,1,286
2019_Oct_24,211,001,2,recog,12,IDLING,LF,target,right,yellow,pleasantness,liberal,no,z,1,1.15997952872,3,289
2019_Oct_24,211,001,2,recog,13,DESERTER,LF,lure,-,-,-,liberal,no,m,1,1.4531363877,1,290
2019_Oct_24,211,001,2,recog,14,ZIGZAG,LF,lure,-,-,-,conservative,no,m,1,0.866688491944,3,293
2019_Oct_24,211,001,2,recog,15,GEYSER,LF,lure,-,-,-,conservative,no,m,1,1.05331074551,3,296
2019_Oct_24,211,001,2,recog,16,MARKET,HF,target,right,yellow,pleasantness,liberal,no,z,1,0.906699138182,3,299
2019_Oct_24,211,001,2,recog,17,TOGETHER,HF,lure,-,-,-,liberal,no,z,0,0.706738291704,-1,298
2019_Oct_24,211,001,2,recog,18,HOTEL,HF,lure,-,-,-,conservative,no,m,1,1.11978191342,3,301
2019_Oct_24,211,001,2,recog,19,LOANED,LF,target,left,aqua,imageability,liberal,no,m,0,1.73303860655,-3,298
2019_Oct_24,211,001,2,recog,20,MELODIC,LF,lure,-,-,-,liberal,no,m,1,1.0933301903,1,299
2019_Oct_24,211,001,2,recog,21,NOTHING,HF,lure,-,-,-,liberal,no,m,1,1.89296424418,1,300
2019_Oct_24,211,001,2,recog,22,EDUCATION,HF,lure,-,-,-,liberal,no,z,0,1.5464669446,-1,299
2019_Oct_24,211,001,2,recog,23,ADJOURNED,LF,lure,-,-,-,liberal,no,m,1,1.46648414576,1,300
2019_Oct_24,211,001,2,recog,24,COVER,HF,lure,-,-,-,conservative,no,m,1,1.54644714788,3,303
2019_Oct_24,211,001,2,recog,25,FORCE,HF,target,left,aqua,imageability,liberal,no,z,1,1.01334079254,3,306
2019_Oct_24,211,001,2,recog,26,KINDEST,LF,lure,-,-,-,conservative,no,m,1,1.03995638855,3,309
2019_Oct_24,211,001,2,recog,27,METABOLIC,LF,target,left,aqua,imageability,conservative,no,z,1,0.760070666974,1,310
2019_Oct_24,211,001,2,recog,28,BODICE,LF,target,left,aqua,imageability,conservative,no,z,1,0.77376633413,1,311
2019_Oct_24,211,001,2,recog,29,IRATE,LF,lure,-,-,-,conservative,no,z,0,0.666824429451,-3,308
2019_Oct_24,211,001,2,recog,30,SCHOOL,HF,target,left,aqua,imageability,conservative,no,z,1,1.26663071484,1,309
2019_Oct_24,211,001,2,recog,31,ANSWER,HF,lure,-,-,-,conservative,no,m,1,0.906749729811,3,312
2019_Oct_24,211,001,2,recog,32,NUMBER,HF,target,left,aqua,imageability,liberal,no,z,1,1.27963936234,3,315
2019_Oct_24,211,001,2,recog,33,FAILINGS,LF,lure,-,-,-,liberal,no,m,1,1.03991569528,1,316
2019_Oct_24,211,001,2,recog,34,WHETHER,HF,target,right,yellow,pleasantness,liberal,no,z,1,0.999991201455,3,319
2019_Oct_24,211,001,2,recog,35,HAPPEN,HF,target,left,aqua,imageability,liberal,no,z,1,0.933514167856,3,322
2019_Oct_24,211,001,2,recog,36,KILOWATT,LF,lure,-,-,-,liberal,yes,z,0,0.746773500545,-1,321
2019_Oct_24,211,001,2,recog,37,LETTER,HF,target,right,yellow,pleasantness,conservative,no,z,1,1.59980921824,1,322
2019_Oct_24,211,001,2,recog,38,SKATES,LF,lure,-,-,-,liberal,no,m,1,0.999991568062,1,323
2019_Oct_24,211,001,2,recog,39,DIGESTING,LF,target,right,yellow,pleasantness,liberal,no,z,1,0.906698771577,3,326
2019_Oct_24,211,001,2,recog,40,UPHEAVALS,LF,target,left,aqua,imageability,conservative,no,z,1,1.11992049049,1,327
2019_Oct_24,211,001,2,recog,41,RESEARCH,HF,target,right,yellow,pleasantness,liberal,no,z,1,2.66604502508,3,330
2019_Oct_24,211,001,2,recog,42,ESCALATED,LF,lure,-,-,-,liberal,no,m,1,2.74599116333,1,331
2019_Oct_24,211,001,2,recog,43,FIXTURE,LF,lure,-,-,-,conservative,no,m,1,0.799839719854,3,334
2019_Oct_24,211,001,2,recog,44,VACATED,LF,target,right,yellow,pleasantness,liberal,no,z,1,1.01340604841,3,337
2019_Oct_24,211,001,2,recog,45,THANK,HF,target,right,yellow,pleasantness,conservative,no,z,1,0.906451679129,1,338
2019_Oct_24,211,001,2,recog,46,SECOND,HF,target,right,yellow,pleasantness,conservative,no,z,1,0.599901602948,1,339
2019_Oct_24,211,001,2,recog,47,SMALL,HF,lure,-,-,-,conservative,no,m,1,1.31985090867,3,342
2019_Oct_24,211,001,2,recog,48,LAGER,LF,target,right,yellow,pleasantness,conservative,no,z,1,0.706917195434,1,343
2019_Oct_24,211,001,2,recog,49,EXPECT,HF,lure,-,-,-,conservative,no,m,1,1.31978968547,3,346
2019_Oct_24,211,001,2,recog,50,FAMILY,HF,lure,-,-,-,conservative,no,m,1,1.759705894,3,349
2019_Oct_24,211,001,2,recog,51,USELESSLY,LF,lure,-,-,-,liberal,no,m,1,0.746505511554,1,350
2019_Oct_24,211,001,2,recog,52,COMES,HF,target,right,yellow,pleasantness,liberal,no,z,1,0.919769008889,3,353
2019_Oct_24,211,001,2,recog,53,TATTERS,LF,target,right,yellow,pleasantness,liberal,no,z,1,0.800057483822,3,356
2019_Oct_24,211,001,2,recog,54,JEWELLED,LF,target,left,aqua,imageability,liberal,no,z,1,0.586802770368,3,359
2019_Oct_24,211,001,2,recog,55,BASIC,HF,target,right,yellow,pleasantness,liberal,no,z,1,1.14660170897,3,362
2019_Oct_24,211,001,2,recog,56,OPENED,HF,lure,-,-,-,liberal,no,z,0,1.25321036879,-1,361
2019_Oct_24,211,001,2,recog,57,OUTSIDE,HF,target,right,yellow,pleasantness,conservative,no,z,1,0.879839749183,1,362
2019_Oct_24,211,001,2,recog,58,MORNING,HF,target,right,yellow,pleasantness,conservative,no,z,1,1.55953681531,1,363
2019_Oct_24,211,001,2,recog,59,BURGH,LF,target,left,aqua,imageability,liberal,no,z,1,0.680179886234,3,366
2019_Oct_24,211,001,2,recog,60,PRIVATE,HF,lure,-,-,-,conservative,no,m,1,1.55975531249,3,369
2019_Oct_24,211,001,2,recog,61,WRANGLING,LF,target,right,yellow,pleasantness,conservative,no,z,1,1.07997693315,1,370
2019_Oct_24,211,001,2,recog,62,APPEARED,HF,lure,-,-,-,conservative,no,m,1,0.999980569882,3,373
2019_Oct_24,211,001,2,recog,63,TUBERS,LF,target,left,aqua,imageability,liberal,no,z,1,0.933341863033,3,376
2019_Oct_24,211,001,2,recog,64,TRIED,HF,target,left,aqua,imageability,conservative,no,z,1,2.09289612879,1,377
2019_Oct_24,211,001,2,recog,65,HECTOR,LF,lure,-,-,-,conservative,no,m,1,1.07996923442,3,380
2019_Oct_24,211,001,2,recog,66,WATCH,HF,lure,-,-,-,liberal,no,m,1,1.07995237055,1,381
2019_Oct_24,211,001,2,recog,67,WIRING,LF,lure,-,-,-,conservative,no,m,1,0.826534869363,3,384
2019_Oct_24,211,001,2,recog,68,TRADE,HF,lure,-,-,-,liberal,no,m,1,1.13342039004,1,385
2019_Oct_24,211,001,2,recog,69,STAFF,HF,target,left,aqua,imageability,liberal,no,z,1,0.720160104174,3,388
2019_Oct_24,211,001,2,recog,70,HITCHING,LF,lure,-,-,-,conservative,no,m,1,1.30652258073,3,391
2019_Oct_24,211,001,2,recog,71,FONDLE,LF,lure,-,-,-,conservative,no,m,1,0.960009883698,3,394
2019_Oct_24,211,001,2,recog,72,SACRAMENT,LF,target,left,aqua,imageability,conservative,no,z,1,0.893430567022,1,395
2019_Oct_24,211,001,2,recog,73,BOXCAR,LF,lure,-,-,-,liberal,no,m,1,0.719866086159,1,396
2019_Oct_24,211,001,2,recog,74,ALREADY,HF,target,left,aqua,imageability,conservative,no,z,1,0.813373347157,1,397
2019_Oct_24,211,001,2,recog,75,REQUIRED,HF,lure,-,-,-,liberal,no,m,1,0.826769497207,1,398
2019_Oct_24,211,001,2,recog,76,SNIGGERED,LF,target,right,yellow,pleasantness,conservative,no,z,1,0.933434980958,1,399
2019_Oct_24,211,001,2,recog,77,CESSATION,LF,lure,-,-,-,liberal,yes,z,0,0.973333812365,-1,398
2019_Oct_24,211,001,2,recog,78,ROMANCES,LF,lure,-,-,-,conservative,no,m,1,1.53312175279,3,401
2019_Oct_24,211,001,2,recog,79,CUTLER,LF,lure,-,-,-,conservative,no,m,1,1.97293751127,3,404
2019_Oct_24,211,001,2,recog,80,LONGER,HF,target,left,aqua,imageability,conservative,no,z,1,0.866707922062,1,405
2019_Oct_24,211,001,2,recog,81,OBTAINS,LF,lure,-,-,-,liberal,no,m,1,0.720116844666,1,406
2019_Oct_24,211,001,2,recog,82,PLACE,HF,lure,-,-,-,conservative,no,m,1,1.01336718818,3,409
2019_Oct_24,211,001,2,recog,83,DUELLING,LF,lure,-,-,-,liberal,no,m,1,0.719880750398,1,410
2019_Oct_24,211,001,2,recog,84,FUNNILY,LF,target,left,aqua,imageability,conservative,no,z,1,0.759821008283,1,411
2019_Oct_24,211,001,2,recog,85,MOTHER,HF,target,right,yellow,pleasantness,liberal,yes,z,1,0.720119044303,3,414
2019_Oct_24,211,001,2,recog,86,AFRAID,HF,target,left,aqua,imageability,liberal,no,z,1,1.19986332928,3,417
2019_Oct_24,211,001,2,recog,87,ADDED,HF,target,right,yellow,pleasantness,conservative,no,m,0,0.946684855213,-1,416
2019_Oct_24,211,001,2,recog,88,EFFECT,HF,lure,-,-,-,liberal,no,m,1,1.49310230801,1,417
2019_Oct_24,211,001,2,recog,89,TERMS,HF,lure,-,-,-,conservative,no,m,1,1.479806608,3,420
2019_Oct_24,211,001,2,recog,90,ROCKER,LF,target,right,yellow,pleasantness,liberal,no,z,1,1.15997146339,3,423
2019_Oct_24,211,001,2,recog,91,GLASS,HF,lure,-,-,-,liberal,no,m,1,0.973279921282,1,424
2019_Oct_24,211,001,2,recog,92,GADGET,LF,target,right,yellow,pleasantness,conservative,no,z,1,0.813397909759,1,425
2019_Oct_24,211,001,2,recog,93,SMIRK,LF,target,left,aqua,imageability,liberal,no,z,1,0.586611035427,3,428
2019_Oct_24,211,001,2,recog,94,ARPEGGIO,LF,target,left,aqua,imageability,liberal,no,z,1,0.626786654368,3,431
2019_Oct_24,211,001,2,recog,95,GROUND,HF,lure,-,-,-,conservative,no,z,0,1.29322064842,-3,428
2019_Oct_24,211,001,3,source,0,PIVOT,LF,target,left,aqua,imageability,conservative,no,8,0,2.03957768455,-,-
2019_Oct_24,211,001,3,source,1,FILAMENTS,LF,target,left,aqua,imageability,liberal,yes,7,0,1.54645044733,-,-
2019_Oct_24,211,001,3,source,2,TOKENS,LF,target,right,yellow,pleasantness,conservative,no,9,1,1.62643581242,-,-
2019_Oct_24,211,001,3,source,3,CALLED,HF,target,right,yellow,pleasantness,conservative,no,9,1,1.55977364279,-,-
2019_Oct_24,211,001,3,source,4,DURING,HF,target,left,aqua,imageability,liberal,no,7,0,1.53287979282,-,-
2019_Oct_24,211,001,3,source,5,PROBABLY,HF,target,left,aqua,imageability,liberal,no,3,1,3.66561829569,-,-
2019_Oct_24,211,001,3,source,6,PUBLIC,HF,target,left,aqua,imageability,liberal,no,3,1,2.17288735957,-,-
2019_Oct_24,211,001,3,source,7,PARENTS,HF,target,left,aqua,imageability,conservative,no,7,0,2.99924662466,-,-
2019_Oct_24,211,001,3,source,8,SUDDENLY,HF,target,right,yellow,pleasantness,conservative,no,8,1,2.57253079857,-,-
2019_Oct_24,211,001,3,source,9,SLEEP,HF,target,left,aqua,imageability,conservative,no,3,1,2.27926139155,-,-
2019_Oct_24,211,001,3,source,10,EVENING,HF,target,right,yellow,pleasantness,liberal,no,7,1,2.21283311655,-,-
2019_Oct_24,211,001,3,source,11,NAIVELY,LF,target,left,aqua,imageability,conservative,no,8,0,2.83928432642,-,-
2019_Oct_24,211,001,3,source,12,NECESSARY,HF,target,right,yellow,pleasantness,liberal,no,9,1,1.65311006539,-,-
2019_Oct_24,211,001,3,source,13,EXACTLY,HF,target,left,aqua,imageability,conservative,no,8,0,1.69304702382,-,-
2019_Oct_24,211,001,3,source,14,GARDEN,HF,target,left,aqua,imageability,conservative,yes,7,0,0.89314901361,-,-
2019_Oct_24,211,001,3,source,15,EBONY,LF,target,left,aqua,imageability,conservative,no,2,1,2.27926029173,-,-
2019_Oct_24,211,001,3,source,16,GUARDSMEN,LF,target,left,aqua,imageability,liberal,no,1,1,1.66645599042,-,-
2019_Oct_24,211,001,3,source,17,MAKES,HF,target,right,yellow,pleasantness,conservative,no,7,1,1.69305545576,-,-
2019_Oct_24,211,001,3,source,18,RODENTS,LF,target,right,yellow,pleasantness,liberal,no,8,1,1.30629785125,-,-
2019_Oct_24,211,001,3,source,19,LAWFUL,LF,target,right,yellow,pleasantness,conservative,no,8,1,2.38612557575,-,-
2019_Oct_24,211,001,3,source,20,BLUECOATS,LF,target,right,yellow,pleasantness,liberal,no,9,1,2.10622005745,-,-
2019_Oct_24,211,001,3,source,21,MONEY,HF,target,right,yellow,pleasantness,liberal,no,9,1,1.93276849124,-,-
2019_Oct_24,211,001,3,source,22,LINEAGE,LF,target,left,aqua,imageability,liberal,no,1,1,1.39958698167,-,-
2019_Oct_24,211,001,3,source,23,WASHBASIN,LF,target,right,yellow,pleasantness,liberal,no,8,1,1.50646546351,-,-
2019_Oct_24,211,001,3,source,24,COACHED,LF,target,right,yellow,pleasantness,liberal,no,9,1,1.53311405406,-,-
2019_Oct_24,211,001,3,source,25,HOPPER,LF,target,right,yellow,pleasantness,liberal,no,9,1,1.1066805146,-,-
2019_Oct_24,211,001,3,source,26,BETTER,HF,target,right,yellow,pleasantness,liberal,no,7,1,1.38648961552,-,-
2019_Oct_24,211,001,3,source,27,WESTERN,HF,target,left,aqua,imageability,liberal,no,3,1,2.66599589988,-,-
2019_Oct_24,211,001,3,source,28,POWER,HF,target,left,aqua,imageability,liberal,no,1,1,2.13291923963,-,-
2019_Oct_24,211,001,3,source,29,SHALL,HF,target,left,aqua,imageability,liberal,no,1,1,1.82608431058,-,-
2019_Oct_24,211,001,3,source,30,EMPATHY,LF,target,left,aqua,imageability,liberal,no,2,1,1.57310233733,-,-
2019_Oct_24,211,001,3,source,31,MOUTH,HF,target,right,yellow,pleasantness,conservative,no,7,1,1.81298914406,-,-
2019_Oct_24,211,001,3,source,32,ARRIVED,HF,target,right,yellow,pleasantness,conservative,no,8,1,2.21283678261,-,-
2019_Oct_24,211,001,3,source,33,LANGUAGE,HF,target,right,yellow,pleasantness,liberal,no,8,1,3.10559939349,-,-
2019_Oct_24,211,001,3,source,34,MOSAICS,LF,target,left,aqua,imageability,conservative,no,8,0,1.35985422279,-,-
2019_Oct_24,211,001,3,source,35,LUXURIANT,LF,target,right,yellow,pleasantness,conservative,yes,7,1,0.866456063736,-,-
2019_Oct_24,211,001,3,source,36,SUMMER,HF,target,left,aqua,imageability,conservative,no,2,1,2.14622447139,-,-
2019_Oct_24,211,001,3,source,37,ANNALS,LF,target,left,aqua,imageability,liberal,no,1,1,2.89257417539,-,-
2019_Oct_24,211,001,3,source,38,COUNCIL,HF,target,right,yellow,pleasantness,liberal,no,7,1,1.57310637,-,-
2019_Oct_24,211,001,3,source,39,CIRCUSES,LF,target,left,aqua,imageability,liberal,no,8,0,1.47979487661,-,-
2019_Oct_24,211,001,3,source,40,DELEGATED,LF,target,right,yellow,pleasantness,conservative,no,8,1,2.31921558046,-,-
2019_Oct_24,211,001,3,source,41,SPEAK,HF,target,right,yellow,pleasantness,conservative,no,9,1,2.46608087915,-,-
2019_Oct_24,211,001,3,source,42,EMACIATED,LF,target,right,yellow,pleasantness,liberal,no,9,1,1.8130159063,-,-
2019_Oct_24,211,001,3,source,43,OPPOSES,LF,target,left,aqua,imageability,conservative,no,7,0,1.95954319425,-,-
2019_Oct_24,211,001,3,source,44,APOSTLE,LF,target,left,aqua,imageability,conservative,no,8,0,2.03957658473,-,-
2019_Oct_24,211,001,3,source,45,MALIGNED,LF,target,right,yellow,pleasantness,conservative,yes,7,1,0.746752970608,-,-
2019_Oct_24,211,001,3,source,46,DYEING,LF,target,right,yellow,pleasantness,conservative,no,9,1,1.31986190685,-,-
2019_Oct_24,211,001,3,source,47,MAYBE,HF,target,left,aqua,imageability,conservative,no,8,0,2.63934694273,-,-
2019_Oct_24,211,001,3,recog,0,HANDS,HF,lure,-,-,-,liberal,no,m,1,1.78634641921,1,429
2019_Oct_24,211,001,3,recog,1,COUNCIL,HF,target,right,yellow,pleasantness,liberal,no,z,1,0.84005163279,3,432
2019_Oct_24,211,001,3,recog,2,APART,HF,lure,-,-,-,liberal,yes,z,0,1.14660757467,-1,431
2019_Oct_24,211,001,3,recog,3,AXIOM,LF,lure,-,-,-,liberal,no,m,1,1.1066563186,1,432
2019_Oct_24,211,001,3,recog,4,DECIDED,HF,lure,-,-,-,liberal,no,m,1,0.960024181331,1,433
2019_Oct_24,211,001,3,recog,5,WHOLE,HF,lure,-,-,-,conservative,no,m,1,1.81297997891,3,436
2019_Oct_24,211,001,3,recog,6,SCOFFED,LF,lure,-,-,-,liberal,no,m,1,1.38654130696,1,437
2019_Oct_24,211,001,3,recog,7,PARENTS,HF,target,left,aqua,imageability,conservative,no,z,1,0.813143851798,1,438
2019_Oct_24,211,001,3,recog,8,PROBABLY,HF,target,left,aqua,imageability,liberal,no,z,1,0.679881835552,3,441
2019_Oct_24,211,001,3,recog,9,ENERGY,HF,lure,-,-,-,conservative,no,m,1,1.21330860454,3,444
2019_Oct_24,211,001,3,recog,10,WESTERN,HF,target,left,aqua,imageability,liberal,no,z,1,0.746986132028,3,447
2019_Oct_24,211,001,3,recog,11,EVENING,HF,target,right,yellow,pleasantness,liberal,no,z,1,1.26631213422,3,450
2019_Oct_24,211,001,3,recog,12,MOSAICS,LF,target,left,aqua,imageability,conservative,no,z,1,0.613485088667,1,451
2019_Oct_24,211,001,3,recog,13,SIBLINGS,LF,lure,-,-,-,liberal,no,m,1,1.15998576102,1,452
2019_Oct_24,211,001,3,recog,14,BETTER,HF,target,right,yellow,pleasantness,liberal,no,z,1,1.10659876146,3,455
2019_Oct_24,211,001,3,recog,15,UNFAILING,LF,lure,-,-,-,liberal,no,m,1,1.19990328934,1,456
2019_Oct_24,211,001,3,recog,16,EXACTLY,HF,target,left,aqua,imageability,conservative,no,z,1,1.10662149103,1,457
2019_Oct_24,211,001,3,recog,17,MICROCOSM,LF,lure,-,-,-,conservative,no,m,1,1.19968919143,3,460
2019_Oct_24,211,001,3,recog,18,SENSE,HF,lure,-,-,-,conservative,no,m,1,1.74645528653,3,463
2019_Oct_24,211,001,3,recog,19,KETCHUP,LF,lure,-,-,-,liberal,no,m,1,0.919960743829,1,464
2019_Oct_24,211,001,3,recog,20,ANOINTED,LF,lure,-,-,-,conservative,no,m,1,0.973323180791,3,467
2019_Oct_24,211,001,3,recog,21,NECESSARY,HF,target,right,yellow,pleasantness,liberal,no,z,1,0.906465976763,3,470
2019_Oct_24,211,001,3,recog,22,OCTAGONAL,LF,lure,-,-,-,liberal,no,m,1,0.88003551679,1,471
2019_Oct_24,211,001,3,recog,23,WASHBASIN,LF,target,right,yellow,pleasantness,liberal,no,z,1,1.13332837193,3,474
2019_Oct_24,211,001,3,recog,24,FUTURE,HF,lure,-,-,-,conservative,no,m,1,1.62644607739,3,477
2019_Oct_24,211,001,3,recog,25,RANGE,HF,lure,-,-,-,liberal,no,z,0,2.35948651696,-1,476
2019_Oct_24,211,001,3,recog,26,CUDDLE,LF,lure,-,-,-,conservative,no,m,1,1.319846876,3,479
2019_Oct_24,211,001,3,recog,27,HIGHER,HF,lure,-,-,-,liberal,no,m,1,1.79987638046,1,480
2019_Oct_24,211,001,3,recog,28,ARRIVED,HF,target,right,yellow,pleasantness,conservative,no,z,1,1.55977840867,1,481
2019_Oct_24,211,001,3,recog,29,MAKES,HF,target,right,yellow,pleasantness,conservative,no,z,1,1.21303731609,1,482
2019_Oct_24,211,001,3,recog,30,MONEY,HF,target,right,yellow,pleasantness,liberal,no,z,1,0.866749715147,3,485
2019_Oct_24,211,001,3,recog,31,COACHED,LF,target,right,yellow,pleasantness,liberal,no,z,1,0.666825162663,3,488
2019_Oct_24,211,001,3,recog,32,CALLED,HF,target,right,yellow,pleasantness,conservative,no,z,1,0.813137252889,1,489
2019_Oct_24,211,001,3,recog,33,TELEPHONE,HF,lure,-,-,-,conservative,no,m,1,0.880032583942,3,492
2019_Oct_24,211,001,3,recog,34,SEGMENTED,LF,lure,-,-,-,liberal,no,m,1,0.853613855361,1,493
2019_Oct_24,211,001,3,recog,35,HOPPER,LF,target,right,yellow,pleasantness,liberal,no,z,1,0.800127138963,3,496
2019_Oct_24,211,001,3,recog,36,NAIVELY,LF,target,left,aqua,imageability,conservative,no,z,1,1.89297890842,1,497
2019_Oct_24,211,001,3,recog,37,GRUBS,LF,lure,-,-,-,liberal,no,m,1,0.77344152121,1,498
2019_Oct_24,211,001,3,recog,38,DRUDGERY,LF,lure,-,-,-,conservative,no,m,1,1.55975971176,3,501
2019_Oct_24,211,001,3,recog,39,SLEEP,HF,target,left,aqua,imageability,conservative,no,z,1,0.680112797336,1,502
2019_Oct_24,211,001,3,recog,40,SUDDENLY,HF,target,right,yellow,pleasantness,conservative,no,z,1,0.666796200789,1,503
2019_Oct_24,211,001,3,recog,41,FRONT,HF,lure,-,-,-,conservative,no,m,1,1.54642661794,3,506
2019_Oct_24,211,001,3,recog,42,PIVOT,LF,target,left,aqua,imageability,conservative,no,z,1,0.760070300368,1,507
2019_Oct_24,211,001,3,recog,43,PAYOFF,LF,lure,-,-,-,conservative,no,m,1,0.906735432177,3,510
2019_Oct_24,211,001,3,recog,44,PERHAPS,HF,lure,-,-,-,conservative,no,m,1,1.26659515405,3,513
2019_Oct_24,211,001,3,recog,45,SUMMER,HF,target,left,aqua,imageability,conservative,no,z,1,0.960033713088,1,514
2019_Oct_24,211,001,3,recog,46,WAXEN,LF,lure,-,-,-,conservative,no,m,1,1.02665372303,3,517
2019_Oct_24,211,001,3,recog,47,SHALL,HF,target,left,aqua,imageability,liberal,no,z,1,0.800140336779,3,520
2019_Oct_24,211,001,3,recog,48,MALIGNED,LF,target,right,yellow,pleasantness,conservative,no,z,1,0.68009959952,1,521
2019_Oct_24,211,001,3,recog,49,APOSTLE,LF,target,left,aqua,imageability,conservative,no,z,1,0.52019705806,1,522
2019_Oct_24,211,001,3,recog,50,NEPHEWS,LF,lure,-,-,-,conservative,no,m,1,0.85340379012,3,525
2019_Oct_24,211,001,3,recog,51,ERODE,LF,lure,-,-,-,conservative,no,m,1,1.37316678667,3,528
2019_Oct_24,211,001,3,recog,52,OPPOSES,LF,target,left,aqua,imageability,conservative,no,m,0,1.27986335861,-1,527
2019_Oct_24,211,001,3,recog,53,HONKING,LF,lure,-,-,-,conservative,no,m,1,0.880025251821,3,530
2019_Oct_24,211,001,3,recog,54,RODENTS,LF,target,right,yellow,pleasantness,liberal,no,z,1,0.666820763391,3,533
2019_Oct_24,211,001,3,recog,55,MOMENT,HF,lure,-,-,-,liberal,no,m,1,1.03996335406,1,534
2019_Oct_24,211,001,3,recog,56,TILTS,LF,lure,-,-,-,conservative,no,m,1,1.05330414661,3,537
2019_Oct_24,211,001,3,recog,57,EBONY,LF,target,left,aqua,imageability,conservative,yes,m,0,0.933331231459,-1,536
2019_Oct_24,211,001,3,recog,58,CLASS,HF,lure,-,-,-,liberal,no,z,0,3.34549316573,-1,535
2019_Oct_24,211,001,3,recog,59,ANNALS,LF,target,left,aqua,imageability,liberal,no,z,1,1.27991321703,3,538
2019_Oct_24,211,001,3,recog,60,DYEING,LF,target,right,yellow,pleasantness,conservative,no,z,1,0.653526163203,1,539
2019_Oct_24,211,001,3,recog,61,BUILDING,HF,lure,-,-,-,liberal,no,m,1,2.35944948976,1,540
2019_Oct_24,211,001,3,recog,62,ENOUGH,HF,lure,-,-,-,liberal,no,m,1,3.82557656126,1,541
2019_Oct_24,211,001,3,recog,63,EMACIATED,LF,target,right,yellow,pleasantness,liberal,yes,z,1,1.23992859981,3,544
2019_Oct_24,211,001,3,recog,64,SOVIET,HF,lure,-,-,-,conservative,no,m,1,1.2530032364,3,547
2019_Oct_24,211,001,3,recog,65,LAWFUL,LF,target,right,yellow,pleasantness,conservative,no,z,1,0.973399068233,1,548
2019_Oct_24,211,001,3,recog,66,GENERAL,HF,lure,-,-,-,conservative,yes,z,0,1.05351531167,-3,545
2019_Oct_24,211,001,3,recog,67,SPEAK,HF,target,right,yellow,pleasantness,conservative,no,z,1,2.34616552114,1,546
2019_Oct_24,211,001,3,recog,68,PUBLIC,HF,target,left,aqua,imageability,liberal,no,z,1,1.62648750387,3,549
2019_Oct_24,211,001,3,recog,69,CIRCUSES,LF,target,left,aqua,imageability,liberal,no,z,1,0.706760654671,3,552
2019_Oct_24,211,001,3,recog,70,INACTION,LF,lure,-,-,-,conservative,no,m,1,1.54648270866,3,555
2019_Oct_24,211,001,3,recog,71,LUXURIANT,LF,target,right,yellow,pleasantness,conservative,no,z,1,1.46647094794,1,556
2019_Oct_24,211,001,3,recog,72,POWER,HF,target,left,aqua,imageability,liberal,no,z,1,1.54653843277,3,559
2019_Oct_24,211,001,3,recog,73,GUARDSMEN,LF,target,left,aqua,imageability,liberal,no,z,1,0.720127109634,3,562
2019_Oct_24,211,001,3,recog,74,LANGUAGE,HF,target,right,yellow,pleasantness,liberal,no,z,1,1.31992679611,3,565
2019_Oct_24,211,001,3,recog,75,COWARDS,LF,lure,-,-,-,liberal,no,m,1,0.95999961873,1,566
2019_Oct_24,211,001,3,recog,76,BLUECOATS,LF,target,right,yellow,pleasantness,liberal,no,z,1,0.84004796673,3,569
2019_Oct_24,211,001,3,recog,77,MAYBE,HF,target,left,aqua,imageability,conservative,no,z,1,2.27947732249,1,570
2019_Oct_24,211,001,3,recog,78,BRING,HF,lure,-,-,-,conservative,no,m,1,2.21280195504,3,573
2019_Oct_24,211,001,3,recog,79,NEARLY,HF,lure,-,-,-,conservative,no,z,0,2.03956412012,-3,570
2019_Oct_24,211,001,3,recog,80,EMPATHY,LF,target,left,aqua,imageability,liberal,no,z,1,1.21316746122,3,573
2019_Oct_24,211,001,3,recog,81,MOUTH,HF,target,right,yellow,pleasantness,conservative,no,z,1,0.54703994979,1,574
2019_Oct_24,211,001,3,recog,82,FACILE,LF,lure,-,-,-,liberal,no,m,1,1.09304570404,1,575
2019_Oct_24,211,001,3,recog,83,PUFFS,LF,lure,-,-,-,liberal,no,m,1,0.839806739978,1,576
2019_Oct_24,211,001,3,recog,84,DURING,HF,target,left,aqua,imageability,liberal,no,z,1,1.21326314539,3,579
2019_Oct_24,211,001,3,recog,85,WOMAN,HF,lure,-,-,-,liberal,no,m,1,0.999964805824,1,580
2019_Oct_24,211,001,3,recog,86,DODGED,LF,lure,-,-,-,liberal,no,m,1,1.43988651345,1,581
2019_Oct_24,211,001,3,recog,87,DELEGATED,LF,target,right,yellow,pleasantness,conservative,no,z,1,1.2265650777,1,582
2019_Oct_24,211,001,3,recog,88,SAMENESS,LF,lure,-,-,-,conservative,no,m,1,1.25309965378,3,585
2019_Oct_24,211,001,3,recog,89,LIVED,HF,lure,-,-,-,conservative,no,m,1,1.89296387758,3,588
2019_Oct_24,211,001,3,recog,90,INTEREST,HF,lure,-,-,-,liberal,no,m,1,0.880014253642,1,589
2019_Oct_24,211,001,3,recog,91,FILAMENTS,LF,target,left,aqua,imageability,liberal,no,z,1,1.02664382467,3,592
2019_Oct_24,211,001,3,recog,92,TOKENS,LF,target,right,yellow,pleasantness,conservative,no,z,1,0.559923218038,1,593
2019_Oct_24,211,001,3,recog,93,LINEAGE,LF,target,left,aqua,imageability,liberal,no,z,1,1.07980022906,3,596
2019_Oct_24,211,001,3,recog,94,GARDEN,HF,target,left,aqua,imageability,conservative,no,z,1,0.626874639809,1,597
2019_Oct_24,211,001,3,recog,95,SLIGHTLY,HF,lure,-,-,-,liberal,no,m,1,3.17249765739,1,598
2019_Oct_24,211,001,4,source,0,SORRY,HF,target,right,yellow,pleasantness,liberal,no,8,1,1.94627059043,-,-
2019_Oct_24,211,001,4,source,1,AVOCADO,LF,target,left,aqua,imageability,conservative,no,1,1,1.19993225121,-,-
2019_Oct_24,211,001,4,source,2,HUMAN,HF,target,left,aqua,imageability,conservative,no,8,0,1.54622168519,-,-
2019_Oct_24,211,001,4,source,3,WITHIN,HF,target,left,aqua,imageability,liberal,no,8,0,1.75983823877,-,-
2019_Oct_24,211,001,4,source,4,OBESE,LF,target,right,yellow,pleasantness,conservative,no,8,1,1.29323861212,-,-
2019_Oct_24,211,001,4,source,5,ENMESHED,LF,target,right,yellow,pleasantness,conservative,no,9,1,1.89296057812,-,-
2019_Oct_24,211,001,4,source,6,SEVEN,HF,target,right,yellow,pleasantness,liberal,yes,7,1,0.946429330827,-,-
2019_Oct_24,211,001,4,source,7,BEYOND,HF,target,left,aqua,imageability,conservative,no,8,0,1.9329737906,-,-
2019_Oct_24,211,001,4,source,8,PRUDENTLY,LF,target,left,aqua,imageability,conservative,no,8,0,1.26642981475,-,-
2019_Oct_24,211,001,4,source,9,DYNAMISM,LF,target,right,yellow,pleasantness,conservative,no,8,1,1.46627224748,-,-
2019_Oct_24,211,001,4,source,10,BROUGHT,HF,target,right,yellow,pleasantness,conservative,no,8,1,1.33318876837,-,-
2019_Oct_24,211,001,4,source,11,BULBOUS,LF,target,left,aqua,imageability,conservative,no,2,1,1.67969889916,-,-
2019_Oct_24,211,001,4,source,12,DISARMED,LF,target,left,aqua,imageability,liberal,no,2,1,1.85303718411,-,-
2019_Oct_24,211,001,4,source,13,EXCEPT,HF,target,right,yellow,pleasantness,conservative,no,8,1,1.86630502206,-,-
2019_Oct_24,211,001,4,source,14,ACTION,HF,target,right,yellow,pleasantness,liberal,no,8,1,2.57244831222,-,-
2019_Oct_24,211,001,4,source,15,WANTED,HF,target,left,aqua,imageability,liberal,no,8,0,1.62617625537,-,-
2019_Oct_24,211,001,4,source,16,PLEASE,HF,target,left,aqua,imageability,liberal,no,8,0,1.17330382399,-,-
2019_Oct_24,211,001,4,source,17,DORMS,LF,target,left,aqua,imageability,liberal,no,1,1,1.23989450546,-,-
2019_Oct_24,211,001,4,source,18,WEBBED,LF,target,left,aqua,imageability,liberal,no,1,1,0.786764716665,-,-
2019_Oct_24,211,001,4,source,19,OOZED,LF,target,left,aqua,imageability,liberal,no,1,1,0.573486907033,-,-
2019_Oct_24,211,001,4,source,20,HYENA,LF,target,left,aqua,imageability,conservative,no,1,1,0.826475845796,-,-
2019_Oct_24,211,001,4,source,21,DOUBT,HF,target,left,aqua,imageability,conservative,no,8,0,1.27988902103,-,-
2019_Oct_24,211,001,4,source,22,CAUGHT,HF,target,right,yellow,pleasantness,conservative,no,8,1,1.74612020864,-,-
2019_Oct_24,211,001,4,source,23,POLICE,HF,target,left,aqua,imageability,conservative,no,1,1,1.47955511628,-,-
2019_Oct_24,211,001,4,source,24,SAGES,LF,target,right,yellow,pleasantness,liberal,no,9,1,1.19987506067,-,-
2019_Oct_24,211,001,4,source,25,AGONIZED,LF,target,right,yellow,pleasantness,liberal,no,8,1,2.17286206376,-,-
2019_Oct_24,211,001,4,source,26,SPOKE,HF,target,right,yellow,pleasantness,liberal,no,9,1,1.45288269634,-,-
2019_Oct_24,211,001,4,source,27,ALTHOUGH,HF,target,left,aqua,imageability,liberal,no,2,1,2.02602169428,-,-
2019_Oct_24,211,001,4,source,28,TAKEN,HF,target,left,aqua,imageability,conservative,yes,3,1,1.0797782327,-,-
2019_Oct_24,211,001,4,source,29,BELIEVE,HF,target,right,yellow,pleasantness,liberal,no,8,1,2.38616296957,-,-
2019_Oct_24,211,001,4,source,30,NUCLEAR,HF,target,right,yellow,pleasantness,conservative,no,8,1,1.22658414121,-,-
2019_Oct_24,211,001,4,source,31,PAINTWORK,LF,target,right,yellow,pleasantness,conservative,yes,3,0,1.42648413109,-,-
2019_Oct_24,211,001,4,source,32,WINDOW,HF,target,right,yellow,pleasantness,conservative,no,9,1,1.35973434262,-,-
2019_Oct_24,211,001,4,source,33,PIGLETS,LF,target,left,aqua,imageability,liberal,no,3,1,2.50584993203,-,-
2019_Oct_24,211,001,4,source,34,MIXER,LF,target,right,yellow,pleasantness,liberal,no,9,1,1.34646503825,-,-
2019_Oct_24,211,001,4,source,35,DIZZINESS,LF,target,left,aqua,imageability,conservative,no,3,1,2.01291589618,-,-
2019_Oct_24,211,001,4,source,36,HINDERED,LF,target,right,yellow,pleasantness,conservative,no,9,1,2.61268002188,-,-
2019_Oct_24,211,001,4,source,37,JUBILANT,LF,target,right,yellow,pleasantness,conservative,no,9,1,0.933349195153,-,-
2019_Oct_24,211,001,4,source,38,DEXTERITY,LF,target,left,aqua,imageability,liberal,no,8,0,1.54645301358,-,-
2019_Oct_24,211,001,4,source,39,MITIGATE,LF,target,right,yellow,pleasantness,liberal,no,9,1,1.95961028315,-,-
2019_Oct_24,211,001,4,source,40,SEEMED,HF,target,right,yellow,pleasantness,liberal,no,7,1,1.78638051357,-,-
2019_Oct_24,211,001,4,source,41,EIGHT,HF,target,left,aqua,imageability,liberal,no,7,0,2.01282314486,-,-
2019_Oct_24,211,001,4,source,42,DAPPER,LF,target,right,yellow,pleasantness,liberal,no,9,1,1.82633140303,-,-
2019_Oct_24,211,001,4,source,43,IMPORTANT,HF,target,left,aqua,imageability,liberal,no,9,0,1.71971467788,-,-
2019_Oct_24,211,001,4,source,44,BOOKS,HF,target,left,aqua,imageability,conservative,yes,7,0,0.826711940064,-,-
2019_Oct_24,211,001,4,source,45,INVOLVED,HF,target,right,yellow,pleasantness,conservative,no,8,1,2.42620697695,-,-
2019_Oct_24,211,001,4,source,46,SODDING,LF,target,left,aqua,imageability,conservative,no,1,1,3.27887498882,-,-
2019_Oct_24,211,001,4,source,47,CYNIC,LF,target,right,yellow,pleasantness,liberal,no,9,1,1.70612495986,-,-
2019_Oct_24,211,001,4,recog,0,DUBIOUSLY,LF,lure,-,-,-,liberal,no,m,1,2.27951068363,1,599
2019_Oct_24,211,001,4,recog,1,TAKEN,HF,target,left,aqua,imageability,conservative,no,z,1,1.21321512,1,600
2019_Oct_24,211,001,4,recog,2,BROUGHT,HF,target,right,yellow,pleasantness,conservative,no,z,1,0.746498912647,1,601
2019_Oct_24,211,001,4,recog,3,HINDERED,LF,target,right,yellow,pleasantness,conservative,no,z,1,0.88003185073,1,602
2019_Oct_24,211,001,4,recog,4,ALTHOUGH,HF,target,left,aqua,imageability,liberal,no,z,1,1.06664383933,3,605
2019_Oct_24,211,001,4,recog,5,SAGES,LF,target,right,yellow,pleasantness,liberal,no,z,1,0.559924684462,3,608
2019_Oct_24,211,001,4,recog,6,HUMAN,HF,target,left,aqua,imageability,conservative,no,z,1,0.493513639944,1,609
2019_Oct_24,211,001,4,recog,7,DAPPER,LF,target,right,yellow,pleasantness,liberal,no,z,1,0.626571090037,3,612
2019_Oct_24,211,001,4,recog,8,BLEACH,LF,lure,-,-,-,conservative,no,m,1,1.25323933067,3,615
2019_Oct_24,211,001,4,recog,9,IMPORTANT,HF,target,left,aqua,imageability,liberal,no,z,1,1.18662005394,3,618
2019_Oct_24,211,001,4,recog,10,CANNOT,HF,lure,-,-,-,liberal,no,m,1,0.866463029251,1,619
2019_Oct_24,211,001,4,recog,11,BUZZARD,LF,lure,-,-,-,liberal,no,m,1,0.933366792241,1,620
2019_Oct_24,211,001,4,recog,12,MUSIC,HF,lure,-,-,-,conservative,no,m,1,0.640350709969,3,623
2019_Oct_24,211,001,4,recog,13,BEECHES,LF,lure,-,-,-,liberal,no,m,1,0.746868818106,1,624
2019_Oct_24,211,001,4,recog,14,SERIOUS,HF,lure,-,-,-,conservative,no,m,1,1.26631213422,3,627
2019_Oct_24,211,001,4,recog,15,AGONIZED,LF,target,right,yellow,pleasantness,liberal,no,z,1,0.679863871857,3,630
2019_Oct_24,211,001,4,recog,16,BLOOD,HF,lure,-,-,-,liberal,no,m,1,0.773407793457,1,631
2019_Oct_24,211,001,4,recog,17,WINDOW,HF,target,right,yellow,pleasantness,conservative,no,z,1,0.919963676677,1,632
2019_Oct_24,211,001,4,recog,18,PRUDENTLY,LF,target,left,aqua,imageability,conservative,no,z,1,0.786738687639,1,633
2019_Oct_24,211,001,4,recog,19,EXCEPT,HF,target,right,yellow,pleasantness,conservative,no,z,1,0.986683403453,1,634
2019_Oct_24,211,001,4,recog,20,PLEASE,HF,target,left,aqua,imageability,liberal,no,z,1,0.600187555633,3,637
2019_Oct_24,211,001,4,recog,21,ENMESHED,LF,target,right,yellow,pleasantness,conservative,no,z,1,0.653460174123,1,638
2019_Oct_24,211,001,4,recog,22,NUCLEAR,HF,target,right,yellow,pleasantness,conservative,no,z,1,0.626821481939,1,639
2019_Oct_24,211,001,4,recog,23,HYDRAULIC,LF,lure,-,-,-,liberal,no,m,1,0.973330512911,1,640
2019_Oct_24,211,001,4,recog,24,PIGLETS,LF,target,left,aqua,imageability,liberal,no,z,1,0.826699842066,3,643
2019_Oct_24,211,001,4,recog,25,TROUBLE,HF,lure,-,-,-,conservative,no,z,0,1.98628087006,-3,640
2019_Oct_24,211,001,4,recog,26,OOZED,LF,target,left,aqua,imageability,liberal,no,z,1,0.693440392063,3,643
2019_Oct_24,211,001,4,recog,27,DOUBT,HF,target,left,aqua,imageability,conservative,no,z,1,0.786489762161,1,644
2019_Oct_24,211,001,4,recog,28,RETURN,HF,lure,-,-,-,conservative,no,z,0,1.03998718345,-3,641
2019_Oct_24,211,001,4,recog,29,ROBBERIES,LF,lure,-,-,-,conservative,no,m,1,1.06665373769,3,644
2019_Oct_24,211,001,4,recog,30,VULTURE,LF,lure,-,-,-,liberal,no,m,1,0.999970671519,1,645
2019_Oct_24,211,001,4,recog,31,SEVEN,HF,target,right,yellow,pleasantness,liberal,no,z,1,0.826715606124,3,648
2019_Oct_24,211,001,4,recog,32,EASILY,HF,lure,-,-,-,liberal,no,m,1,1.82636733042,1,649
2019_Oct_24,211,001,4,recog,33,ABOVE,HF,lure,-,-,-,liberal,no,m,1,2.21262195149,1,650
2019_Oct_24,211,001,4,recog,34,YOUNG,HF,lure,-,-,-,conservative,no,m,1,0.839825436885,3,653
2019_Oct_24,211,001,4,recog,35,DYNAMISM,LF,target,right,yellow,pleasantness,conservative,no,z,1,1.07970381168,1,654
2019_Oct_24,211,001,4,recog,36,SIESTA,LF,lure,-,-,-,conservative,no,m,1,0.693437825821,3,657
2019_Oct_24,211,001,4,recog,37,SORRY,HF,target,right,yellow,pleasantness,liberal,yes,m,0,1.10665741842,-3,654
2019_Oct_24,211,001,4,recog,38,WANTED,HF,target,left,aqua,imageability,liberal,no,z,1,1.78634165333,3,657
2019_Oct_24,211,001,4,recog,39,UNPACK,LF,lure,-,-,-,conservative,yes,z,0,1.38650867903,-3,654
2019_Oct_24,211,001,4,recog,40,TINGLING,LF,lure,-,-,-,conservative,no,m,1,0.920021967031,3,657
2019_Oct_24,211,001,4,recog,41,POLICE,HF,target,left,aqua,imageability,conservative,no,z,1,0.853404523332,1,658
2019_Oct_24,211,001,4,recog,42,ANYONE,HF,lure,-,-,-,liberal,no,m,1,0.880023418792,1,659
2019_Oct_24,211,001,4,recog,43,TITAN,LF,lure,-,-,-,liberal,no,m,1,0.946683388789,1,660
2019_Oct_24,211,001,4,recog,44,BOOKS,HF,target,left,aqua,imageability,conservative,no,m,0,0.719932441845,-1,659
2019_Oct_24,211,001,4,recog,45,AROUND,HF,lure,-,-,-,liberal,no,z,0,1.17328256085,-1,658
2019_Oct_24,211,001,4,recog,46,LEARN,HF,lure,-,-,-,liberal,no,m,1,1.82629950831,1,659
2019_Oct_24,211,001,4,recog,47,WAITING,HF,lure,-,-,-,conservative,no,m,1,1.34628173525,3,662
2019_Oct_24,211,001,4,recog,48,PAUNCH,LF,lure,-,-,-,liberal,no,m,1,1.09327776564,1,663
2019_Oct_24,211,001,4,recog,49,SEEMED,HF,target,right,yellow,pleasantness,liberal,yes,z,1,0.893138382036,3,666
2019_Oct_24,211,001,4,recog,50,BEREAVED,LF,lure,-,-,-,conservative,no,m,1,3.0125082303,3,669
2019_Oct_24,211,001,4,recog,51,EIGHT,HF,target,left,aqua,imageability,liberal,no,z,1,1.18657166194,3,672
2019_Oct_24,211,001,4,recog,52,SHORT,HF,lure,-,-,-,conservative,no,z,0,2.97252874558,-3,669
2019_Oct_24,211,001,4,recog,53,AVOCADO,LF,target,left,aqua,imageability,conservative,no,z,1,1.01330633158,1,670
2019_Oct_24,211,001,4,recog,54,PURCHASER,LF,lure,-,-,-,conservative,no,m,1,0.746785598543,3,673
2019_Oct_24,211,001,4,recog,55,INVOLVED,HF,target,right,yellow,pleasantness,conservative,no,z,1,2.69265438879,1,674
2019_Oct_24,211,001,4,recog,56,OFTEN,HF,lure,-,-,-,liberal,no,m,1,1.61324862779,1,675
2019_Oct_24,211,001,4,recog,57,POACHED,LF,lure,-,-,-,liberal,no,m,1,1.90626874273,1,676
2019_Oct_24,211,001,4,recog,58,BELIEVE,HF,target,right,yellow,pleasantness,liberal,no,z,1,0.880025251821,3,679
2019_Oct_24,211,001,4,recog,59,DORMS,LF,target,left,aqua,imageability,liberal,no,z,1,0.626815982849,3,682
2019_Oct_24,211,001,4,recog,60,THEORY,HF,lure,-,-,-,conservative,no,m,1,2.09288036473,3,685
2019_Oct_24,211,001,4,recog,61,BAUXITE,LF,lure,-,-,-,conservative,no,m,1,1.61289851906,3,688
2019_Oct_24,211,001,4,recog,62,ACTION,HF,target,right,yellow,pleasantness,liberal,no,z,1,0.760073599821,3,691
2019_Oct_24,211,001,4,recog,63,OUGHT,HF,lure,-,-,-,liberal,no,m,1,1.42647716558,1,692
2019_Oct_24,211,001,4,recog,64,WITHIN,HF,target,left,aqua,imageability,liberal,no,z,1,1.05329314843,3,695
2019_Oct_24,211,001,4,recog,65,PAINTWORK,LF,target,right,yellow,pleasantness,conservative,no,z,1,1.81299794261,1,696
2019_Oct_24,211,001,4,recog,66,ANIMAL,HF,lure,-,-,-,liberal,no,m,1,1.19989815685,1,697
2019_Oct_24,211,001,4,recog,67,COHESIVE,LF,lure,-,-,-,conservative,no,z,0,1.33326648884,-3,694
2019_Oct_24,211,001,4,recog,68,DIZZINESS,LF,target,left,aqua,imageability,conservative,no,z,1,1.03997838491,1,695
2019_Oct_24,211,001,4,recog,69,SPOKE,HF,target,right,yellow,pleasantness,liberal,no,z,1,1.77310607671,3,698
2019_Oct_24,211,001,4,recog,70,HOSPITAL,HF,lure,-,-,-,conservative,no,m,1,1.14661454018,3,701
2019_Oct_24,211,001,4,recog,71,BULBOUS,LF,target,left,aqua,imageability,conservative,no,z,1,1.08001725981,1,702
2019_Oct_24,211,001,4,recog,72,VEHEMENCE,LF,lure,-,-,-,liberal,no,m,1,0.973083787069,1,703
2019_Oct_24,211,001,4,recog,73,HYENA,LF,target,left,aqua,imageability,conservative,no,z,1,0.679919229364,1,704
2019_Oct_24,211,001,4,recog,74,FLECKED,LF,lure,-,-,-,liberal,no,m,1,0.773438954968,1,705
2019_Oct_24,211,001,4,recog,75,EMULATION,LF,lure,-,-,-,liberal,no,z,0,0.626762458372,-1,704
2019_Oct_24,211,001,4,recog,76,TARIFF,LF,lure,-,-,-,conservative,no,m,1,1.71970038024,3,707
2019_Oct_24,211,001,4,recog,77,WEBBED,LF,target,left,aqua,imageability,liberal,no,z,1,0.786506626036,3,710
2019_Oct_24,211,001,4,recog,78,PUMPKIN,LF,lure,-,-,-,liberal,no,m,1,0.800090111756,1,711
2019_Oct_24,211,001,4,recog,79,CAUGHT,HF,target,right,yellow,pleasantness,conservative,no,z,1,1.51976666261,1,712
2019_Oct_24,211,001,4,recog,80,CHIEF,HF,lure,-,-,-,conservative,no,m,1,1.30628538664,3,715
2019_Oct_24,211,001,4,recog,81,WICKEDLY,LF,lure,-,-,-,conservative,no,m,1,0.733449571877,3,718
2019_Oct_24,211,001,4,recog,82,TREES,HF,lure,-,-,-,conservative,no,m,1,1.77302175733,3,721
2019_Oct_24,211,001,4,recog,83,SODDING,LF,target,left,aqua,imageability,conservative,no,z,1,0.693421695156,1,722
2019_Oct_24,211,001,4,recog,84,MINISTER,HF,lure,-,-,-,conservative,no,m,1,0.786512125127,3,725
2019_Oct_24,211,001,4,recog,85,DISARMED,LF,target,left,aqua,imageability,liberal,no,m,0,1.21329980599,-3,722
2019_Oct_24,211,001,4,recog,86,JUBILANT,LF,target,right,yellow,pleasantness,conservative,no,z,1,0.666801333273,1,723
2019_Oct_24,211,001,4,recog,87,MITIGATE,LF,target,right,yellow,pleasantness,liberal,no,z,1,0.893406371026,3,726
2019_Oct_24,211,001,4,recog,88,BEYOND,HF,target,left,aqua,imageability,conservative,no,z,1,1.30652478037,1,727
2019_Oct_24,211,001,4,recog,89,MIXER,LF,target,right,yellow,pleasantness,liberal,no,z,1,0.586583173372,3,730
2019_Oct_24,211,001,4,recog,90,UNDER,HF,lure,-,-,-,liberal,no,m,1,1.18672050398,1,731
2019_Oct_24,211,001,4,recog,91,DEXTERITY,LF,target,left,aqua,imageability,liberal,no,z,1,0.746805028661,3,734
2019_Oct_24,211,001,4,recog,92,CYNIC,LF,target,right,yellow,pleasantness,liberal,no,z,1,0.613501585938,3,737
2019_Oct_24,211,001,4,recog,93,VALUE,HF,lure,-,-,-,liberal,yes,z,0,1.86628632516,-1,736
2019_Oct_24,211,001,4,recog,94,TYRANTS,LF,lure,-,-,-,conservative,no,m,1,2.46610434193,3,739
2019_Oct_24,211,001,4,recog,95,OBESE,LF,target,right,yellow,pleasantness,conservative,no,z,1,1.14658411188,1,740
