date,subj,session,cycle,task,trial,item,wf,type,source,colour,encoding,bias,null,response,corr,rt,points,total
2019_Oct_29,212,001,0,source,0,LOYALIST,LF,target,right,aqua,pleasantness,liberal,no,9,1,3.18586589357,-,-
2019_Oct_29,212,001,0,source,1,ANIMAL,HF,target,left,yellow,imageability,liberal,no,1,1,2.74604155714,-,-
2019_Oct_29,212,001,0,source,2,GIMMICKS,LF,target,right,aqua,pleasantness,liberal,no,1,0,1.29297902933,-,-
2019_Oct_29,212,001,0,source,3,LULLED,LF,target,right,aqua,pleasantness,conservative,no,8,1,2.05294140075,-,-
2019_Oct_29,212,001,0,source,4,LANGUAGE,HF,target,right,aqua,pleasantness,conservative,no,9,1,1.72021333615,-,-
2019_Oct_29,212,001,0,source,5,ABBOT,LF,target,right,aqua,pleasantness,liberal,no,9,1,1.3731967501,-,-
2019_Oct_29,212,001,0,source,6,KNOWLEDGE,HF,target,right,aqua,pleasantness,liberal,no,9,1,1.82650490484,-,-
2019_Oct_29,212,001,0,source,7,LIKELY,HF,target,right,aqua,pleasantness,conservative,no,9,1,0.973333714605,-,-
2019_Oct_29,212,001,0,source,8,SYRINGE,LF,target,right,aqua,pleasantness,liberal,no,9,1,0.840024650678,-,-
2019_Oct_29,212,001,0,source,9,TRIED,HF,target,left,yellow,imageability,liberal,no,1,1,2.25264818819,-,-
2019_Oct_29,212,001,0,source,10,ECLECTIC,LF,target,left,yellow,imageability,liberal,no,1,1,1.14637531647,-,-
2019_Oct_29,212,001,0,source,11,FILAMENTS,LF,target,right,aqua,pleasantness,conservative,no,1,0,1.34652899827,-,-
2019_Oct_29,212,001,0,source,12,WEEKS,HF,target,right,aqua,pleasantness,liberal,no,9,1,0.973044094799,-,-
2019_Oct_29,212,001,0,source,13,ORPHANAGE,LF,target,right,aqua,pleasantness,conservative,no,9,1,0.906491662982,-,-
2019_Oct_29,212,001,0,source,14,CHURCH,HF,target,left,yellow,imageability,conservative,no,1,1,1.10669776963,-,-
2019_Oct_29,212,001,0,source,15,CHOICE,HF,target,left,yellow,imageability,conservative,no,1,1,1.21296184277,-,-
2019_Oct_29,212,001,0,source,16,KILOWATT,LF,target,left,yellow,imageability,conservative,yes,2,1,1.90633402182,-,-
2019_Oct_29,212,001,0,source,17,REACHED,HF,target,right,aqua,pleasantness,conservative,no,9,1,2.57244417853,-,-
2019_Oct_29,212,001,0,source,18,REOPEN,LF,target,right,aqua,pleasantness,liberal,no,9,1,1.10656359134,-,-
2019_Oct_29,212,001,0,source,19,IGNOBLE,LF,target,right,aqua,pleasantness,conservative,no,1,0,1.29319349463,-,-
2019_Oct_29,212,001,0,source,20,FIGURE,HF,target,left,yellow,imageability,conservative,no,1,1,0.946686492792,-,-
2019_Oct_29,212,001,0,source,21,GETTING,HF,target,left,yellow,imageability,liberal,no,2,1,1.07991746935,-,-
2019_Oct_29,212,001,0,source,22,LEPROSY,LF,target,left,yellow,imageability,liberal,no,1,1,1.21338784051,-,-
2019_Oct_29,212,001,0,source,23,PLACE,HF,target,right,aqua,pleasantness,liberal,no,8,1,1.38651192904,-,-
2019_Oct_29,212,001,0,source,24,RODENTS,LF,target,left,yellow,imageability,conservative,no,1,1,1.01335037324,-,-
2019_Oct_29,212,001,0,source,25,GENERAL,HF,target,right,aqua,pleasantness,liberal,yes,9,1,1.85286653953,-,-
2019_Oct_29,212,001,0,source,26,RECENT,HF,target,right,aqua,pleasantness,conservative,no,2,0,1.31987737717,-,-
2019_Oct_29,212,001,0,source,27,NEMESIS,LF,target,right,aqua,pleasantness,conservative,no,9,1,1.17327439754,-,-
2019_Oct_29,212,001,0,source,28,ENOUGH,HF,target,right,aqua,pleasantness,conservative,no,2,0,1.46645176144,-,-
2019_Oct_29,212,001,0,source,29,MEETING,HF,target,left,yellow,imageability,liberal,yes,7,0,1.63990872943,-,-
2019_Oct_29,212,001,0,source,30,FLECKED,LF,target,left,yellow,imageability,liberal,no,8,0,2.18596047826,-,-
2019_Oct_29,212,001,0,source,31,SCOFFED,LF,target,left,yellow,imageability,liberal,no,8,0,1.63968949824,-,-
2019_Oct_29,212,001,0,source,32,PASSED,HF,target,left,yellow,imageability,conservative,no,8,0,0.813146832842,-,-
2019_Oct_29,212,001,0,source,33,TARIFF,LF,target,left,yellow,imageability,conservative,no,2,1,1.20000153975,-,-
2019_Oct_29,212,001,0,source,34,NIGHT,HF,target,left,yellow,imageability,liberal,no,1,1,1.09360585457,-,-
2019_Oct_29,212,001,0,source,35,RUNNING,HF,target,left,yellow,imageability,conservative,no,1,1,0.800029255267,-,-
2019_Oct_29,212,001,0,source,36,VIOLATING,LF,target,right,aqua,pleasantness,liberal,no,9,1,1.26656240354,-,-
2019_Oct_29,212,001,0,source,37,BOOKS,HF,target,right,aqua,pleasantness,liberal,no,9,1,1.08006227926,-,-
2019_Oct_29,212,001,0,source,38,FOAMING,LF,target,right,aqua,pleasantness,conservative,no,9,1,1.07992370168,-,-
2019_Oct_29,212,001,0,source,39,KANGAROO,LF,target,left,yellow,imageability,conservative,no,1,1,0.960043831575,-,-
2019_Oct_29,212,001,0,source,40,MOVED,HF,target,right,aqua,pleasantness,liberal,no,9,1,1.00010668274,-,-
2019_Oct_29,212,001,0,source,41,BLUECOATS,LF,target,left,yellow,imageability,liberal,yes,1,1,1.23984955901,-,-
2019_Oct_29,212,001,0,source,42,PUPPETS,LF,target,left,yellow,imageability,conservative,no,9,0,1.38645730454,-,-
2019_Oct_29,212,001,0,source,43,POLICE,HF,target,right,aqua,pleasantness,conservative,no,9,1,0.986474755051,-,-
2019_Oct_29,212,001,0,source,44,AMONG,HF,target,left,yellow,imageability,conservative,no,9,0,0.933389644222,-,-
2019_Oct_29,212,001,0,source,45,CUTLER,LF,target,left,yellow,imageability,conservative,no,1,1,0.893112327759,-,-
2019_Oct_29,212,001,0,source,46,QUOTAS,LF,target,left,yellow,imageability,liberal,no,1,1,0.773375067914,-,-
2019_Oct_29,212,001,0,source,47,SHORT,HF,target,left,yellow,imageability,liberal,no,1,1,0.946662663314,-,-
2019_Oct_29,212,001,0,recog,0,REACHED,HF,target,right,aqua,pleasantness,conservative,no,m,0,5.83813955569,-1,-1
2019_Oct_29,212,001,0,recog,1,GENERAL,HF,target,right,aqua,pleasantness,liberal,no,z,1,1.67977177959,3,2
2019_Oct_29,212,001,0,recog,2,AMONG,HF,target,left,yellow,imageability,conservative,no,m,0,1.47976034144,-1,1
2019_Oct_29,212,001,0,recog,3,BOLDNESS,LF,lure,-,-,-,liberal,no,m,1,2.35941634644,1,2
2019_Oct_29,212,001,0,recog,4,CHURCH,HF,target,left,yellow,imageability,conservative,no,z,1,1.71974811142,1,3
2019_Oct_29,212,001,0,recog,5,BLUECOATS,LF,target,left,yellow,imageability,liberal,no,z,1,0.986682988026,3,6
2019_Oct_29,212,001,0,recog,6,SOVIET,HF,lure,-,-,-,conservative,no,m,1,2.14609156239,3,9
2019_Oct_29,212,001,0,recog,7,TALKING,HF,lure,-,-,-,liberal,no,z,0,1.27988564784,-1,8
2019_Oct_29,212,001,0,recog,8,IGNOBLE,LF,target,right,aqua,pleasantness,conservative,no,z,1,1.70653448272,1,9
2019_Oct_29,212,001,0,recog,9,BORAX,LF,lure,-,-,-,liberal,no,m,1,1.27986511782,1,10
2019_Oct_29,212,001,0,recog,10,SUCCESS,HF,lure,-,-,-,conservative,no,z,0,1.85325954261,-3,7
2019_Oct_29,212,001,0,recog,11,RAPACIOUS,LF,lure,-,-,-,conservative,no,m,1,2.05287724446,3,10
2019_Oct_29,212,001,0,recog,12,AUBURN,LF,lure,-,-,-,liberal,no,m,1,1.26632190912,1,11
2019_Oct_29,212,001,0,recog,13,PUPPETS,LF,target,left,yellow,imageability,conservative,no,z,1,1.1598895632,1,12
2019_Oct_29,212,001,0,recog,14,PLACE,HF,target,right,aqua,pleasantness,liberal,no,z,1,1.43981920392,3,15
2019_Oct_29,212,001,0,recog,15,TRIED,HF,target,left,yellow,imageability,liberal,no,z,1,0.813439752115,3,18
2019_Oct_29,212,001,0,recog,16,FIGURE,HF,target,left,yellow,imageability,conservative,no,z,1,1.23992178066,1,19
2019_Oct_29,212,001,0,recog,17,CUTLER,LF,target,left,yellow,imageability,conservative,no,z,1,0.786760268855,1,20
2019_Oct_29,212,001,0,recog,18,FORCE,HF,lure,-,-,-,liberal,no,m,1,1.05334356901,1,21
2019_Oct_29,212,001,0,recog,19,WITHIN,HF,lure,-,-,-,conservative,no,m,1,0.840092839645,3,24
2019_Oct_29,212,001,0,recog,20,MOVED,HF,target,right,aqua,pleasantness,liberal,no,z,1,1.05327501344,3,27
2019_Oct_29,212,001,0,recog,21,THUDDING,LF,lure,-,-,-,conservative,no,m,1,1.34655172793,3,30
2019_Oct_29,212,001,0,recog,22,KINDEST,LF,lure,-,-,-,conservative,no,m,1,1.05328711148,3,33
2019_Oct_29,212,001,0,recog,23,PLEASE,HF,lure,-,-,-,liberal,no,z,0,1.13331529625,-1,32
2019_Oct_29,212,001,0,recog,24,ABBOT,LF,target,right,aqua,pleasantness,liberal,no,z,1,1.06640835513,3,35
2019_Oct_29,212,001,0,recog,25,ORPHANAGE,LF,target,right,aqua,pleasantness,conservative,no,z,1,0.960031366925,1,36
2019_Oct_29,212,001,0,recog,26,NEMESIS,LF,target,right,aqua,pleasantness,conservative,no,z,1,0.813365330823,1,37
2019_Oct_29,212,001,0,recog,27,KILOWATT,LF,target,left,yellow,imageability,conservative,no,z,1,0.693467863566,1,38
2019_Oct_29,212,001,0,recog,28,TRADE,HF,lure,-,-,-,liberal,no,m,1,0.986688120529,1,39
2019_Oct_29,212,001,0,recog,29,JARRED,LF,lure,-,-,-,liberal,no,m,1,0.920063100457,1,40
2019_Oct_29,212,001,0,recog,30,SCOFFED,LF,target,left,yellow,imageability,liberal,yes,z,1,0.826708005312,3,43
2019_Oct_29,212,001,0,recog,31,PASSED,HF,target,left,yellow,imageability,conservative,no,z,1,1.07992920079,1,44
2019_Oct_29,212,001,0,recog,32,REOPEN,LF,target,right,aqua,pleasantness,liberal,no,z,1,0.680106125496,3,47
2019_Oct_29,212,001,0,recog,33,GETTING,HF,target,left,yellow,imageability,liberal,no,z,1,0.706829601637,3,50
2019_Oct_29,212,001,0,recog,34,LIKELY,HF,target,right,aqua,pleasantness,conservative,no,z,1,0.60016812613,1,51
2019_Oct_29,212,001,0,recog,35,FLECKED,LF,target,left,yellow,imageability,liberal,no,z,1,0.720159444868,3,54
2019_Oct_29,212,001,0,recog,36,SYRINGE,LF,target,right,aqua,pleasantness,liberal,no,z,1,0.613471207025,3,57
2019_Oct_29,212,001,0,recog,37,ANIMAL,HF,target,left,yellow,imageability,liberal,no,z,1,0.760055489688,3,60
2019_Oct_29,212,001,0,recog,38,FOAMING,LF,target,right,aqua,pleasantness,conservative,no,z,1,0.62695135927,1,61
2019_Oct_29,212,001,0,recog,39,UNDER,HF,lure,-,-,-,liberal,no,m,1,1.02660946126,1,62
2019_Oct_29,212,001,0,recog,40,QUOTAS,LF,target,left,yellow,imageability,liberal,no,z,1,0.666559617321,3,65
2019_Oct_29,212,001,0,recog,41,MAILBOX,LF,lure,-,-,-,conservative,no,m,1,0.733419266096,3,68
2019_Oct_29,212,001,0,recog,42,LONGER,HF,lure,-,-,-,liberal,no,m,1,1.12028057194,1,69
2019_Oct_29,212,001,0,recog,43,INACTION,LF,lure,-,-,-,conservative,no,m,1,0.826842550209,3,72
2019_Oct_29,212,001,0,recog,44,RATHER,HF,lure,-,-,-,conservative,no,m,1,0.786762835107,3,75
2019_Oct_29,212,001,0,recog,45,MOGUL,LF,lure,-,-,-,liberal,no,m,1,0.906729591152,1,76
2019_Oct_29,212,001,0,recog,46,LOLLED,LF,lure,-,-,-,liberal,no,m,1,0.826738800329,1,77
2019_Oct_29,212,001,0,recog,47,WEEKS,HF,target,right,aqua,pleasantness,liberal,no,z,1,0.680140586586,3,80
2019_Oct_29,212,001,0,recog,48,BROUGHT,HF,lure,-,-,-,conservative,no,z,0,1.12006830628,-3,77
2019_Oct_29,212,001,0,recog,49,GIMMICKS,LF,target,right,aqua,pleasantness,liberal,yes,z,1,0.933098557987,3,80
2019_Oct_29,212,001,0,recog,50,CODING,LF,lure,-,-,-,conservative,no,m,1,1.03994553681,3,83
2019_Oct_29,212,001,0,recog,51,TROUBLE,HF,lure,-,-,-,conservative,no,m,1,2.2928129562,3,86
2019_Oct_29,212,001,0,recog,52,HAVING,HF,lure,-,-,-,conservative,no,m,1,0.786739372236,3,89
2019_Oct_29,212,001,0,recog,53,RECENT,HF,target,right,aqua,pleasantness,conservative,no,z,1,0.800192395537,1,90
2019_Oct_29,212,001,0,recog,54,SQUADRONS,LF,lure,-,-,-,liberal,no,m,1,0.760107181325,1,91
2019_Oct_29,212,001,0,recog,55,ENOUGH,HF,target,right,aqua,pleasantness,conservative,no,z,1,0.760097649533,1,92
2019_Oct_29,212,001,0,recog,56,VOLITION,LF,lure,-,-,-,conservative,no,m,1,0.786753303315,3,95
2019_Oct_29,212,001,0,recog,57,DEVELOPED,HF,lure,-,-,-,conservative,no,m,1,0.786739005629,3,98
2019_Oct_29,212,001,0,recog,58,SUPPORT,HF,lure,-,-,-,conservative,no,z,0,1.23986825598,-3,95
2019_Oct_29,212,001,0,recog,59,HAGGLING,LF,lure,-,-,-,liberal,no,m,1,0.959827533238,1,96
2019_Oct_29,212,001,0,recog,60,BALDING,LF,lure,-,-,-,conservative,yes,z,0,0.693445133911,-3,93
2019_Oct_29,212,001,0,recog,61,AROUND,HF,lure,-,-,-,liberal,no,m,1,1.33317972485,1,94
2019_Oct_29,212,001,0,recog,62,RODENTS,LF,target,left,yellow,imageability,conservative,no,z,1,0.693402607458,1,95
2019_Oct_29,212,001,0,recog,63,GAUCHE,LF,lure,-,-,-,liberal,no,m,1,0.82668050976,1,96
2019_Oct_29,212,001,0,recog,64,KNOWLEDGE,HF,target,right,aqua,pleasantness,liberal,no,z,1,0.639893698533,3,99
2019_Oct_29,212,001,0,recog,65,FILAMENTS,LF,target,right,aqua,pleasantness,conservative,no,z,1,1.35988377081,1,100
2019_Oct_29,212,001,0,recog,66,LIGHT,HF,lure,-,-,-,liberal,no,m,1,0.746732611997,1,101
2019_Oct_29,212,001,0,recog,67,POLICE,HF,target,right,aqua,pleasantness,conservative,no,z,1,0.613449210584,1,102
2019_Oct_29,212,001,0,recog,68,VIOLATING,LF,target,right,aqua,pleasantness,liberal,no,z,1,0.666812576392,3,105
2019_Oct_29,212,001,0,recog,69,ECLECTIC,LF,target,left,yellow,imageability,liberal,no,z,1,0.853406185546,3,108
2019_Oct_29,212,001,0,recog,70,LOYALIST,LF,target,right,aqua,pleasantness,liberal,no,z,1,0.66699404703,3,111
2019_Oct_29,212,001,0,recog,71,NIGHT,HF,target,left,yellow,imageability,liberal,no,z,1,0.586871644168,3,114
2019_Oct_29,212,001,0,recog,72,KIPPERS,LF,lure,-,-,-,liberal,no,m,1,0.733400569121,1,115
2019_Oct_29,212,001,0,recog,73,LANGUAGE,HF,target,right,aqua,pleasantness,conservative,no,z,1,0.58663481582,1,116
2019_Oct_29,212,001,0,recog,74,MEETING,HF,target,left,yellow,imageability,liberal,no,z,1,0.853502603279,3,119
2019_Oct_29,212,001,0,recog,75,PUBLIC,HF,lure,-,-,-,conservative,no,z,0,0.840127300736,-3,116
2019_Oct_29,212,001,0,recog,76,RUNNING,HF,target,left,yellow,imageability,conservative,no,z,1,1.0267165106,1,117
2019_Oct_29,212,001,0,recog,77,CUFFED,LF,lure,-,-,-,liberal,no,z,0,0.733455193616,-1,116
2019_Oct_29,212,001,0,recog,78,LULLED,LF,target,right,aqua,pleasantness,conservative,no,z,1,1.06662685311,1,117
2019_Oct_29,212,001,0,recog,79,BEQUEST,LF,lure,-,-,-,liberal,no,m,1,0.693380611017,1,118
2019_Oct_29,212,001,0,recog,80,ABOVE,HF,lure,-,-,-,conservative,no,m,1,1.23988182045,3,121
2019_Oct_29,212,001,0,recog,81,SYSTEM,HF,lure,-,-,-,liberal,no,m,1,0.733155308804,1,122
2019_Oct_29,212,001,0,recog,82,CHOICE,HF,target,left,yellow,imageability,conservative,no,z,1,0.960040898716,1,123
2019_Oct_29,212,001,0,recog,83,LEPROSY,LF,target,left,yellow,imageability,liberal,no,z,1,0.880001715722,3,126
2019_Oct_29,212,001,0,recog,84,REQUIRED,HF,lure,-,-,-,liberal,no,z,0,0.706853797722,-1,125
2019_Oct_29,212,001,0,recog,85,SHORT,HF,target,left,yellow,imageability,liberal,no,z,1,0.719826565395,3,128
2019_Oct_29,212,001,0,recog,86,MIGHTILY,LF,lure,-,-,-,conservative,no,m,1,0.733406434839,3,131
2019_Oct_29,212,001,0,recog,87,REPORT,HF,lure,-,-,-,liberal,no,m,1,0.826811388584,1,132
2019_Oct_29,212,001,0,recog,88,BENIGNLY,LF,lure,-,-,-,conservative,no,m,1,0.666839705336,3,135
2019_Oct_29,212,001,0,recog,89,BOOKS,HF,target,right,aqua,pleasantness,liberal,no,z,1,1.86630856461,3,138
2019_Oct_29,212,001,0,recog,90,BLOOD,HF,lure,-,-,-,conservative,yes,z,0,0.733176205423,-3,135
2019_Oct_29,212,001,0,recog,91,TARIFF,LF,target,left,yellow,imageability,conservative,no,m,0,0.706781942682,-1,134
2019_Oct_29,212,001,0,recog,92,KANGAROO,LF,target,left,yellow,imageability,conservative,no,z,1,0.600099203949,1,135
2019_Oct_29,212,001,0,recog,93,HEMMED,LF,lure,-,-,-,conservative,no,m,1,0.906740589372,3,138
2019_Oct_29,212,001,0,recog,94,FUTURE,HF,lure,-,-,-,liberal,no,m,1,0.826758963733,1,139
2019_Oct_29,212,001,0,recog,95,BOILERS,LF,lure,-,-,-,conservative,no,m,1,0.680145719089,3,142
2019_Oct_29,212,001,1,source,0,ORDER,HF,target,left,yellow,imageability,liberal,no,9,0,1.25321569637,-,-
2019_Oct_29,212,001,1,source,1,REBATE,LF,target,right,aqua,pleasantness,liberal,no,9,1,1.07994239865,-,-
2019_Oct_29,212,001,1,source,2,MARKET,HF,target,left,yellow,imageability,conservative,no,1,1,1.05328857791,-,-
2019_Oct_29,212,001,1,source,3,WATCH,HF,target,left,yellow,imageability,conservative,no,1,1,0.786713343115,-,-
2019_Oct_29,212,001,1,source,4,TOFFEE,LF,target,right,aqua,pleasantness,conservative,no,9,1,0.98668518767,-,-
2019_Oct_29,212,001,1,source,5,ENERGY,HF,target,right,aqua,pleasantness,liberal,no,9,1,0.799804158354,-,-
2019_Oct_29,212,001,1,source,6,HIGHER,HF,target,left,yellow,imageability,conservative,no,9,0,0.880128561865,-,-
2019_Oct_29,212,001,1,source,7,LICENSING,LF,target,left,yellow,imageability,conservative,no,1,1,0.893502764586,-,-
2019_Oct_29,212,001,1,source,8,QUALITY,HF,target,left,yellow,imageability,liberal,no,1,1,0.706727318186,-,-
2019_Oct_29,212,001,1,source,9,CADDIE,LF,target,left,yellow,imageability,liberal,no,1,1,0.866439443431,-,-
2019_Oct_29,212,001,1,source,10,RASCAL,LF,target,right,aqua,pleasantness,liberal,no,9,1,1.01330491393,-,-
2019_Oct_29,212,001,1,source,11,PEACEABLY,LF,target,left,yellow,imageability,liberal,no,1,1,0.999912380844,-,-
2019_Oct_29,212,001,1,source,12,FEIGNED,LF,target,left,yellow,imageability,conservative,no,1,1,1.01334744038,-,-
2019_Oct_29,212,001,1,source,13,YOUNG,HF,target,right,aqua,pleasantness,liberal,no,8,1,2.09317765719,-,-
2019_Oct_29,212,001,1,source,14,SPOKE,HF,target,left,yellow,imageability,conservative,no,2,1,1.15990239446,-,-
2019_Oct_29,212,001,1,source,15,STEADFAST,LF,target,right,aqua,pleasantness,conservative,no,8,1,1.18659287594,-,-
2019_Oct_29,212,001,1,source,16,ALTHOUGH,HF,target,right,aqua,pleasantness,liberal,no,8,1,0.813454416409,-,-
2019_Oct_29,212,001,1,source,17,PILGRIM,LF,target,left,yellow,imageability,liberal,yes,2,1,0.946784376954,-,-
2019_Oct_29,212,001,1,source,18,APART,HF,target,right,aqua,pleasantness,conservative,no,1,0,0.866497734,-,-
2019_Oct_29,212,001,1,source,19,GOVERNS,LF,target,right,aqua,pleasantness,conservative,no,9,1,0.773634625917,-,-
2019_Oct_29,212,001,1,source,20,KIDNAP,LF,target,left,yellow,imageability,conservative,no,9,0,0.946781077488,-,-
2019_Oct_29,212,001,1,source,21,TICKLE,LF,target,left,yellow,imageability,liberal,yes,2,1,0.73342696485,-,-
2019_Oct_29,212,001,1,source,22,PAUNCH,LF,target,left,yellow,imageability,liberal,no,1,1,0.906666901295,-,-
2019_Oct_29,212,001,1,source,23,ITSELF,HF,target,right,aqua,pleasantness,conservative,no,9,1,0.906791181187,-,-
2019_Oct_29,212,001,1,source,24,ACCORDING,HF,target,left,yellow,imageability,conservative,no,2,1,0.920035971513,-,-
2019_Oct_29,212,001,1,source,25,HILLSIDES,LF,target,right,aqua,pleasantness,liberal,yes,2,0,0.680094760668,-,-
2019_Oct_29,212,001,1,source,26,FAMILY,HF,target,right,aqua,pleasantness,conservative,no,9,1,0.746746176469,-,-
2019_Oct_29,212,001,1,source,27,UNZIPPED,LF,target,left,yellow,imageability,liberal,no,9,0,0.880023345556,-,-
2019_Oct_29,212,001,1,source,28,IMPORTANT,HF,target,right,aqua,pleasantness,liberal,no,9,1,0.653430308309,-,-
2019_Oct_29,212,001,1,source,29,WAKED,LF,target,right,aqua,pleasantness,liberal,no,9,1,0.933369847425,-,-
2019_Oct_29,212,001,1,source,30,FUMING,LF,target,right,aqua,pleasantness,conservative,no,9,1,0.746738477714,-,-
2019_Oct_29,212,001,1,source,31,BILATERAL,LF,target,right,aqua,pleasantness,conservative,no,1,0,0.920090229401,-,-
2019_Oct_29,212,001,1,source,32,SLEEP,HF,target,right,aqua,pleasantness,conservative,no,9,1,0.680233338246,-,-
2019_Oct_29,212,001,1,source,33,HIMSELF,HF,target,left,yellow,imageability,liberal,no,1,1,0.879827210624,-,-
2019_Oct_29,212,001,1,source,34,VESTIBULE,LF,target,left,yellow,imageability,conservative,no,1,1,0.839906969719,-,-
2019_Oct_29,212,001,1,source,35,RANGE,HF,target,left,yellow,imageability,liberal,yes,1,1,0.64016388815,-,-
2019_Oct_29,212,001,1,source,36,JAMMING,LF,target,left,yellow,imageability,conservative,no,2,1,1.39987623336,-,-
2019_Oct_29,212,001,1,source,37,HOURS,HF,target,right,aqua,pleasantness,liberal,no,9,1,0.893357588076,-,-
2019_Oct_29,212,001,1,source,38,PROBABLY,HF,target,left,yellow,imageability,liberal,no,1,1,0.879773319344,-,-
2019_Oct_29,212,001,1,source,39,RAFTERS,LF,target,right,aqua,pleasantness,liberal,no,9,1,0.812801488719,-,-
2019_Oct_29,212,001,1,source,40,NEITHER,HF,target,left,yellow,imageability,liberal,no,2,1,0.920022773649,-,-
2019_Oct_29,212,001,1,source,41,SKIDDED,LF,target,right,aqua,pleasantness,liberal,no,9,1,1.75979996437,-,-
2019_Oct_29,212,001,1,source,42,OFTEN,HF,target,left,yellow,imageability,conservative,no,2,1,1.01338666737,-,-
2019_Oct_29,212,001,1,source,43,FLICKS,LF,target,left,yellow,imageability,conservative,no,1,1,0.986619931562,-,-
2019_Oct_29,212,001,1,source,44,MACARONI,LF,target,right,aqua,pleasantness,conservative,no,9,1,0.773375801129,-,-
2019_Oct_29,212,001,1,source,45,WAITING,HF,target,right,aqua,pleasantness,conservative,no,2,0,0.853416450552,-,-
2019_Oct_29,212,001,1,source,46,SOMEONE,HF,target,right,aqua,pleasantness,conservative,no,2,0,1.15990606053,-,-
2019_Oct_29,212,001,1,source,47,SPEAK,HF,target,right,aqua,pleasantness,liberal,no,2,0,0.933111022636,-,-
2019_Oct_29,212,001,1,recog,0,EXACTLY,HF,lure,-,-,-,liberal,no,z,0,1.02672054328,-1,141
2019_Oct_29,212,001,1,recog,1,WHITE,HF,lure,-,-,-,conservative,no,m,1,0.773449855813,3,144
2019_Oct_29,212,001,1,recog,2,BAFFLING,LF,lure,-,-,-,conservative,no,m,1,1.02694857305,3,147
2019_Oct_29,212,001,1,recog,3,ITSELF,HF,target,right,aqua,pleasantness,conservative,no,m,0,0.813389160301,-1,146
2019_Oct_29,212,001,1,recog,4,PEACEABLY,LF,target,left,yellow,imageability,liberal,no,z,1,1.83941681569,3,149
2019_Oct_29,212,001,1,recog,5,ORDER,HF,target,left,yellow,imageability,liberal,no,z,1,0.773167201547,3,152
2019_Oct_29,212,001,1,recog,6,RANGE,HF,target,left,yellow,imageability,liberal,no,z,1,0.840093206253,3,155
2019_Oct_29,212,001,1,recog,7,PANACHE,LF,lure,-,-,-,conservative,no,m,1,0.760153373851,3,158
2019_Oct_29,212,001,1,recog,8,WAITING,HF,target,right,aqua,pleasantness,conservative,no,z,1,0.773316044131,1,159
2019_Oct_29,212,001,1,recog,9,JEWELLED,LF,lure,-,-,-,conservative,no,m,1,0.799812590323,3,162
2019_Oct_29,212,001,1,recog,10,SCHOOL,HF,lure,-,-,-,conservative,no,m,1,0.70680430573,3,165
2019_Oct_29,212,001,1,recog,11,FUMING,LF,target,right,aqua,pleasantness,conservative,no,z,1,0.706810904662,1,166
2019_Oct_29,212,001,1,recog,12,CADDIE,LF,target,left,yellow,imageability,liberal,no,z,1,0.893336324849,3,169
2019_Oct_29,212,001,1,recog,13,VESTIBULE,LF,target,left,yellow,imageability,conservative,no,z,1,0.866745560568,1,170
2019_Oct_29,212,001,1,recog,14,SLEEP,HF,target,right,aqua,pleasantness,conservative,no,z,1,2.1595152571,1,171
2019_Oct_29,212,001,1,recog,15,WINDOW,HF,lure,-,-,-,liberal,no,m,1,0.706702022279,1,172
2019_Oct_29,212,001,1,recog,16,PAUNCH,LF,target,left,yellow,imageability,liberal,no,z,1,0.706566010953,3,175
2019_Oct_29,212,001,1,recog,17,HIMSELF,HF,target,left,yellow,imageability,liberal,no,z,1,0.600145763082,3,178
2019_Oct_29,212,001,1,recog,18,THOUSAND,HF,lure,-,-,-,conservative,no,m,1,0.653503996386,3,181
2019_Oct_29,212,001,1,recog,19,COUNCIL,HF,lure,-,-,-,liberal,no,m,1,0.706739049622,1,182
2019_Oct_29,212,001,1,recog,20,YOUNG,HF,target,right,aqua,pleasantness,liberal,no,z,1,0.560250084869,3,185
2019_Oct_29,212,001,1,recog,21,SIESTA,LF,lure,-,-,-,liberal,no,m,1,0.600168492738,1,186
2019_Oct_29,212,001,1,recog,22,OFTEN,HF,target,left,yellow,imageability,conservative,yes,z,1,0.666892496794,1,187
2019_Oct_29,212,001,1,recog,23,JAMMING,LF,target,left,yellow,imageability,conservative,no,z,1,0.680129588366,1,188
2019_Oct_29,212,001,1,recog,24,DICHOTOMY,LF,lure,-,-,-,conservative,no,m,1,0.64025370695,3,191
2019_Oct_29,212,001,1,recog,25,SOCIAL,HF,lure,-,-,-,liberal,no,z,0,0.826464944638,-1,190
2019_Oct_29,212,001,1,recog,26,CRONE,LF,lure,-,-,-,conservative,no,m,1,0.653549455698,3,193
2019_Oct_29,212,001,1,recog,27,MARKET,HF,target,left,yellow,imageability,conservative,no,z,1,0.666766017258,1,194
2019_Oct_29,212,001,1,recog,28,HIGHER,HF,target,left,yellow,imageability,conservative,no,z,1,0.57348461019,1,195
2019_Oct_29,212,001,1,recog,29,STEADFAST,LF,target,right,aqua,pleasantness,conservative,no,z,1,0.56018079608,1,196
2019_Oct_29,212,001,1,recog,30,TOTAL,HF,lure,-,-,-,liberal,no,m,1,0.880026645022,1,197
2019_Oct_29,212,001,1,recog,31,WATCH,HF,target,left,yellow,imageability,conservative,no,z,1,0.733209933299,1,198
2019_Oct_29,212,001,1,recog,32,QUICKLY,HF,lure,-,-,-,liberal,no,z,0,0.547026191162,-1,197
2019_Oct_29,212,001,1,recog,33,APART,HF,target,right,aqua,pleasantness,conservative,no,z,1,0.866727230201,1,198
2019_Oct_29,212,001,1,recog,34,HUNDRED,HF,lure,-,-,-,conservative,no,m,1,0.920029005973,3,201
2019_Oct_29,212,001,1,recog,35,QUESTION,HF,lure,-,-,-,conservative,no,m,1,0.720123517348,3,204
2019_Oct_29,212,001,1,recog,36,ACCORDING,HF,target,left,yellow,imageability,conservative,no,z,1,0.626786019355,1,205
2019_Oct_29,212,001,1,recog,37,SPEAK,HF,target,right,aqua,pleasantness,liberal,no,z,1,0.880051574322,3,208
2019_Oct_29,212,001,1,recog,38,BOTANIST,LF,lure,-,-,-,liberal,no,m,1,0.640094965968,1,209
2019_Oct_29,212,001,1,recog,39,IMPORTANT,HF,target,right,aqua,pleasantness,liberal,no,z,1,0.573496341625,3,212
2019_Oct_29,212,001,1,recog,40,KIDNAP,LF,target,left,yellow,imageability,conservative,no,z,1,0.573462613749,1,213
2019_Oct_29,212,001,1,recog,41,ERUDITE,LF,lure,-,-,-,liberal,no,m,1,0.653671902553,1,214
2019_Oct_29,212,001,1,recog,42,STUDENT,HF,lure,-,-,-,conservative,no,z,0,0.853166424339,-3,211
2019_Oct_29,212,001,1,recog,43,LAMENT,LF,lure,-,-,-,conservative,no,m,1,0.786758435819,3,214
2019_Oct_29,212,001,1,recog,44,SUING,LF,lure,-,-,-,liberal,no,m,1,0.826812855013,1,215
2019_Oct_29,212,001,1,recog,45,SOMEONE,HF,target,right,aqua,pleasantness,conservative,no,z,1,0.613480738817,1,216
2019_Oct_29,212,001,1,recog,46,NEITHER,HF,target,left,yellow,imageability,liberal,no,z,1,0.733499186499,3,219
2019_Oct_29,212,001,1,recog,47,OFFER,HF,lure,-,-,-,liberal,no,z,0,0.600039813558,-1,218
2019_Oct_29,212,001,1,recog,48,FLICKS,LF,target,left,yellow,imageability,conservative,no,z,1,1.01334450753,1,219
2019_Oct_29,212,001,1,recog,49,RASCAL,LF,target,right,aqua,pleasantness,liberal,no,z,1,0.573219186469,3,222
2019_Oct_29,212,001,1,recog,50,TICKLE,LF,target,left,yellow,imageability,liberal,no,z,1,0.693401874244,3,225
2019_Oct_29,212,001,1,recog,51,FEIGNED,LF,target,left,yellow,imageability,conservative,no,z,1,0.613499802399,1,226
2019_Oct_29,212,001,1,recog,52,RAFTERS,LF,target,right,aqua,pleasantness,liberal,no,z,1,0.533580866615,3,229
2019_Oct_29,212,001,1,recog,53,HILLSIDES,LF,target,right,aqua,pleasantness,liberal,no,m,0,0.720083557147,-3,226
2019_Oct_29,212,001,1,recog,54,JELLIES,LF,lure,-,-,-,conservative,no,m,1,0.800154268373,3,229
2019_Oct_29,212,001,1,recog,55,YOGHURT,LF,lure,-,-,-,liberal,no,m,1,0.653477600657,1,230
2019_Oct_29,212,001,1,recog,56,VANDALS,LF,lure,-,-,-,conservative,no,m,1,0.73312964629,3,233
2019_Oct_29,212,001,1,recog,57,STOOD,HF,lure,-,-,-,conservative,no,m,1,0.78674157188,3,236
2019_Oct_29,212,001,1,recog,58,REBATE,LF,target,right,aqua,pleasantness,liberal,no,z,1,0.613468274167,3,239
2019_Oct_29,212,001,1,recog,59,PILGRIM,LF,target,left,yellow,imageability,liberal,no,z,1,0.666816242465,3,242
2019_Oct_29,212,001,1,recog,60,NOSTRIL,LF,lure,-,-,-,liberal,no,m,1,0.666870133746,1,243
2019_Oct_29,212,001,1,recog,61,FOLLOWED,HF,lure,-,-,-,liberal,no,z,0,0.733161907737,-1,242
2019_Oct_29,212,001,1,recog,62,TOUSLED,LF,lure,-,-,-,liberal,yes,m,1,0.480166908994,1,243
2019_Oct_29,212,001,1,recog,63,NIPPED,LF,lure,-,-,-,conservative,no,m,1,0.893388383093,3,246
2019_Oct_29,212,001,1,recog,64,UNZIPPED,LF,target,left,yellow,imageability,liberal,no,z,1,0.933288460594,3,249
2019_Oct_29,212,001,1,recog,65,SKIDDED,LF,target,right,aqua,pleasantness,liberal,no,z,1,0.680074963871,3,252
2019_Oct_29,212,001,1,recog,66,ANCHORAGE,LF,lure,-,-,-,liberal,no,m,1,0.719841596296,1,253
2019_Oct_29,212,001,1,recog,67,BUDDIES,LF,lure,-,-,-,liberal,no,m,1,0.75983259242,1,254
2019_Oct_29,212,001,1,recog,68,PROBABLY,HF,target,left,yellow,imageability,liberal,no,z,1,0.653460003505,3,257
2019_Oct_29,212,001,1,recog,69,PIECE,HF,lure,-,-,-,conservative,no,m,1,0.653583916789,3,260
2019_Oct_29,212,001,1,recog,70,HYACINTHS,LF,lure,-,-,-,conservative,no,m,1,0.653471001725,3,263
2019_Oct_29,212,001,1,recog,71,QUALITY,HF,target,left,yellow,imageability,liberal,yes,z,1,0.626765855951,3,266
2019_Oct_29,212,001,1,recog,72,LAPELS,LF,lure,-,-,-,liberal,no,m,1,0.573572229347,1,267
2019_Oct_29,212,001,1,recog,73,TIMES,HF,lure,-,-,-,liberal,no,m,1,0.706737583193,1,268
2019_Oct_29,212,001,1,recog,74,BREAK,HF,lure,-,-,-,liberal,no,m,1,0.906680465767,1,269
2019_Oct_29,212,001,1,recog,75,BILATERAL,LF,target,right,aqua,pleasantness,conservative,no,z,1,1.09329130547,1,270
2019_Oct_29,212,001,1,recog,76,SLOWLY,HF,lure,-,-,-,liberal,no,z,0,1.46649832057,-1,269
2019_Oct_29,212,001,1,recog,77,SPOKE,HF,target,left,yellow,imageability,conservative,no,z,1,0.773457554567,1,270
2019_Oct_29,212,001,1,recog,78,CLEAR,HF,lure,-,-,-,conservative,no,m,1,0.706534482721,3,273
2019_Oct_29,212,001,1,recog,79,PIRACY,LF,lure,-,-,-,liberal,no,m,1,0.64032152931,1,274
2019_Oct_29,212,001,1,recog,80,TOFFEE,LF,target,right,aqua,pleasantness,conservative,no,z,1,0.600271876011,1,275
2019_Oct_29,212,001,1,recog,81,ALTHOUGH,HF,target,right,aqua,pleasantness,liberal,no,z,1,0.640249307662,3,278
2019_Oct_29,212,001,1,recog,82,HOURS,HF,target,right,aqua,pleasantness,liberal,yes,z,1,0.666626339858,3,281
2019_Oct_29,212,001,1,recog,83,MACARONI,LF,target,right,aqua,pleasantness,conservative,no,z,1,0.640166821008,1,282
2019_Oct_29,212,001,1,recog,84,LICENSING,LF,target,left,yellow,imageability,conservative,no,z,1,0.600112035206,1,283
2019_Oct_29,212,001,1,recog,85,WAKED,LF,target,right,aqua,pleasantness,liberal,no,z,1,0.560107841218,3,286
2019_Oct_29,212,001,1,recog,86,FAMILY,HF,target,right,aqua,pleasantness,conservative,no,z,1,0.560174563756,1,287
2019_Oct_29,212,001,1,recog,87,GOVERNS,LF,target,right,aqua,pleasantness,conservative,no,z,1,0.5601518341,1,288
2019_Oct_29,212,001,1,recog,88,AHEAD,HF,lure,-,-,-,conservative,no,z,0,0.666694895433,-3,285
2019_Oct_29,212,001,1,recog,89,MAUSOLEUM,LF,lure,-,-,-,conservative,no,m,1,0.679859398749,3,288
2019_Oct_29,212,001,1,recog,90,COHESIVE,LF,lure,-,-,-,conservative,no,m,1,0.720087223221,3,291
2019_Oct_29,212,001,1,recog,91,MOUTH,HF,lure,-,-,-,liberal,no,m,1,0.666771149761,1,292
2019_Oct_29,212,001,1,recog,92,ENERGY,HF,target,right,aqua,pleasantness,liberal,no,z,1,0.586872010775,3,295
2019_Oct_29,212,001,1,recog,93,GREATER,HF,lure,-,-,-,conservative,no,m,1,0.706771311068,3,298
2019_Oct_29,212,001,1,recog,94,OUTSIDE,HF,lure,-,-,-,conservative,no,z,0,0.81332830348,-3,295
2019_Oct_29,212,001,1,recog,95,JOWLS,LF,lure,-,-,-,liberal,no,m,1,0.666769316724,1,296
2019_Oct_29,212,001,2,source,0,CHIEF,HF,target,left,yellow,imageability,liberal,no,9,0,1.38624210603,-,-
2019_Oct_29,212,001,2,source,1,CYNIC,LF,target,left,yellow,imageability,liberal,no,1,1,0.946753948544,-,-
2019_Oct_29,212,001,2,source,2,WEAKENS,LF,target,left,yellow,imageability,conservative,no,2,1,1.31987041163,-,-
2019_Oct_29,212,001,2,source,3,EVENING,HF,target,left,yellow,imageability,conservative,no,2,1,1.6128314772,-,-
2019_Oct_29,212,001,2,source,4,SUMMER,HF,target,right,aqua,pleasantness,liberal,no,9,1,0.759801430795,-,-
2019_Oct_29,212,001,2,source,5,GEYSER,LF,target,left,yellow,imageability,conservative,no,1,1,0.80011724103,-,-
2019_Oct_29,212,001,2,source,6,GARDEN,HF,target,left,yellow,imageability,conservative,no,1,1,0.640236843012,-,-
2019_Oct_29,212,001,2,source,7,SAGES,LF,target,left,yellow,imageability,liberal,no,1,1,0.920164650693,-,-
2019_Oct_29,212,001,2,source,8,NATIONAL,HF,target,right,aqua,pleasantness,liberal,no,9,1,0.706723285506,-,-
2019_Oct_29,212,001,2,source,9,MEDDLE,LF,target,left,yellow,imageability,liberal,no,1,1,0.973407036075,-,-
2019_Oct_29,212,001,2,source,10,NUMBER,HF,target,right,aqua,pleasantness,conservative,yes,2,0,0.613807752572,-,-
2019_Oct_29,212,001,2,source,11,RICKETS,LF,target,right,aqua,pleasantness,conservative,yes,2,0,0.426873198584,-,-
2019_Oct_29,212,001,2,source,12,TOGETHER,HF,target,right,aqua,pleasantness,conservative,no,9,1,0.933326587758,-,-
2019_Oct_29,212,001,2,source,13,UNLESS,HF,target,left,yellow,imageability,liberal,no,2,1,1.45327296044,-,-
2019_Oct_29,212,001,2,source,14,WEIRDLY,LF,target,right,aqua,pleasantness,liberal,no,9,1,2.18618007606,-,-
2019_Oct_29,212,001,2,source,15,ROLLERS,LF,target,right,aqua,pleasantness,liberal,no,9,1,0.920029005973,-,-
2019_Oct_29,212,001,2,source,16,ORIGINALS,LF,target,right,aqua,pleasantness,liberal,no,9,1,1.49312794523,-,-
2019_Oct_29,212,001,2,source,17,POUNDS,HF,target,right,aqua,pleasantness,conservative,no,9,1,0.826818354124,-,-
2019_Oct_29,212,001,2,source,18,WOMAN,HF,target,left,yellow,imageability,liberal,no,1,1,0.600249146355,-,-
2019_Oct_29,212,001,2,source,19,SUDDENLY,HF,target,right,aqua,pleasantness,conservative,no,1,0,0.693421304433,-,-
2019_Oct_29,212,001,2,source,20,LOTTERY,LF,target,right,aqua,pleasantness,conservative,no,9,1,0.64017341994,-,-
2019_Oct_29,212,001,2,source,21,MERELY,HF,target,right,aqua,pleasantness,conservative,no,1,0,0.759805463476,-,-
2019_Oct_29,212,001,2,source,22,CAUGHT,HF,target,left,yellow,imageability,conservative,no,9,0,0.78700296292,-,-
2019_Oct_29,212,001,2,source,23,OSTRACISM,LF,target,right,aqua,pleasantness,conservative,no,9,1,1.26628671481,-,-
2019_Oct_29,212,001,2,source,24,POWER,HF,target,left,yellow,imageability,liberal,no,1,1,1.07968394047,-,-
2019_Oct_29,212,001,2,source,25,BLEACH,LF,target,left,yellow,imageability,conservative,no,1,1,0.653418210267,-,-
2019_Oct_29,212,001,2,source,26,ENTIRELY,HF,target,right,aqua,pleasantness,liberal,no,1,0,0.720252196528,-,-
2019_Oct_29,212,001,2,source,27,RIPEN,LF,target,right,aqua,pleasantness,conservative,yes,2,0,0.600057777318,-,-
2019_Oct_29,212,001,2,source,28,THEORY,HF,target,left,yellow,imageability,liberal,no,9,0,1.63971406093,-,-
2019_Oct_29,212,001,2,source,29,PIZZA,LF,target,left,yellow,imageability,liberal,no,9,0,0.853365125523,-,-
2019_Oct_29,212,001,2,source,30,ANYONE,HF,target,right,aqua,pleasantness,liberal,no,9,1,0.986751176993,-,-
2019_Oct_29,212,001,2,source,31,POSITION,HF,target,right,aqua,pleasantness,liberal,no,9,1,0.840073042848,-,-
2019_Oct_29,212,001,2,source,32,GASEOUS,LF,target,right,aqua,pleasantness,conservative,no,9,1,0.786461850473,-,-
2019_Oct_29,212,001,2,source,33,BELIEVE,HF,target,left,yellow,imageability,liberal,no,1,1,1.23964132603,-,-
2019_Oct_29,212,001,2,source,34,TOWARDS,HF,target,right,aqua,pleasantness,conservative,no,9,1,0.800090478694,-,-
2019_Oct_29,212,001,2,source,35,ELLIPSE,LF,target,left,yellow,imageability,liberal,no,9,0,1.70643623195,-,-
2019_Oct_29,212,001,2,source,36,PRYING,LF,target,left,yellow,imageability,liberal,no,1,1,1.39986450192,-,-
2019_Oct_29,212,001,2,source,37,RAREFIED,LF,target,right,aqua,pleasantness,liberal,no,9,1,1.21298273939,-,-
2019_Oct_29,212,001,2,source,38,PINAFORE,LF,target,left,yellow,imageability,conservative,no,1,1,0.840080741603,-,-
2019_Oct_29,212,001,2,source,39,SPLASHES,LF,target,right,aqua,pleasantness,liberal,no,9,1,1.71970008586,-,-
2019_Oct_29,212,001,2,source,40,CEMENTED,LF,target,right,aqua,pleasantness,liberal,no,1,0,1.87971979467,-,-
2019_Oct_29,212,001,2,source,41,ATTACK,HF,target,left,yellow,imageability,conservative,no,9,0,0.999991568031,-,-
2019_Oct_29,212,001,2,source,42,MAKES,HF,target,right,aqua,pleasantness,liberal,no,2,0,0.773365536123,-,-
2019_Oct_29,212,001,2,source,43,TWENTY,HF,target,left,yellow,imageability,conservative,no,1,1,0.74672527985,-,-
2019_Oct_29,212,001,2,source,44,NOTHING,HF,target,left,yellow,imageability,conservative,no,9,0,1.06659789113,-,-
2019_Oct_29,212,001,2,source,45,PAMPERED,LF,target,left,yellow,imageability,conservative,yes,8,0,0.572694937959,-,-
2019_Oct_29,212,001,2,source,46,PULSAR,LF,target,left,yellow,imageability,conservative,no,9,0,0.960129617695,-,-
2019_Oct_29,212,001,2,source,47,AIRBED,LF,target,right,aqua,pleasantness,conservative,no,9,1,0.813350299922,-,-
2019_Oct_29,212,001,2,recog,0,ATTACK,HF,target,left,yellow,imageability,conservative,no,z,1,0.813190825725,1,297
2019_Oct_29,212,001,2,recog,1,MAYBE,HF,lure,-,-,-,conservative,no,z,0,0.78681489335,-3,294
2019_Oct_29,212,001,2,recog,2,BLEACH,LF,target,left,yellow,imageability,conservative,no,z,1,2.3461561586,1,295
2019_Oct_29,212,001,2,recog,3,JOYFULLY,LF,lure,-,-,-,liberal,no,z,0,1.34657812366,-1,294
2019_Oct_29,212,001,2,recog,4,WOMAN,HF,target,left,yellow,imageability,liberal,no,z,1,0.666751352965,3,297
2019_Oct_29,212,001,2,recog,5,AUGMENT,LF,lure,-,-,-,liberal,no,m,1,0.600154928266,1,298
2019_Oct_29,212,001,2,recog,6,YARDSTICK,LF,lure,-,-,-,liberal,no,m,1,0.600135864684,1,299
2019_Oct_29,212,001,2,recog,7,TOGETHER,HF,target,right,aqua,pleasantness,conservative,no,z,1,0.600300837991,1,300
2019_Oct_29,212,001,2,recog,8,LOTTERY,LF,target,right,aqua,pleasantness,conservative,no,z,1,0.506787001863,1,301
2019_Oct_29,212,001,2,recog,9,TURNED,HF,lure,-,-,-,liberal,no,m,1,0.57347361197,1,302
2019_Oct_29,212,001,2,recog,10,GEYSER,LF,target,left,yellow,imageability,conservative,yes,m,0,0.653190547103,-1,301
2019_Oct_29,212,001,2,recog,11,PULSAR,LF,target,left,yellow,imageability,conservative,no,z,1,0.679841068382,1,302
2019_Oct_29,212,001,2,recog,12,CAUGHT,HF,target,left,yellow,imageability,conservative,no,z,1,0.640100098471,1,303
2019_Oct_29,212,001,2,recog,13,HIPPY,LF,lure,-,-,-,conservative,no,m,1,0.58679392341,3,306
2019_Oct_29,212,001,2,recog,14,VOICE,HF,lure,-,-,-,liberal,no,m,1,0.613429413787,1,307
2019_Oct_29,212,001,2,recog,15,LAXATIVE,LF,lure,-,-,-,liberal,no,m,1,0.64014445796,1,308
2019_Oct_29,212,001,2,recog,16,BELIEVE,HF,target,left,yellow,imageability,liberal,no,z,1,0.613445544511,3,311
2019_Oct_29,212,001,2,recog,17,WELCOMES,LF,lure,-,-,-,conservative,no,m,1,0.746721980383,3,314
2019_Oct_29,212,001,2,recog,18,SUMMER,HF,target,right,aqua,pleasantness,liberal,no,z,1,0.520202631214,3,317
2019_Oct_29,212,001,2,recog,19,RELAXES,LF,lure,-,-,-,conservative,no,m,1,0.706787075185,3,320
2019_Oct_29,212,001,2,recog,20,CHIEF,HF,target,left,yellow,imageability,liberal,no,z,1,0.586796123054,3,323
2019_Oct_29,212,001,2,recog,21,MERELY,HF,target,right,aqua,pleasantness,conservative,no,z,1,0.574031954963,1,324
2019_Oct_29,212,001,2,recog,22,WEAKENS,LF,target,left,yellow,imageability,conservative,no,z,1,0.506583534784,1,325
2019_Oct_29,212,001,2,recog,23,MEDDLE,LF,target,left,yellow,imageability,liberal,no,z,1,0.54684948642,3,328
2019_Oct_29,212,001,2,recog,24,CEMENTED,LF,target,right,aqua,pleasantness,liberal,no,z,1,0.586806388059,3,331
2019_Oct_29,212,001,2,recog,25,CUISINE,LF,lure,-,-,-,liberal,no,m,1,0.666777748694,1,332
2019_Oct_29,212,001,2,recog,26,TOWARDS,HF,target,right,aqua,pleasantness,conservative,no,z,1,0.826508937521,1,333
2019_Oct_29,212,001,2,recog,27,CANNOT,HF,lure,-,-,-,liberal,yes,z,0,0.759865953689,-1,332
2019_Oct_29,212,001,2,recog,28,CLOSE,HF,lure,-,-,-,conservative,no,m,1,1.45313181661,3,335
2019_Oct_29,212,001,2,recog,29,DEGREE,HF,lure,-,-,-,conservative,no,m,1,0.6265737537,3,338
2019_Oct_29,212,001,2,recog,30,PINAFORE,LF,target,left,yellow,imageability,conservative,no,z,1,0.61347194024,1,339
2019_Oct_29,212,001,2,recog,31,TWENTY,HF,target,left,yellow,imageability,conservative,no,z,1,0.906711260785,1,340
2019_Oct_29,212,001,2,recog,32,SNAGS,LF,lure,-,-,-,liberal,no,m,1,0.600172525419,1,341
2019_Oct_29,212,001,2,recog,33,DORMS,LF,lure,-,-,-,conservative,no,m,1,0.680279164164,3,344
2019_Oct_29,212,001,2,recog,34,GASEOUS,LF,target,right,aqua,pleasantness,conservative,no,z,1,0.600117167709,1,345
2019_Oct_29,212,001,2,recog,35,MIDDLE,HF,lure,-,-,-,conservative,no,m,1,0.720127550029,3,348
2019_Oct_29,212,001,2,recog,36,SECOND,HF,lure,-,-,-,liberal,no,m,1,0.560156599995,1,349
2019_Oct_29,212,001,2,recog,37,LEARN,HF,lure,-,-,-,liberal,no,m,1,0.666824674434,1,350
2019_Oct_29,212,001,2,recog,38,OTTOMAN,LF,lure,-,-,-,liberal,no,m,1,0.773248588378,1,351
2019_Oct_29,212,001,2,recog,39,MITIGATE,LF,lure,-,-,-,liberal,no,m,1,0.653196046213,1,352
2019_Oct_29,212,001,2,recog,40,YONDER,LF,lure,-,-,-,conservative,no,m,1,0.733371607141,3,355
2019_Oct_29,212,001,2,recog,41,ENTIRELY,HF,target,right,aqua,pleasantness,liberal,no,z,1,0.586755796245,3,358
2019_Oct_29,212,001,2,recog,42,COWARDS,LF,lure,-,-,-,conservative,no,z,0,0.880007214832,-3,355
2019_Oct_29,212,001,2,recog,43,NICETIES,LF,lure,-,-,-,liberal,no,m,1,0.693411039427,1,356
2019_Oct_29,212,001,2,recog,44,AUSPICES,LF,lure,-,-,-,conservative,no,m,1,0.893237707472,3,359
2019_Oct_29,212,001,2,recog,45,POWER,HF,target,left,yellow,imageability,liberal,no,z,1,0.77342822598,3,362
2019_Oct_29,212,001,2,recog,46,SINCE,HF,lure,-,-,-,liberal,no,m,1,1.10671206732,1,363
2019_Oct_29,212,001,2,recog,47,SOAPY,LF,lure,-,-,-,conservative,no,m,1,0.600024782657,3,366
2019_Oct_29,212,001,2,recog,48,POUNDS,HF,target,right,aqua,pleasantness,conservative,no,z,1,0.586778525901,1,367
2019_Oct_29,212,001,2,recog,49,NOTHING,HF,target,left,yellow,imageability,conservative,no,z,1,0.573511372526,1,368
2019_Oct_29,212,001,2,recog,50,FINAL,HF,lure,-,-,-,conservative,no,m,1,0.680335621696,3,371
2019_Oct_29,212,001,2,recog,51,GARDEN,HF,target,left,yellow,imageability,conservative,no,z,1,0.613503101865,1,372
2019_Oct_29,212,001,2,recog,52,SHALL,HF,lure,-,-,-,conservative,no,m,1,0.600115701279,3,375
2019_Oct_29,212,001,2,recog,53,SPLASHES,LF,target,right,aqua,pleasantness,liberal,no,z,1,0.666753186001,3,378
2019_Oct_29,212,001,2,recog,54,GROUND,HF,lure,-,-,-,liberal,no,m,1,0.706761779278,1,379
2019_Oct_29,212,001,2,recog,55,NUMBER,HF,target,right,aqua,pleasantness,conservative,no,m,0,0.760072720234,-1,378
2019_Oct_29,212,001,2,recog,56,SUBJECT,HF,lure,-,-,-,liberal,no,m,1,0.680119689967,1,379
2019_Oct_29,212,001,2,recog,57,AIRBED,LF,target,right,aqua,pleasantness,conservative,no,z,1,0.640226944614,1,380
2019_Oct_29,212,001,2,recog,58,DALES,LF,lure,-,-,-,conservative,no,m,1,0.693768481593,3,383
2019_Oct_29,212,001,2,recog,59,SUDDENLY,HF,target,right,aqua,pleasantness,conservative,no,z,1,0.680170648389,1,384
2019_Oct_29,212,001,2,recog,60,ASKED,HF,lure,-,-,-,conservative,no,m,1,0.853462643078,3,387
2019_Oct_29,212,001,2,recog,61,SERIOUS,HF,lure,-,-,-,liberal,no,m,1,0.680171014996,1,388
2019_Oct_29,212,001,2,recog,62,RIPEN,LF,target,right,aqua,pleasantness,conservative,no,z,1,0.760091050601,1,389
2019_Oct_29,212,001,2,recog,63,OSTRACISM,LF,target,right,aqua,pleasantness,conservative,no,z,1,0.586850014334,1,390
2019_Oct_29,212,001,2,recog,64,RAREFIED,LF,target,right,aqua,pleasantness,liberal,no,z,1,0.56022368914,3,393
2019_Oct_29,212,001,2,recog,65,PAMPERED,LF,target,left,yellow,imageability,conservative,no,z,1,0.920005543103,1,394
2019_Oct_29,212,001,2,recog,66,LOOKED,HF,lure,-,-,-,conservative,no,z,0,0.680128121937,-3,391
2019_Oct_29,212,001,2,recog,67,HOMESTEAD,LF,lure,-,-,-,liberal,no,m,1,0.66656804929,1,392
2019_Oct_29,212,001,2,recog,68,FLOOR,HF,lure,-,-,-,liberal,no,m,1,0.626955025343,1,393
2019_Oct_29,212,001,2,recog,69,MAKES,HF,target,right,aqua,pleasantness,liberal,no,z,1,0.693430103009,3,396
2019_Oct_29,212,001,2,recog,70,POSITION,HF,target,right,aqua,pleasantness,liberal,yes,z,1,0.653440573315,3,399
2019_Oct_29,212,001,2,recog,71,UNLESS,HF,target,left,yellow,imageability,liberal,no,m,0,0.666755019038,-3,396
2019_Oct_29,212,001,2,recog,72,AEONS,LF,lure,-,-,-,liberal,no,m,1,0.666517824083,1,397
2019_Oct_29,212,001,2,recog,73,CYNIC,LF,target,left,yellow,imageability,liberal,no,z,1,0.720166043801,3,400
2019_Oct_29,212,001,2,recog,74,CIVILITY,LF,lure,-,-,-,conservative,no,m,1,0.693568680588,3,403
2019_Oct_29,212,001,2,recog,75,THEORY,HF,target,left,yellow,imageability,liberal,no,z,1,0.680171381604,3,406
2019_Oct_29,212,001,2,recog,76,NATIONAL,HF,target,right,aqua,pleasantness,liberal,no,z,1,0.666842271587,3,409
2019_Oct_29,212,001,2,recog,77,PEOPLED,LF,lure,-,-,-,conservative,no,z,0,0.720000337279,-3,406
2019_Oct_29,212,001,2,recog,78,RESEARCH,HF,lure,-,-,-,liberal,no,m,1,0.693514056092,1,407
2019_Oct_29,212,001,2,recog,79,ELLIPSE,LF,target,left,yellow,imageability,liberal,no,z,1,0.613495036503,3,410
2019_Oct_29,212,001,2,recog,80,ROLLERS,LF,target,right,aqua,pleasantness,liberal,no,z,1,0.6001017702,3,413
2019_Oct_29,212,001,2,recog,81,OMITTING,LF,lure,-,-,-,liberal,no,m,1,0.800104043166,1,414
2019_Oct_29,212,001,2,recog,82,ANYONE,HF,target,right,aqua,pleasantness,liberal,no,z,1,0.600171792204,3,417
2019_Oct_29,212,001,2,recog,83,EVENING,HF,target,left,yellow,imageability,conservative,no,z,1,0.626814981336,1,418
2019_Oct_29,212,001,2,recog,84,PIZZA,LF,target,left,yellow,imageability,liberal,no,z,1,0.493505184194,3,421
2019_Oct_29,212,001,2,recog,85,WALKED,HF,lure,-,-,-,liberal,yes,z,0,0.613559559397,-1,420
2019_Oct_29,212,001,2,recog,86,RICKETS,LF,target,right,aqua,pleasantness,conservative,no,z,1,0.840058011947,1,421
2019_Oct_29,212,001,2,recog,87,SAGES,LF,target,left,yellow,imageability,liberal,no,z,1,0.81350830769,3,424
2019_Oct_29,212,001,2,recog,88,ORIGINALS,LF,target,right,aqua,pleasantness,liberal,no,z,1,0.613646811946,3,427
2019_Oct_29,212,001,2,recog,89,PRYING,LF,target,left,yellow,imageability,liberal,no,z,1,0.653236373021,3,430
2019_Oct_29,212,001,2,recog,90,AFRAID,HF,lure,-,-,-,conservative,no,z,0,0.853442479674,-3,427
2019_Oct_29,212,001,2,recog,91,CARRIED,HF,lure,-,-,-,conservative,no,m,1,0.933351517058,3,430
2019_Oct_29,212,001,2,recog,92,WEIRDLY,LF,target,right,aqua,pleasantness,liberal,no,z,1,0.653204111575,3,433
2019_Oct_29,212,001,2,recog,93,KITCHEN,HF,lure,-,-,-,conservative,no,m,1,0.853326998358,3,436
2019_Oct_29,212,001,2,recog,94,ENAMELLED,LF,lure,-,-,-,conservative,no,m,1,0.626784552926,3,439
2019_Oct_29,212,001,2,recog,95,LATER,HF,lure,-,-,-,conservative,no,m,1,0.653476867443,3,442
2019_Oct_29,212,001,3,source,0,PNEUMATIC,LF,target,right,aqua,pleasantness,liberal,no,1,0,1.06639992316,-,-
2019_Oct_29,212,001,3,source,1,STAFF,HF,target,right,aqua,pleasantness,liberal,no,9,1,0.599893170619,-,-
2019_Oct_29,212,001,3,source,2,ADDED,HF,target,left,yellow,imageability,conservative,no,2,1,0.866729429845,-,-
2019_Oct_29,212,001,3,source,3,DEEPEN,LF,target,left,yellow,imageability,liberal,no,2,1,0.85337245767,-,-
2019_Oct_29,212,001,3,source,4,DAMASK,LF,target,right,aqua,pleasantness,conservative,no,1,0,0.746733345211,-,-
2019_Oct_29,212,001,3,source,5,JEOPARDY,LF,target,right,aqua,pleasantness,liberal,no,9,1,0.76008701792,-,-
2019_Oct_29,212,001,3,source,6,POINT,HF,target,right,aqua,pleasantness,conservative,no,2,0,0.999965905517,-,-
2019_Oct_29,212,001,3,source,7,NETTLE,LF,target,right,aqua,pleasantness,conservative,no,3,0,1.69303819975,-,-
2019_Oct_29,212,001,3,source,8,LETTER,HF,target,left,yellow,imageability,conservative,no,9,0,0.826694807447,-,-
2019_Oct_29,212,001,3,source,9,UNNAMED,LF,target,right,aqua,pleasantness,liberal,no,2,0,1.09326454313,-,-
2019_Oct_29,212,001,3,source,10,AQUARIUM,LF,target,right,aqua,pleasantness,conservative,yes,2,0,0.693445867125,-,-
2019_Oct_29,212,001,3,source,11,INCLUDING,HF,target,left,yellow,imageability,liberal,no,2,1,0.799827254617,-,-
2019_Oct_29,212,001,3,source,12,MEMBERS,HF,target,left,yellow,imageability,liberal,no,9,0,0.760090683994,-,-
2019_Oct_29,212,001,3,source,13,ZENITH,LF,target,right,aqua,pleasantness,conservative,no,9,1,0.773420893833,-,-
2019_Oct_29,212,001,3,source,14,HOSPITAL,HF,target,left,yellow,imageability,conservative,no,9,0,0.906761119384,-,-
2019_Oct_29,212,001,3,source,15,PLODDED,LF,target,left,yellow,imageability,liberal,no,8,0,0.800114674779,-,-
2019_Oct_29,212,001,3,source,16,SEDAN,LF,target,left,yellow,imageability,conservative,no,9,0,1.09297968922,-,-
2019_Oct_29,212,001,3,source,17,UNTIL,HF,target,right,aqua,pleasantness,conservative,no,9,1,1.11990919869,-,-
2019_Oct_29,212,001,3,source,18,DRAFTING,LF,target,left,yellow,imageability,liberal,yes,8,0,0.586777426079,-,-
2019_Oct_29,212,001,3,source,19,CALLED,HF,target,left,yellow,imageability,liberal,no,2,1,1.06662758632,-,-
2019_Oct_29,212,001,3,source,20,WESTERN,HF,target,right,aqua,pleasantness,liberal,no,9,1,0.786868051416,-,-
2019_Oct_29,212,001,3,source,21,UMBILICAL,LF,target,left,yellow,imageability,conservative,no,1,1,0.86646730559,-,-
2019_Oct_29,212,001,3,source,22,FRIEND,HF,target,left,yellow,imageability,liberal,no,1,1,0.839768392141,-,-
2019_Oct_29,212,001,3,source,23,SIMILAR,HF,target,left,yellow,imageability,liberal,yes,2,1,0.560130570874,-,-
2019_Oct_29,212,001,3,source,24,MEANS,HF,target,left,yellow,imageability,conservative,no,2,1,1.066182525,-,-
2019_Oct_29,212,001,3,source,25,MATERIAL,HF,target,left,yellow,imageability,conservative,no,8,0,0.973040428726,-,-
2019_Oct_29,212,001,3,source,26,DOCTOR,HF,target,right,aqua,pleasantness,conservative,no,9,1,0.693468963389,-,-
2019_Oct_29,212,001,3,source,27,GERANIUMS,LF,target,left,yellow,imageability,conservative,no,1,1,0.986421963593,-,-
2019_Oct_29,212,001,3,source,28,ESCALATED,LF,target,right,aqua,pleasantness,liberal,no,9,1,0.999979103381,-,-
2019_Oct_29,212,001,3,source,29,FURTHER,HF,target,right,aqua,pleasantness,liberal,no,9,1,0.640218146038,-,-
2019_Oct_29,212,001,3,source,30,TEXTURES,LF,target,right,aqua,pleasantness,conservative,no,1,0,0.72005826124,-,-
2019_Oct_29,212,001,3,source,31,FIELD,HF,target,right,aqua,pleasantness,liberal,no,9,1,0.693530186816,-,-
2019_Oct_29,212,001,3,source,32,ESPECIAL,LF,target,left,yellow,imageability,liberal,no,2,1,1.03971310775,-,-
2019_Oct_29,212,001,3,source,33,FOOLHARDY,LF,target,left,yellow,imageability,liberal,no,2,1,1.19991648685,-,-
2019_Oct_29,212,001,3,source,34,BUTCHERED,LF,target,left,yellow,imageability,conservative,no,9,0,0.946441599083,-,-
2019_Oct_29,212,001,3,source,35,PLYWOOD,LF,target,right,aqua,pleasantness,liberal,no,9,1,0.773406596146,-,-
2019_Oct_29,212,001,3,source,36,VIGILANT,LF,target,left,yellow,imageability,liberal,no,8,0,1.22643502948,-,-
2019_Oct_29,212,001,3,source,37,NERVY,LF,target,right,aqua,pleasantness,liberal,no,9,1,0.800043186346,-,-
2019_Oct_29,212,001,3,source,38,ACROSS,HF,target,left,yellow,imageability,conservative,no,8,0,0.666869767138,-,-
2019_Oct_29,212,001,3,source,39,EVADING,LF,target,left,yellow,imageability,conservative,no,2,1,0.706502587881,-,-
2019_Oct_29,212,001,3,source,40,INDEED,HF,target,right,aqua,pleasantness,conservative,no,8,1,0.560151100885,-,-
2019_Oct_29,212,001,3,source,41,GLASS,HF,target,right,aqua,pleasantness,liberal,no,1,0,0.986645594076,-,-
2019_Oct_29,212,001,3,source,42,CONCERNED,HF,target,left,yellow,imageability,liberal,yes,2,1,0.613426114321,-,-
2019_Oct_29,212,001,3,source,43,DURING,HF,target,right,aqua,pleasantness,liberal,no,2,0,0.920054301881,-,-
2019_Oct_29,212,001,3,source,44,HASSLE,LF,target,left,yellow,imageability,conservative,no,8,0,1.21327932474,-,-
2019_Oct_29,212,001,3,source,45,HIKING,LF,target,right,aqua,pleasantness,conservative,no,9,1,0.680128121936,-,-
2019_Oct_29,212,001,3,source,46,SORRY,HF,target,right,aqua,pleasantness,conservative,no,9,1,1.11971892948,-,-
2019_Oct_29,212,001,3,source,47,MAJOR,HF,target,right,aqua,pleasantness,conservative,no,9,1,0.933383778505,-,-
2019_Oct_29,212,001,3,recog,0,ENCLOSE,LF,lure,-,-,-,conservative,no,m,1,0.826710204955,3,445
2019_Oct_29,212,001,3,recog,1,WESTERN,HF,target,right,aqua,pleasantness,liberal,no,z,1,0.600308536746,3,448
2019_Oct_29,212,001,3,recog,2,NEARLY,HF,lure,-,-,-,liberal,no,z,0,0.666570615541,-1,447
2019_Oct_29,212,001,3,recog,3,NETTLE,LF,target,right,aqua,pleasantness,conservative,no,z,1,0.786701245072,1,448
2019_Oct_29,212,001,3,recog,4,FOOLHARDY,LF,target,left,yellow,imageability,liberal,yes,m,0,0.626796284361,-3,445
2019_Oct_29,212,001,3,recog,5,BIKINI,LF,lure,-,-,-,conservative,no,m,1,0.706508453599,3,448
2019_Oct_29,212,001,3,recog,6,TEXTURES,LF,target,right,aqua,pleasantness,conservative,no,z,1,0.560188494835,1,449
2019_Oct_29,212,001,3,recog,7,TENABLE,LF,lure,-,-,-,liberal,no,m,1,0.680182379825,1,450
2019_Oct_29,212,001,3,recog,8,ARTIFACTS,LF,lure,-,-,-,conservative,no,m,1,0.6801512182,3,453
2019_Oct_29,212,001,3,recog,9,BUTCHERED,LF,target,left,yellow,imageability,conservative,no,z,1,0.560160266069,1,454
2019_Oct_29,212,001,3,recog,10,HOLED,LF,lure,-,-,-,liberal,no,m,1,0.5467886296,1,455
2019_Oct_29,212,001,3,recog,11,GLASS,HF,target,right,aqua,pleasantness,liberal,no,z,1,0.559889709845,3,458
2019_Oct_29,212,001,3,recog,12,DRAFTING,LF,target,left,yellow,imageability,liberal,no,z,1,0.546830422838,3,461
2019_Oct_29,212,001,3,recog,13,RUPTURE,LF,lure,-,-,-,conservative,no,z,0,0.653440573315,-3,458
2019_Oct_29,212,001,3,recog,14,MEMBERS,HF,target,left,yellow,imageability,liberal,no,z,1,0.826500138944,3,461
2019_Oct_29,212,001,3,recog,15,EVADING,LF,target,left,yellow,imageability,conservative,no,z,1,0.573493408767,1,462
2019_Oct_29,212,001,3,recog,16,STAFF,HF,target,right,aqua,pleasantness,liberal,no,z,1,0.493542578144,3,465
2019_Oct_29,212,001,3,recog,17,FIELD,HF,target,right,aqua,pleasantness,liberal,no,z,1,0.573240449695,3,468
2019_Oct_29,212,001,3,recog,18,CALLED,HF,target,left,yellow,imageability,liberal,no,z,1,0.573498174662,3,471
2019_Oct_29,212,001,3,recog,19,PLYWOOD,LF,target,right,aqua,pleasantness,liberal,no,z,1,0.493450559699,3,474
2019_Oct_29,212,001,3,recog,20,WRONG,HF,lure,-,-,-,liberal,no,m,1,0.799830187476,1,475
2019_Oct_29,212,001,3,recog,21,BECAME,HF,lure,-,-,-,liberal,no,m,1,0.560178963044,1,476
2019_Oct_29,212,001,3,recog,22,BUILDING,HF,lure,-,-,-,conservative,no,m,1,0.719821432892,3,479
2019_Oct_29,212,001,3,recog,23,INVOLVED,HF,lure,-,-,-,liberal,no,z,0,0.80004538599,-1,478
2019_Oct_29,212,001,3,recog,24,VARIOUS,HF,lure,-,-,-,liberal,no,m,1,1.25328535176,1,479
2019_Oct_29,212,001,3,recog,25,MOLARS,LF,lure,-,-,-,liberal,no,m,1,0.720077324822,1,480
2019_Oct_29,212,001,3,recog,26,CLASS,HF,lure,-,-,-,conservative,no,m,1,1.10661344994,3,483
2019_Oct_29,212,001,3,recog,27,DOCTOR,HF,target,right,aqua,pleasantness,conservative,no,z,1,0.57344721624,1,484
2019_Oct_29,212,001,3,recog,28,SORRY,HF,target,right,aqua,pleasantness,conservative,no,z,1,0.613743596286,1,485
2019_Oct_29,212,001,3,recog,29,DIVAN,LF,lure,-,-,-,liberal,no,m,1,0.533504612287,1,486
2019_Oct_29,212,001,3,recog,30,JEOPARDY,LF,target,right,aqua,pleasantness,liberal,no,z,1,0.560253017728,3,489
2019_Oct_29,212,001,3,recog,31,LETTER,HF,target,left,yellow,imageability,conservative,no,z,1,0.62670096645,1,490
2019_Oct_29,212,001,3,recog,32,CENTRAL,HF,lure,-,-,-,conservative,no,z,0,0.800078380651,-3,487
2019_Oct_29,212,001,3,recog,33,LODGERS,LF,lure,-,-,-,conservative,no,m,1,0.840067910346,3,490
2019_Oct_29,212,001,3,recog,34,ESPECIAL,LF,target,left,yellow,imageability,liberal,no,z,1,0.600077207508,3,493
2019_Oct_29,212,001,3,recog,35,FRIEND,HF,target,left,yellow,imageability,liberal,no,z,1,0.546914742528,3,496
2019_Oct_29,212,001,3,recog,36,INCLUDING,HF,target,left,yellow,imageability,liberal,yes,m,0,0.560087311206,-3,493
2019_Oct_29,212,001,3,recog,37,ESCALATED,LF,target,right,aqua,pleasantness,liberal,no,z,1,0.640317130022,3,496
2019_Oct_29,212,001,3,recog,38,CONCERNED,HF,target,left,yellow,imageability,liberal,no,z,1,0.640342059321,3,499
2019_Oct_29,212,001,3,recog,39,SLACKEN,LF,lure,-,-,-,liberal,no,m,1,0.880010880906,1,500
2019_Oct_29,212,001,3,recog,40,POINT,HF,target,right,aqua,pleasantness,conservative,no,m,0,1.11997372159,-1,499
2019_Oct_29,212,001,3,recog,41,HOSPITAL,HF,target,left,yellow,imageability,conservative,no,z,1,0.692890823598,1,500
2019_Oct_29,212,001,3,recog,42,DWELT,LF,lure,-,-,-,conservative,no,m,1,0.600120833782,3,503
2019_Oct_29,212,001,3,recog,43,COMES,HF,lure,-,-,-,conservative,no,m,1,0.719954144753,3,506
2019_Oct_29,212,001,3,recog,44,SIMILAR,HF,target,left,yellow,imageability,liberal,no,z,1,0.693441834444,3,509
2019_Oct_29,212,001,3,recog,45,HIVES,LF,lure,-,-,-,liberal,no,m,1,0.720165677194,1,510
2019_Oct_29,212,001,3,recog,46,TELEPHONE,HF,lure,-,-,-,conservative,no,m,1,0.959964644387,3,513
2019_Oct_29,212,001,3,recog,47,DAMASK,LF,target,right,aqua,pleasantness,conservative,no,m,0,0.679922455213,-1,512
2019_Oct_29,212,001,3,recog,48,DEEPEN,LF,target,left,yellow,imageability,liberal,no,m,0,0.61344151183,-3,509
2019_Oct_29,212,001,3,recog,49,DAILIES,LF,lure,-,-,-,liberal,no,m,1,0.60015016237,1,510
2019_Oct_29,212,001,3,recog,50,ZENITH,LF,target,right,aqua,pleasantness,conservative,no,z,1,0.666901661978,1,511
2019_Oct_29,212,001,3,recog,51,ANSWER,HF,lure,-,-,-,liberal,no,z,0,0.746767073088,-1,510
2019_Oct_29,212,001,3,recog,52,TRYING,HF,lure,-,-,-,liberal,no,z,0,0.706768011602,-1,509
2019_Oct_29,212,001,3,recog,53,HAPPEN,HF,lure,-,-,-,liberal,no,m,1,0.626552123867,1,510
2019_Oct_29,212,001,3,recog,54,HIKING,LF,target,right,aqua,pleasantness,conservative,no,z,1,0.546874782327,1,511
2019_Oct_29,212,001,3,recog,55,TAVERNS,LF,lure,-,-,-,liberal,no,z,0,0.586775959649,-1,510
2019_Oct_29,212,001,3,recog,56,ADDED,HF,target,left,yellow,imageability,conservative,no,z,1,1.11992202995,1,511
2019_Oct_29,212,001,3,recog,57,PRIVATE,HF,lure,-,-,-,liberal,no,m,1,0.666748053498,1,512
2019_Oct_29,212,001,3,recog,58,DURING,HF,target,right,aqua,pleasantness,liberal,no,z,1,0.946431334077,3,515
2019_Oct_29,212,001,3,recog,59,TEETERED,LF,lure,-,-,-,liberal,no,m,1,1.05330287559,1,516
2019_Oct_29,212,001,3,recog,60,EFFECT,HF,lure,-,-,-,conservative,no,m,1,0.746772938805,3,519
2019_Oct_29,212,001,3,recog,61,HUMAN,HF,lure,-,-,-,conservative,no,m,1,1.17323663698,3,522
2019_Oct_29,212,001,3,recog,62,GULLIBLE,LF,lure,-,-,-,conservative,no,m,1,0.68016221642,3,525
2019_Oct_29,212,001,3,recog,63,HASSLE,LF,target,left,yellow,imageability,conservative,no,z,1,0.879922528535,1,526
2019_Oct_29,212,001,3,recog,64,ANAEMIC,LF,lure,-,-,-,conservative,no,m,1,0.733075388402,3,529
2019_Oct_29,212,001,3,recog,65,PUCKERED,LF,lure,-,-,-,conservative,no,z,0,0.74646938792,-3,526
2019_Oct_29,212,001,3,recog,66,RAGES,LF,lure,-,-,-,conservative,no,m,1,0.652625971785,3,529
2019_Oct_29,212,001,3,recog,67,FURTHER,HF,target,right,aqua,pleasantness,liberal,no,z,1,0.680103559244,3,532
2019_Oct_29,212,001,3,recog,68,MEANS,HF,target,left,yellow,imageability,conservative,no,z,1,0.813380728332,1,533
2019_Oct_29,212,001,3,recog,69,DIFFERENT,HF,lure,-,-,-,liberal,no,m,1,0.853405818938,1,534
2019_Oct_29,212,001,3,recog,70,UNNAMED,LF,target,right,aqua,pleasantness,liberal,no,m,0,0.720137815035,-3,531
2019_Oct_29,212,001,3,recog,71,PLODDED,LF,target,left,yellow,imageability,liberal,no,z,1,1.2665305087,3,534
2019_Oct_29,212,001,3,recog,72,FAKING,LF,lure,-,-,-,conservative,no,m,1,0.799855483383,3,537
2019_Oct_29,212,001,3,recog,73,EDUCATION,HF,lure,-,-,-,conservative,yes,z,0,0.693454665702,-3,534
2019_Oct_29,212,001,3,recog,74,GERANIUMS,LF,target,left,yellow,imageability,conservative,no,z,1,0.840034915684,1,535
2019_Oct_29,212,001,3,recog,75,HOBBLE,LF,lure,-,-,-,liberal,no,z,0,0.78676100207,-1,534
2019_Oct_29,212,001,3,recog,76,WHETHER,HF,lure,-,-,-,liberal,no,m,1,0.68011235782,1,535
2019_Oct_29,212,001,3,recog,77,UNTIL,HF,target,right,aqua,pleasantness,conservative,no,z,1,0.786737905807,1,536
2019_Oct_29,212,001,3,recog,78,PNEUMATIC,LF,target,right,aqua,pleasantness,liberal,no,z,1,0.746724913242,3,539
2019_Oct_29,212,001,3,recog,79,MATERIAL,HF,target,left,yellow,imageability,conservative,no,z,1,0.533592964659,1,540
2019_Oct_29,212,001,3,recog,80,UMBILICAL,LF,target,left,yellow,imageability,conservative,no,z,1,0.54684948642,1,541
2019_Oct_29,212,001,3,recog,81,GIRLS,HF,lure,-,-,-,conservative,no,m,1,0.706500388237,3,544
2019_Oct_29,212,001,3,recog,82,TAGGED,LF,lure,-,-,-,liberal,yes,m,1,0.575012996231,1,545
2019_Oct_29,212,001,3,recog,83,VIGILANT,LF,target,left,yellow,imageability,liberal,no,m,0,0.88015972349,-3,542
2019_Oct_29,212,001,3,recog,84,NERVY,LF,target,right,aqua,pleasantness,liberal,no,z,1,1.38646976919,3,545
2019_Oct_29,212,001,3,recog,85,HEALTH,HF,lure,-,-,-,conservative,no,m,1,0.6801013596,3,548
2019_Oct_29,212,001,3,recog,86,INDEED,HF,target,right,aqua,pleasantness,conservative,no,m,0,0.760055489689,-1,547
2019_Oct_29,212,001,3,recog,87,EXPECT,HF,lure,-,-,-,conservative,no,m,1,1.18667242973,3,550
2019_Oct_29,212,001,3,recog,88,AQUARIUM,LF,target,right,aqua,pleasantness,conservative,no,z,1,0.692113249409,1,551
2019_Oct_29,212,001,3,recog,89,SEDAN,LF,target,left,yellow,imageability,conservative,no,z,1,0.626841010458,1,552
2019_Oct_29,212,001,3,recog,90,BEAUTIFUL,HF,lure,-,-,-,liberal,no,m,1,0.680211341805,1,553
2019_Oct_29,212,001,3,recog,91,CAPITAL,HF,lure,-,-,-,conservative,no,m,1,0.613433446469,3,556
2019_Oct_29,212,001,3,recog,92,PSEUDONYM,LF,lure,-,-,-,conservative,no,m,1,0.786826258178,3,559
2019_Oct_29,212,001,3,recog,93,MAJOR,HF,target,right,aqua,pleasantness,conservative,no,z,1,0.973366342659,1,560
2019_Oct_29,212,001,3,recog,94,ACROSS,HF,target,left,yellow,imageability,conservative,no,m,0,0.733428797887,-1,559
2019_Oct_29,212,001,3,recog,95,FRACTIONS,LF,lure,-,-,-,liberal,no,m,1,0.746503115796,1,560
2019_Oct_29,212,001,4,source,0,SLIGHTLY,HF,target,right,aqua,pleasantness,liberal,no,2,0,1.06668441046,-,-
2019_Oct_29,212,001,4,source,1,ACTION,HF,target,left,yellow,imageability,liberal,no,9,0,0.773430792231,-,-
2019_Oct_29,212,001,4,source,2,METABOLIC,LF,target,right,aqua,pleasantness,conservative,no,9,1,0.760073820056,-,-
2019_Oct_29,212,001,4,source,3,BONANZA,LF,target,left,yellow,imageability,liberal,no,1,1,0.746858724925,-,-
2019_Oct_29,212,001,4,source,4,MINISTER,HF,target,right,aqua,pleasantness,liberal,no,9,1,0.599215313629,-,-
2019_Oct_29,212,001,4,source,5,NECESSARY,HF,target,left,yellow,imageability,conservative,yes,2,1,0.546605692532,-,-
2019_Oct_29,212,001,4,source,6,PREPARED,HF,target,left,yellow,imageability,liberal,no,2,1,0.75985752172,-,-
2019_Oct_29,212,001,4,source,7,CHAIR,HF,target,right,aqua,pleasantness,liberal,no,9,1,0.626718563603,-,-
2019_Oct_29,212,001,4,source,8,BLACK,HF,target,right,aqua,pleasantness,conservative,yes,2,0,0.506984969832,-,-
2019_Oct_29,212,001,4,source,9,AFTERNOON,HF,target,left,yellow,imageability,conservative,no,8,0,0.906427506696,-,-
2019_Oct_29,212,001,4,source,10,IRRIGATED,LF,target,right,aqua,pleasantness,liberal,no,9,1,1.57314256553,-,-
2019_Oct_29,212,001,4,source,11,EIGHT,HF,target,right,aqua,pleasantness,liberal,no,9,1,0.680253135043,-,-
2019_Oct_29,212,001,4,source,12,LOVELIEST,LF,target,right,aqua,pleasantness,liberal,yes,8,1,0.653211810329,-,-
2019_Oct_29,212,001,4,source,13,MORNING,HF,target,left,yellow,imageability,liberal,no,9,0,0.839818983955,-,-
2019_Oct_29,212,001,4,source,14,PERHAPS,HF,target,right,aqua,pleasantness,liberal,no,2,0,0.759874385658,-,-
2019_Oct_29,212,001,4,source,15,DECIDED,HF,target,left,yellow,imageability,liberal,no,8,0,0.839816417703,-,-
2019_Oct_29,212,001,4,source,16,FLUFF,LF,target,right,aqua,pleasantness,conservative,no,9,1,0.746474520423,-,-
2019_Oct_29,212,001,4,source,17,SEEMED,HF,target,right,aqua,pleasantness,conservative,no,9,1,0.640171586904,-,-
2019_Oct_29,212,001,4,source,18,ENSCONCED,LF,target,left,yellow,imageability,liberal,no,3,1,1.62652682796,-,-
2019_Oct_29,212,001,4,source,19,HOWEVER,HF,target,left,yellow,imageability,conservative,no,2,1,1.29294456824,-,-
2019_Oct_29,212,001,4,source,20,VALUE,HF,target,left,yellow,imageability,liberal,no,9,0,0.72021040329,-,-
2019_Oct_29,212,001,4,source,21,KETCHUP,LF,target,right,aqua,pleasantness,conservative,no,9,1,0.680073497441,-,-
2019_Oct_29,212,001,4,source,22,HANDS,HF,target,right,aqua,pleasantness,conservative,no,9,1,0.719911984907,-,-
2019_Oct_29,212,001,4,source,23,PAPER,HF,target,left,yellow,imageability,conservative,no,9,0,0.586610253128,-,-
2019_Oct_29,212,001,4,source,24,BRUISING,LF,target,left,yellow,imageability,conservative,no,1,1,1.10661381655,-,-
2019_Oct_29,212,001,4,source,25,VISCOUS,LF,target,right,aqua,pleasantness,conservative,yes,8,1,0.680097326919,-,-
2019_Oct_29,212,001,4,source,26,UNWARY,LF,target,right,aqua,pleasantness,liberal,no,8,1,0.879781751313,-,-
2019_Oct_29,212,001,4,source,27,TABLE,HF,target,right,aqua,pleasantness,conservative,no,9,1,0.75984505707,-,-
2019_Oct_29,212,001,4,source,28,DUMMIES,LF,target,left,yellow,imageability,liberal,no,1,1,0.640110730084,-,-
2019_Oct_29,212,001,4,source,29,LOCAL,HF,target,left,yellow,imageability,conservative,no,2,1,0.986794803267,-,-
2019_Oct_29,212,001,4,source,30,PHYSICAL,HF,target,right,aqua,pleasantness,liberal,no,9,1,1.02673227472,-,-
2019_Oct_29,212,001,4,source,31,OATHS,LF,target,left,yellow,imageability,conservative,no,9,0,0.746706949482,-,-
2019_Oct_29,212,001,4,source,32,CUDDLE,LF,target,left,yellow,imageability,conservative,no,1,1,0.72013011628,-,-
2019_Oct_29,212,001,4,source,33,COERCION,LF,target,left,yellow,imageability,liberal,no,1,1,0.760185635298,-,-
2019_Oct_29,212,001,4,source,34,UNSAVOURY,LF,target,right,aqua,pleasantness,liberal,no,9,1,0.90643117277,-,-
2019_Oct_29,212,001,4,source,35,DIZZINESS,LF,target,right,aqua,pleasantness,liberal,no,9,1,0.759819027948,-,-
2019_Oct_29,212,001,4,source,36,FUSELAGE,LF,target,left,yellow,imageability,liberal,no,2,1,1.07967367547,-,-
2019_Oct_29,212,001,4,source,37,EQUALLED,LF,target,left,yellow,imageability,conservative,no,2,1,0.839868842555,-,-
2019_Oct_29,212,001,4,source,38,OBVIOUSLY,HF,target,left,yellow,imageability,conservative,no,8,0,0.986431861991,-,-
2019_Oct_29,212,001,4,source,39,ENROLMENT,LF,target,left,yellow,imageability,conservative,no,1,1,0.933159781414,-,-
2019_Oct_29,212,001,4,source,40,JINGLE,LF,target,right,aqua,pleasantness,conservative,no,9,1,0.933394776725,-,-
2019_Oct_29,212,001,4,source,41,FREEDOM,HF,target,left,yellow,imageability,liberal,no,9,0,1.62634572393,-,-
2019_Oct_29,212,001,4,source,42,FERRET,LF,target,right,aqua,pleasantness,liberal,no,9,1,0.773409529005,-,-
2019_Oct_29,212,001,4,source,43,INNATELY,LF,target,left,yellow,imageability,liberal,no,9,0,0.919992345238,-,-
2019_Oct_29,212,001,4,source,44,SENSE,HF,target,right,aqua,pleasantness,conservative,no,1,0,0.813359831712,-,-
2019_Oct_29,212,001,4,source,45,FICKLE,LF,target,right,aqua,pleasantness,conservative,no,9,1,0.906677899516,-,-
2019_Oct_29,212,001,4,source,46,MYSELF,HF,target,right,aqua,pleasantness,conservative,no,9,1,0.853304268702,-,-
2019_Oct_29,212,001,4,source,47,ENFORCING,LF,target,left,yellow,imageability,conservative,no,2,1,1.05339929333,-,-
2019_Oct_29,212,001,4,recog,0,IDEAS,HF,lure,-,-,-,conservative,no,m,1,0.920046969733,3,563
2019_Oct_29,212,001,4,recog,1,TODAY,HF,lure,-,-,-,liberal,no,m,1,0.826825319663,1,564
2019_Oct_29,212,001,4,recog,2,ROUND,HF,lure,-,-,-,conservative,no,m,1,0.65317294995,3,567
2019_Oct_29,212,001,4,recog,3,LOVELIEST,LF,target,right,aqua,pleasantness,liberal,no,m,0,0.693335151706,-3,564
2019_Oct_29,212,001,4,recog,4,CITES,LF,lure,-,-,-,liberal,no,m,1,0.61358815477,1,565
2019_Oct_29,212,001,4,recog,5,TWAIN,LF,lure,-,-,-,conservative,no,m,1,0.586923335804,3,568
2019_Oct_29,212,001,4,recog,6,WASHBASIN,LF,lure,-,-,-,conservative,no,m,1,0.600126332893,3,571
2019_Oct_29,212,001,4,recog,7,EIGHT,HF,target,right,aqua,pleasantness,liberal,no,z,1,0.600184623461,3,574
2019_Oct_29,212,001,4,recog,8,ENSCONCED,LF,target,left,yellow,imageability,liberal,no,z,1,0.680150118378,3,577
2019_Oct_29,212,001,4,recog,9,MODERN,HF,lure,-,-,-,liberal,no,z,0,0.920049169378,-1,576
2019_Oct_29,212,001,4,recog,10,UNWARY,LF,target,right,aqua,pleasantness,liberal,no,z,1,0.853393354289,3,579
2019_Oct_29,212,001,4,recog,11,CRUCIALLY,LF,lure,-,-,-,liberal,no,m,1,0.695591619943,1,580
2019_Oct_29,212,001,4,recog,12,ENROLMENT,LF,target,left,yellow,imageability,conservative,no,z,1,0.813429487109,1,581
2019_Oct_29,212,001,4,recog,13,NECESSARY,HF,target,left,yellow,imageability,conservative,yes,m,0,0.573516871637,-1,580
2019_Oct_29,212,001,4,recog,14,COERCION,LF,target,left,yellow,imageability,liberal,no,z,1,0.546847653383,3,583
2019_Oct_29,212,001,4,recog,15,INSIDE,HF,lure,-,-,-,liberal,no,z,0,0.559940668267,-1,582
2019_Oct_29,212,001,4,recog,16,CHAIR,HF,target,right,aqua,pleasantness,liberal,no,z,1,0.519945272855,3,585
2019_Oct_29,212,001,4,recog,17,SANDAL,LF,lure,-,-,-,liberal,no,m,1,0.680082296018,1,586
2019_Oct_29,212,001,4,recog,18,SENSE,HF,target,right,aqua,pleasantness,conservative,no,z,1,0.546881014652,1,587
2019_Oct_29,212,001,4,recog,19,HOWEVER,HF,target,left,yellow,imageability,conservative,no,z,1,0.693445867125,1,588
2019_Oct_29,212,001,4,recog,20,ENFORCING,LF,target,left,yellow,imageability,conservative,no,z,1,0.520249556955,1,589
2019_Oct_29,212,001,4,recog,21,SMALL,HF,lure,-,-,-,conservative,no,m,1,0.626612614079,3,592
2019_Oct_29,212,001,4,recog,22,HATCHES,LF,lure,-,-,-,conservative,no,m,1,0.626814981336,3,595
2019_Oct_29,212,001,4,recog,23,FREEDOM,HF,target,left,yellow,imageability,liberal,no,z,1,0.613601719242,3,598
2019_Oct_29,212,001,4,recog,24,VALUE,HF,target,left,yellow,imageability,liberal,no,z,1,0.600301204599,3,601
2019_Oct_29,212,001,4,recog,25,OTHERS,HF,lure,-,-,-,liberal,no,z,0,0.893275101422,-1,600
2019_Oct_29,212,001,4,recog,26,HANDS,HF,target,right,aqua,pleasantness,conservative,no,z,1,1.02659369714,1,601
2019_Oct_29,212,001,4,recog,27,METABOLIC,LF,target,right,aqua,pleasantness,conservative,no,z,1,0.573458947676,1,602
2019_Oct_29,212,001,4,recog,28,FAUCET,LF,lure,-,-,-,conservative,no,m,1,0.733459592904,3,605
2019_Oct_29,212,001,4,recog,29,CUDDLE,LF,target,left,yellow,imageability,conservative,no,z,1,0.60210601258,1,606
2019_Oct_29,212,001,4,recog,30,VISCOUS,LF,target,right,aqua,pleasantness,conservative,no,z,1,0.626785286141,1,607
2019_Oct_29,212,001,4,recog,31,OCHRE,LF,lure,-,-,-,conservative,no,m,1,0.52014507386,3,610
2019_Oct_29,212,001,4,recog,32,PERHAPS,HF,target,right,aqua,pleasantness,liberal,no,z,1,0.573496341625,3,613
2019_Oct_29,212,001,4,recog,33,BETTER,HF,lure,-,-,-,conservative,yes,m,1,0.613668075172,3,616
2019_Oct_29,212,001,4,recog,34,MORNING,HF,target,left,yellow,imageability,liberal,no,z,1,0.986799569163,3,619
2019_Oct_29,212,001,4,recog,35,DIZZINESS,LF,target,right,aqua,pleasantness,liberal,no,z,1,0.506824395813,3,622
2019_Oct_29,212,001,4,recog,36,WANTED,HF,lure,-,-,-,conservative,no,m,1,0.666577947688,3,625
2019_Oct_29,212,001,4,recog,37,ACTION,HF,target,left,yellow,imageability,liberal,yes,z,1,0.599888038115,3,628
2019_Oct_29,212,001,4,recog,38,MINISTER,HF,target,right,aqua,pleasantness,liberal,no,z,1,0.573503307165,3,631
2019_Oct_29,212,001,4,recog,39,BUSINESS,HF,lure,-,-,-,liberal,no,m,1,0.680063232436,1,632
2019_Oct_29,212,001,4,recog,40,INNATELY,LF,target,left,yellow,imageability,liberal,no,z,1,0.65345230475,3,635
2019_Oct_29,212,001,4,recog,41,SLIGHTLY,HF,target,right,aqua,pleasantness,liberal,no,z,1,0.559868446619,3,638
2019_Oct_29,212,001,4,recog,42,TERMS,HF,lure,-,-,-,liberal,no,m,1,0.627105700964,1,639
2019_Oct_29,212,001,4,recog,43,DECIDED,HF,target,left,yellow,imageability,liberal,no,z,1,0.69345356588,3,642
2019_Oct_29,212,001,4,recog,44,GLOBULAR,LF,lure,-,-,-,conservative,no,m,1,0.653451571536,3,645
2019_Oct_29,212,001,4,recog,45,THANK,HF,lure,-,-,-,conservative,no,m,1,0.64021228032,3,648
2019_Oct_29,212,001,4,recog,46,BLACK,HF,target,right,aqua,pleasantness,conservative,no,z,1,0.600183157032,1,649
2019_Oct_29,212,001,4,recog,47,PAPER,HF,target,left,yellow,imageability,conservative,no,z,1,0.533206927119,1,650
2019_Oct_29,212,001,4,recog,48,FERRET,LF,target,right,aqua,pleasantness,liberal,no,z,1,0.546941504864,3,653
2019_Oct_29,212,001,4,recog,49,FUSELAGE,LF,target,left,yellow,imageability,liberal,no,z,1,1.02677590099,3,656
2019_Oct_29,212,001,4,recog,50,HOTEL,HF,lure,-,-,-,conservative,no,m,1,0.786475048337,3,659
2019_Oct_29,212,001,4,recog,51,UNSAVOURY,LF,target,right,aqua,pleasantness,liberal,no,z,1,0.706805038944,3,662
2019_Oct_29,212,001,4,recog,52,KETCHUP,LF,target,right,aqua,pleasantness,conservative,no,z,1,0.613440412008,1,663
2019_Oct_29,212,001,4,recog,53,REJOICED,LF,lure,-,-,-,conservative,no,z,0,0.840002654237,-3,660
2019_Oct_29,212,001,4,recog,54,AVAILABLE,HF,lure,-,-,-,conservative,no,m,1,0.746856158673,3,663
2019_Oct_29,212,001,4,recog,55,CYANIDE,LF,lure,-,-,-,liberal,no,m,1,0.693393075667,1,664
2019_Oct_29,212,001,4,recog,56,DUMMIES,LF,target,left,yellow,imageability,liberal,no,z,1,0.587410923579,3,667
2019_Oct_29,212,001,4,recog,57,ECONOMIC,HF,lure,-,-,-,conservative,no,m,1,0.640126127592,3,670
2019_Oct_29,212,001,4,recog,58,FICKLE,LF,target,right,aqua,pleasantness,conservative,no,z,1,0.800296512024,1,671
2019_Oct_29,212,001,4,recog,59,JINGLE,LF,target,right,aqua,pleasantness,conservative,no,z,1,0.68014425266,1,672
2019_Oct_29,212,001,4,recog,60,TABLE,HF,target,right,aqua,pleasantness,conservative,no,z,1,0.506809731519,1,673
2019_Oct_29,212,001,4,recog,61,WRITE,HF,lure,-,-,-,liberal,no,z,0,0.653639641106,-1,672
2019_Oct_29,212,001,4,recog,62,ALREADY,HF,lure,-,-,-,liberal,no,z,0,0.546855352137,-1,671
2019_Oct_29,212,001,4,recog,63,ONCOMING,LF,lure,-,-,-,conservative,no,m,1,0.613418415567,3,674
2019_Oct_29,212,001,4,recog,64,AFTERNOON,HF,target,left,yellow,imageability,conservative,no,m,0,0.986737612521,-1,673
2019_Oct_29,212,001,4,recog,65,VOUCH,LF,lure,-,-,-,liberal,no,m,1,0.747785508304,1,674
2019_Oct_29,212,001,4,recog,66,DEJECTED,LF,lure,-,-,-,liberal,no,m,1,0.63986363673,1,675
2019_Oct_29,212,001,4,recog,67,URCHIN,LF,lure,-,-,-,liberal,no,m,1,0.719996671206,1,676
2019_Oct_29,212,001,4,recog,68,IDOLATRY,LF,lure,-,-,-,liberal,no,m,1,0.653580250716,1,677
2019_Oct_29,212,001,4,recog,69,BRUISING,LF,target,left,yellow,imageability,conservative,no,z,1,0.546826390157,1,678
2019_Oct_29,212,001,4,recog,70,UNION,HF,lure,-,-,-,conservative,no,m,1,0.706502954488,3,681
2019_Oct_29,212,001,4,recog,71,UNCANNILY,LF,lure,-,-,-,liberal,no,z,0,0.733430264317,-1,680
2019_Oct_29,212,001,4,recog,72,PHYSICAL,HF,target,right,aqua,pleasantness,liberal,no,z,1,0.666792412988,3,683
2019_Oct_29,212,001,4,recog,73,UNABATED,LF,lure,-,-,-,conservative,no,m,1,0.653615078414,3,686
2019_Oct_29,212,001,4,recog,74,SAYING,HF,lure,-,-,-,liberal,no,m,1,0.760085551491,1,687
2019_Oct_29,212,001,4,recog,75,PREPARED,HF,target,left,yellow,imageability,liberal,no,m,0,0.720174842377,-3,684
2019_Oct_29,212,001,4,recog,76,NEEDED,HF,lure,-,-,-,liberal,no,z,0,1.0532933438,-1,683
2019_Oct_29,212,001,4,recog,77,BONANZA,LF,target,left,yellow,imageability,liberal,no,z,1,0.959739180867,3,686
2019_Oct_29,212,001,4,recog,78,SEEMED,HF,target,right,aqua,pleasantness,conservative,no,z,1,0.679863798037,1,687
2019_Oct_29,212,001,4,recog,79,ROVERS,LF,lure,-,-,-,liberal,no,m,1,0.599921399384,1,688
2019_Oct_29,212,001,4,recog,80,LOCAL,HF,target,left,yellow,imageability,conservative,no,z,1,0.640099365256,1,689
2019_Oct_29,212,001,4,recog,81,THING,HF,lure,-,-,-,conservative,no,m,1,0.893362720578,3,692
2019_Oct_29,212,001,4,recog,82,FEELING,HF,lure,-,-,-,conservative,no,m,1,0.919985379699,3,695
2019_Oct_29,212,001,4,recog,83,RIGGING,LF,lure,-,-,-,conservative,no,m,1,0.626851275464,3,698
2019_Oct_29,212,001,4,recog,84,RIVER,HF,lure,-,-,-,liberal,no,m,1,0.999962239443,1,699
2019_Oct_29,212,001,4,recog,85,EQUALLED,LF,target,left,yellow,imageability,conservative,yes,z,1,0.520216928901,1,700
2019_Oct_29,212,001,4,recog,86,MYSELF,HF,target,right,aqua,pleasantness,conservative,no,z,1,0.653507295853,1,701
2019_Oct_29,212,001,4,recog,87,SAMENESS,LF,lure,-,-,-,conservative,no,m,1,0.813542035565,3,704
2019_Oct_29,212,001,4,recog,88,OBVIOUSLY,HF,target,left,yellow,imageability,conservative,no,z,1,1.2533073482,1,705
2019_Oct_29,212,001,4,recog,89,FLUFF,LF,target,right,aqua,pleasantness,conservative,no,z,1,0.600114601457,1,706
2019_Oct_29,212,001,4,recog,90,ENZYME,LF,lure,-,-,-,liberal,no,m,1,0.613451043621,1,707
2019_Oct_29,212,001,4,recog,91,ELECTING,LF,lure,-,-,-,conservative,no,m,1,0.693452832665,3,710
2019_Oct_29,212,001,4,recog,92,SITTING,HF,lure,-,-,-,liberal,no,m,1,0.853188787387,1,711
2019_Oct_29,212,001,4,recog,93,OATHS,LF,target,left,yellow,imageability,conservative,no,m,0,0.679877362509,-1,710
2019_Oct_29,212,001,4,recog,94,IRRIGATED,LF,target,right,aqua,pleasantness,liberal,no,z,1,0.720050195878,3,713
2019_Oct_29,212,001,4,recog,95,SNIGGERED,LF,lure,-,-,-,liberal,no,m,1,0.760048524149,1,714
