date,subj,session,cycle,task,trial,item,wf,type,source,colour,encoding,bias,null,response,corr,rt,points,total
2019_Oct_30,213,001,0,source,0,TEXTURES,LF,target,left,aqua,pleasantness,liberal,no,2,1,3.75886871667,-,-
2019_Oct_30,213,001,0,source,1,OFFER,HF,target,left,aqua,pleasantness,liberal,yes,8,0,3.4123594896,-,-
2019_Oct_30,213,001,0,source,2,BEAUTIFUL,HF,target,right,yellow,imageability,conservative,no,8,1,7.15759014625,-,-
2019_Oct_30,213,001,0,source,3,SUBJECT,HF,target,left,aqua,pleasantness,conservative,no,7,0,7.39720148666,-,-
2019_Oct_30,213,001,0,source,4,MORNING,HF,target,right,yellow,imageability,conservative,no,3,0,7.10421763999,-,-
2019_Oct_30,213,001,0,source,5,GATEHOUSE,LF,target,left,aqua,pleasantness,liberal,no,2,1,5.38512039664,-,-
2019_Oct_30,213,001,0,source,6,VELVETY,LF,target,right,yellow,imageability,conservative,no,8,1,4.58521432075,-,-
2019_Oct_30,213,001,0,source,7,AROUND,HF,target,left,aqua,pleasantness,liberal,yes,3,1,5.22495411943,-,-
2019_Oct_30,213,001,0,source,8,NOSTRIL,LF,target,right,yellow,imageability,conservative,no,8,1,5.19830562658,-,-
2019_Oct_30,213,001,0,source,9,FASCINATE,LF,target,right,yellow,imageability,liberal,no,9,1,3.89220063247,-,-
2019_Oct_30,213,001,0,source,10,SAYING,HF,target,left,aqua,pleasantness,conservative,yes,3,1,3.3588583051,-,-
2019_Oct_30,213,001,0,source,11,DAWDLING,LF,target,right,yellow,imageability,liberal,no,3,0,3.78528111612,-,-
2019_Oct_30,213,001,0,source,12,TOXICITY,LF,target,left,aqua,pleasantness,liberal,no,1,1,2.90559783322,-,-
2019_Oct_30,213,001,0,source,13,THYROID,LF,target,left,aqua,pleasantness,conservative,no,1,1,1.67953730092,-,-
2019_Oct_30,213,001,0,source,14,TALKING,HF,target,right,yellow,imageability,conservative,no,9,1,2.83924385589,-,-
2019_Oct_30,213,001,0,source,15,GOUGED,LF,target,left,aqua,pleasantness,conservative,no,1,1,2.94562629641,-,-
2019_Oct_30,213,001,0,source,16,WHATEVER,HF,target,right,yellow,imageability,conservative,no,8,1,2.39947993463,-,-
2019_Oct_30,213,001,0,source,17,TAPER,LF,target,right,yellow,imageability,conservative,yes,7,1,2.42615042376,-,-
2019_Oct_30,213,001,0,source,18,UNNAMED,LF,target,left,aqua,pleasantness,conservative,no,7,0,5.59821925452,-,-
2019_Oct_30,213,001,0,source,19,CAUGHT,HF,target,left,aqua,pleasantness,liberal,no,2,1,2.89232051219,-,-
2019_Oct_30,213,001,0,source,20,PICTURE,HF,target,left,aqua,pleasantness,conservative,no,8,0,6.61113766958,-,-
2019_Oct_30,213,001,0,source,21,HOWEVER,HF,target,left,aqua,pleasantness,liberal,no,2,1,1.85278036641,-,-
2019_Oct_30,213,001,0,source,22,AFTERNOON,HF,target,left,aqua,pleasantness,conservative,no,8,0,3.4257445924,-,-
2019_Oct_30,213,001,0,source,23,OBNOXIOUS,LF,target,right,yellow,imageability,conservative,no,9,1,1.43958171875,-,-
2019_Oct_30,213,001,0,source,24,TOTAL,HF,target,right,yellow,imageability,liberal,no,7,1,2.05282553211,-,-
2019_Oct_30,213,001,0,source,25,CORNER,HF,target,right,yellow,imageability,liberal,no,9,1,3.7854134604,-,-
2019_Oct_30,213,001,0,source,26,NEURAL,LF,target,left,aqua,pleasantness,liberal,no,1,1,2.09265529557,-,-
2019_Oct_30,213,001,0,source,27,RUFFLES,LF,target,left,aqua,pleasantness,conservative,no,1,1,2.69264635041,-,-
2019_Oct_30,213,001,0,source,28,SEDAN,LF,target,right,yellow,imageability,conservative,no,3,0,2.38613735797,-,-
2019_Oct_30,213,001,0,source,29,ARPEGGIO,LF,target,left,aqua,pleasantness,liberal,no,3,1,2.47925934127,-,-
2019_Oct_30,213,001,0,source,30,COUNCIL,HF,target,right,yellow,imageability,liberal,no,9,1,3.13221853744,-,-
2019_Oct_30,213,001,0,source,31,THWART,LF,target,right,yellow,imageability,liberal,no,3,0,4.3186560713,-,-
2019_Oct_30,213,001,0,source,32,EXCEPT,HF,target,right,yellow,imageability,liberal,no,7,1,1.61301615187,-,-
2019_Oct_30,213,001,0,source,33,BECAME,HF,target,right,yellow,imageability,conservative,no,8,1,2.05297217397,-,-
2019_Oct_30,213,001,0,source,34,CHOICE,HF,target,left,aqua,pleasantness,conservative,no,8,0,2.94563582813,-,-
2019_Oct_30,213,001,0,source,35,FEUDALISM,LF,target,right,yellow,imageability,conservative,no,8,1,1.60012999801,-,-
2019_Oct_30,213,001,0,source,36,BULBOUS,LF,target,right,yellow,imageability,liberal,no,3,0,2.30585460312,-,-
2019_Oct_30,213,001,0,source,37,UMPIRE,LF,target,right,yellow,imageability,liberal,no,8,1,3.47872849772,-,-
2019_Oct_30,213,001,0,source,38,INVOLVED,HF,target,left,aqua,pleasantness,liberal,no,8,0,4.5183397648,-,-
2019_Oct_30,213,001,0,source,39,FILAMENTS,LF,target,left,aqua,pleasantness,conservative,no,2,1,1.42694338964,-,-
2019_Oct_30,213,001,0,source,40,CHURCH,HF,target,left,aqua,pleasantness,liberal,no,1,1,1.26628842842,-,-
2019_Oct_30,213,001,0,source,41,GUMMED,LF,target,left,aqua,pleasantness,liberal,no,2,1,3.47877872256,-,-
2019_Oct_30,213,001,0,source,42,SOCIAL,HF,target,right,yellow,imageability,liberal,no,8,1,1.98627102203,-,-
2019_Oct_30,213,001,0,source,43,AFIELD,LF,target,right,yellow,imageability,liberal,no,3,0,3.23909479443,-,-
2019_Oct_30,213,001,0,source,44,PLEASE,HF,target,right,yellow,imageability,liberal,no,3,0,2.81261039383,-,-
2019_Oct_30,213,001,0,source,45,MEETING,HF,target,left,aqua,pleasantness,conservative,no,7,0,2.38612269378,-,-
2019_Oct_30,213,001,0,source,46,NESTING,LF,target,left,aqua,pleasantness,conservative,no,3,1,2.30587329996,-,-
2019_Oct_30,213,001,0,source,47,HANDS,HF,target,right,yellow,imageability,conservative,no,3,0,1.79939282936,-,-
2019_Oct_30,213,001,0,recog,0,PLACE,HF,lure,-,-,-,conservative,no,m,1,6.70439676303,3,3
2019_Oct_30,213,001,0,recog,1,UNION,HF,lure,-,-,-,conservative,no,None,-1,-1,-3,0
2019_Oct_30,213,001,0,recog,2,ROLLERS,LF,lure,-,-,-,liberal,no,m,1,3.46565097623,1,1
2019_Oct_30,213,001,0,recog,3,CAUGHT,HF,target,left,aqua,pleasantness,liberal,no,z,1,2.45271753038,3,4
2019_Oct_30,213,001,0,recog,4,UNKEMPT,LF,lure,-,-,-,conservative,no,m,1,2.42609543306,3,7
2019_Oct_30,213,001,0,recog,5,HANDS,HF,target,right,yellow,imageability,conservative,no,z,1,1.18674034932,1,8
2019_Oct_30,213,001,0,recog,6,PLEASE,HF,target,right,yellow,imageability,liberal,no,z,1,1.35985876922,3,11
2019_Oct_30,213,001,0,recog,7,ALREADY,HF,lure,-,-,-,conservative,no,m,1,2.09261423585,3,14
2019_Oct_30,213,001,0,recog,8,VAULTED,LF,lure,-,-,-,liberal,no,m,1,1.75968221242,1,15
2019_Oct_30,213,001,0,recog,9,NEURAL,LF,target,left,aqua,pleasantness,liberal,no,z,1,1.7864040262,3,18
2019_Oct_30,213,001,0,recog,10,SCOFFED,LF,lure,-,-,-,conservative,no,m,1,1.33317471572,3,21
2019_Oct_30,213,001,0,recog,11,CORNER,HF,target,right,yellow,imageability,liberal,no,z,1,0.960083351236,3,24
2019_Oct_30,213,001,0,recog,12,BECAME,HF,target,right,yellow,imageability,conservative,no,m,0,0.946822894021,-1,23
2019_Oct_30,213,001,0,recog,13,THYROID,LF,target,left,aqua,pleasantness,conservative,no,z,1,1.63974456454,1,24
2019_Oct_30,213,001,0,recog,14,SIGNPOST,LF,lure,-,-,-,conservative,no,m,1,2.83924275608,3,27
2019_Oct_30,213,001,0,recog,15,UNCANNILY,LF,lure,-,-,-,conservative,no,m,1,1.34655211982,3,30
2019_Oct_30,213,001,0,recog,16,CIRCUSES,LF,lure,-,-,-,liberal,no,m,1,1.3198904292,1,31
2019_Oct_30,213,001,0,recog,17,SARDINES,LF,lure,-,-,-,conservative,no,m,1,1.67984084958,3,34
2019_Oct_30,213,001,0,recog,18,BULBOUS,LF,target,right,yellow,imageability,liberal,no,z,1,1.30655921728,3,37
2019_Oct_30,213,001,0,recog,19,AVIDLY,LF,lure,-,-,-,conservative,no,m,1,2.1993695133,3,40
2019_Oct_30,213,001,0,recog,20,ARPEGGIO,LF,target,left,aqua,pleasantness,liberal,no,z,1,1.27983117122,3,43
2019_Oct_30,213,001,0,recog,21,CARRIED,HF,lure,-,-,-,liberal,yes,z,0,2.11953914861,-1,42
2019_Oct_30,213,001,0,recog,22,CUPID,LF,lure,-,-,-,liberal,no,m,1,2.77261455846,1,43
2019_Oct_30,213,001,0,recog,23,ALMOST,HF,lure,-,-,-,conservative,no,z,0,2.23928286263,-3,40
2019_Oct_30,213,001,0,recog,24,DORMS,LF,lure,-,-,-,conservative,no,m,1,1.74636089883,3,43
2019_Oct_30,213,001,0,recog,25,MEETING,HF,target,left,aqua,pleasantness,conservative,no,z,1,1.67952007051,1,44
2019_Oct_30,213,001,0,recog,26,TAILED,LF,lure,-,-,-,conservative,yes,m,1,1.69307344484,3,47
2019_Oct_30,213,001,0,recog,27,VELVETY,LF,target,right,yellow,imageability,conservative,no,m,0,3.27906093483,-1,46
2019_Oct_30,213,001,0,recog,28,UNNAMED,LF,target,left,aqua,pleasantness,conservative,no,z,1,1.78635233494,1,47
2019_Oct_30,213,001,0,recog,29,TALKING,HF,target,right,yellow,imageability,conservative,no,z,1,2.05288162262,1,48
2019_Oct_30,213,001,0,recog,30,GUMMED,LF,target,left,aqua,pleasantness,liberal,no,z,1,1.07993851307,3,51
2019_Oct_30,213,001,0,recog,31,ACTION,HF,lure,-,-,-,liberal,no,m,1,1.0933107847,1,52
2019_Oct_30,213,001,0,recog,32,COUNCIL,HF,target,right,yellow,imageability,liberal,no,z,1,1.27985170108,3,55
2019_Oct_30,213,001,0,recog,33,EASILY,HF,lure,-,-,-,liberal,no,z,0,2.43939438376,-1,54
2019_Oct_30,213,001,0,recog,34,AROUND,HF,target,left,aqua,pleasantness,liberal,no,z,1,1.25321530618,3,57
2019_Oct_30,213,001,0,recog,35,MORNING,HF,target,right,yellow,imageability,conservative,no,m,0,1.4797729544,-1,56
2019_Oct_30,213,001,0,recog,36,TWENTY,HF,lure,-,-,-,conservative,no,z,0,2.91923992589,-3,53
2019_Oct_30,213,001,0,recog,37,HOWEVER,HF,target,left,aqua,pleasantness,liberal,no,z,1,2.38587303601,3,56
2019_Oct_30,213,001,0,recog,38,FOUND,HF,lure,-,-,-,conservative,no,m,1,1.50643391181,3,59
2019_Oct_30,213,001,0,recog,39,TAKEN,HF,lure,-,-,-,liberal,no,m,1,1.59952729995,1,60
2019_Oct_30,213,001,0,recog,40,SUBJECT,HF,target,left,aqua,pleasantness,conservative,no,z,1,2.2394463683,1,61
2019_Oct_30,213,001,0,recog,41,TAPER,LF,target,right,yellow,imageability,conservative,no,m,0,1.21330012384,-1,60
2019_Oct_30,213,001,0,recog,42,RESEARCH,HF,lure,-,-,-,conservative,no,m,1,1.66638059283,3,63
2019_Oct_30,213,001,0,recog,43,WOMAN,HF,lure,-,-,-,liberal,no,m,1,2.94563032906,1,64
2019_Oct_30,213,001,0,recog,44,TEXTURES,LF,target,left,aqua,pleasantness,liberal,no,z,1,1.21322313686,3,67
2019_Oct_30,213,001,0,recog,45,TOXICITY,LF,target,left,aqua,pleasantness,liberal,no,z,1,2.06620843528,3,70
2019_Oct_30,213,001,0,recog,46,SHEARING,LF,lure,-,-,-,conservative,no,m,1,1.19990915536,3,73
2019_Oct_30,213,001,0,recog,47,BLUECOATS,LF,lure,-,-,-,liberal,no,m,1,2.54587800717,1,74
2019_Oct_30,213,001,0,recog,48,UNTIL,HF,lure,-,-,-,liberal,no,m,1,3.49237645606,1,75
2019_Oct_30,213,001,0,recog,49,THANK,HF,lure,-,-,-,liberal,no,m,1,2.22616354821,1,76
2019_Oct_30,213,001,0,recog,50,UMPIRE,LF,target,right,yellow,imageability,liberal,no,z,1,1.22654994952,3,79
2019_Oct_30,213,001,0,recog,51,AFTERNOON,HF,target,left,aqua,pleasantness,conservative,no,z,1,1.29321774044,1,80
2019_Oct_30,213,001,0,recog,52,DAWDLING,LF,target,right,yellow,imageability,liberal,no,z,1,3.45215112617,3,83
2019_Oct_30,213,001,0,recog,53,SYNDICATE,LF,lure,-,-,-,liberal,no,m,1,1.97291964686,1,84
2019_Oct_30,213,001,0,recog,54,AFIELD,LF,target,right,yellow,imageability,liberal,no,z,1,1.25350858991,3,87
2019_Oct_30,213,001,0,recog,55,MOTHER,HF,lure,-,-,-,conservative,no,m,1,2.33313365599,3,90
2019_Oct_30,213,001,0,recog,56,THWART,LF,target,right,yellow,imageability,liberal,no,z,1,1.23989472581,3,93
2019_Oct_30,213,001,0,recog,57,PICTURE,HF,target,left,aqua,pleasantness,conservative,no,m,0,2.5061263305,-1,92
2019_Oct_30,213,001,0,recog,58,FEUDALISM,LF,target,right,yellow,imageability,conservative,no,z,1,1.57312223259,1,93
2019_Oct_30,213,001,0,recog,59,BEAUTIFUL,HF,target,right,yellow,imageability,conservative,no,z,1,1.07999387037,1,94
2019_Oct_30,213,001,0,recog,60,BOOKS,HF,lure,-,-,-,liberal,no,m,1,1.0397465442,1,95
2019_Oct_30,213,001,0,recog,61,BREAK,HF,lure,-,-,-,conservative,no,m,1,1.51975999126,3,98
2019_Oct_30,213,001,0,recog,62,TOTAL,HF,target,right,yellow,imageability,liberal,no,z,1,2.90594500783,3,101
2019_Oct_30,213,001,0,recog,63,CHURCH,HF,target,left,aqua,pleasantness,liberal,no,z,1,1.33310799367,3,104
2019_Oct_30,213,001,0,recog,64,OBNOXIOUS,LF,target,right,yellow,imageability,conservative,no,z,1,1.43979508266,1,105
2019_Oct_30,213,001,0,recog,65,WHATEVER,HF,target,right,yellow,imageability,conservative,no,z,1,1.65306771115,1,106
2019_Oct_30,213,001,0,recog,66,PAPER,HF,lure,-,-,-,liberal,yes,z,0,2.93255647362,-1,105
2019_Oct_30,213,001,0,recog,67,ANSWER,HF,lure,-,-,-,liberal,no,z,0,3.18577067999,-1,104
2019_Oct_30,213,001,0,recog,68,SYMBOLIZE,LF,lure,-,-,-,liberal,no,m,1,2.77258376367,1,105
2019_Oct_30,213,001,0,recog,69,AGGRAVATE,LF,lure,-,-,-,liberal,no,m,1,1.41317628478,1,106
2019_Oct_30,213,001,0,recog,70,SAYING,HF,target,left,aqua,pleasantness,conservative,no,m,0,1.25332455437,-1,105
2019_Oct_30,213,001,0,recog,71,SEDAN,LF,target,right,yellow,imageability,conservative,no,z,1,1.26659051066,1,106
2019_Oct_30,213,001,0,recog,72,INVOLVED,HF,target,left,aqua,pleasantness,liberal,no,z,1,0.920026659491,3,109
2019_Oct_30,213,001,0,recog,73,FILAMENTS,LF,target,left,aqua,pleasantness,conservative,no,z,1,1.89295693788,1,110
2019_Oct_30,213,001,0,recog,74,PRIVATE,HF,lure,-,-,-,liberal,no,m,1,1.15998847395,1,111
2019_Oct_30,213,001,0,recog,75,JADED,LF,lure,-,-,-,conservative,no,m,1,1.2533340861,3,114
2019_Oct_30,213,001,0,recog,76,OFFER,HF,target,left,aqua,pleasantness,liberal,no,m,0,1.51980508363,-3,111
2019_Oct_30,213,001,0,recog,77,SUDDENLY,HF,lure,-,-,-,conservative,no,m,1,1.75973317046,3,114
2019_Oct_30,213,001,0,recog,78,NOSTRIL,LF,target,right,yellow,imageability,conservative,no,z,1,1.43987500247,1,115
2019_Oct_30,213,001,0,recog,79,EXCEPT,HF,target,right,yellow,imageability,liberal,no,z,1,1.29293728787,3,118
2019_Oct_30,213,001,0,recog,80,EXECUTING,LF,lure,-,-,-,liberal,no,m,1,1.39954702328,1,119
2019_Oct_30,213,001,0,recog,81,CENTRAL,HF,lure,-,-,-,conservative,no,m,1,1.70613190289,3,122
2019_Oct_30,213,001,0,recog,82,JUNCTURE,LF,lure,-,-,-,liberal,no,m,1,2.97251931457,1,123
2019_Oct_30,213,001,0,recog,83,TRYING,HF,lure,-,-,-,liberal,no,m,1,1.69303495136,1,124
2019_Oct_30,213,001,0,recog,84,GOUGED,LF,target,left,aqua,pleasantness,conservative,no,z,1,0.879855953696,1,125
2019_Oct_30,213,001,0,recog,85,RUFFLES,LF,target,left,aqua,pleasantness,conservative,no,z,1,0.653408286878,1,126
2019_Oct_30,213,001,0,recog,86,FASCINATE,LF,target,right,yellow,imageability,liberal,no,z,1,0.906659153715,3,129
2019_Oct_30,213,001,0,recog,87,CHOICE,HF,target,left,aqua,pleasantness,conservative,no,m,0,1.63973649923,-1,128
2019_Oct_30,213,001,0,recog,88,BETTER,HF,lure,-,-,-,conservative,no,m,1,1.85295047098,3,131
2019_Oct_30,213,001,0,recog,89,HURDLES,LF,lure,-,-,-,conservative,yes,z,0,1.87981342756,-3,128
2019_Oct_30,213,001,0,recog,90,GATEHOUSE,LF,target,left,aqua,pleasantness,liberal,no,z,1,3.89215480688,3,131
2019_Oct_30,213,001,0,recog,91,SOCIAL,HF,target,right,yellow,imageability,liberal,no,z,1,1.69313356801,3,134
2019_Oct_30,213,001,0,recog,92,OVENS,LF,lure,-,-,-,conservative,no,m,1,2.5192911039,3,137
2019_Oct_30,213,001,0,recog,93,ENGULF,LF,lure,-,-,-,liberal,no,m,1,3.83857040313,1,138
2019_Oct_30,213,001,0,recog,94,NESTING,LF,target,left,aqua,pleasantness,conservative,no,z,1,2.78593513884,1,139
2019_Oct_30,213,001,0,recog,95,KNUCKLE,LF,lure,-,-,-,liberal,no,m,1,2.66594726612,1,140
2019_Oct_30,213,001,1,source,0,RATHER,HF,target,right,yellow,imageability,liberal,no,3,0,5.97110458718,-,-
2019_Oct_30,213,001,1,source,1,ULCER,LF,target,right,yellow,imageability,conservative,no,8,1,4.57195642977,-,-
2019_Oct_30,213,001,1,source,2,BEFALL,LF,target,right,yellow,imageability,conservative,no,2,0,3.21247379693,-,-
2019_Oct_30,213,001,1,source,3,BLACK,HF,target,right,yellow,imageability,conservative,no,8,1,2.45285170768,-,-
2019_Oct_30,213,001,1,source,4,EIDERDOWN,LF,target,right,yellow,imageability,conservative,no,7,1,1.99961139906,-,-
2019_Oct_30,213,001,1,source,5,DEEPEN,LF,target,left,aqua,pleasantness,liberal,no,1,1,1.61280718721,-,-
2019_Oct_30,213,001,1,source,6,FORCE,HF,target,left,aqua,pleasantness,conservative,no,1,1,1.19991795388,-,-
2019_Oct_30,213,001,1,source,7,ATTACK,HF,target,left,aqua,pleasantness,conservative,no,2,1,1.46640984788,-,-
2019_Oct_30,213,001,1,source,8,BALDING,LF,target,right,yellow,imageability,conservative,no,9,1,2.45283447726,-,-
2019_Oct_30,213,001,1,source,9,LULLED,LF,target,right,yellow,imageability,liberal,no,8,1,1.31984680324,-,-
2019_Oct_30,213,001,1,source,10,MINISTER,HF,target,left,aqua,pleasantness,liberal,yes,7,0,1.38684160552,-,-
2019_Oct_30,213,001,1,source,11,UPKEEP,LF,target,left,aqua,pleasantness,conservative,no,8,0,2.17282476957,-,-
2019_Oct_30,213,001,1,source,12,NEITHER,HF,target,left,aqua,pleasantness,conservative,yes,7,0,2.67929900789,-,-
2019_Oct_30,213,001,1,source,13,FRIEND,HF,target,right,yellow,imageability,liberal,no,8,1,2.91934807426,-,-
2019_Oct_30,213,001,1,source,14,TODAY,HF,target,right,yellow,imageability,conservative,no,8,1,1.63972330147,-,-
2019_Oct_30,213,001,1,source,15,OUGHT,HF,target,left,aqua,pleasantness,liberal,no,3,1,2.13291948555,-,-
2019_Oct_30,213,001,1,source,16,GARDEN,HF,target,right,yellow,imageability,liberal,no,9,1,1.85297943275,-,-
2019_Oct_30,213,001,1,source,17,PENALIZED,LF,target,left,aqua,pleasantness,conservative,no,2,1,2.93254327585,-,-
2019_Oct_30,213,001,1,source,18,IDOLATRY,LF,target,right,yellow,imageability,liberal,no,2,0,3.21242687154,-,-
2019_Oct_30,213,001,1,source,19,ARRIVED,HF,target,left,aqua,pleasantness,conservative,no,2,1,2.42607710283,-,-
2019_Oct_30,213,001,1,source,20,NORTH,HF,target,right,yellow,imageability,conservative,no,9,1,1.3598730668,-,-
2019_Oct_30,213,001,1,source,21,LOCAL,HF,target,left,aqua,pleasantness,liberal,no,1,1,3.73226971545,-,-
2019_Oct_30,213,001,1,source,22,PROBABLY,HF,target,right,yellow,imageability,conservative,no,3,0,2.5193303306,-,-
2019_Oct_30,213,001,1,source,23,OFTEN,HF,target,left,aqua,pleasantness,conservative,no,2,1,1.31985376873,-,-
2019_Oct_30,213,001,1,source,24,POUNDS,HF,target,right,yellow,imageability,conservative,no,8,1,1.15987592632,-,-
2019_Oct_30,213,001,1,source,25,HIGHER,HF,target,left,aqua,pleasantness,conservative,no,1,1,1.14659677227,-,-
2019_Oct_30,213,001,1,source,26,GALACTIC,LF,target,left,aqua,pleasantness,liberal,no,1,1,0.946436126103,-,-
2019_Oct_30,213,001,1,source,27,BONANZA,LF,target,left,aqua,pleasantness,liberal,no,7,0,2.19923900204,-,-
2019_Oct_30,213,001,1,source,28,FINAL,HF,target,right,yellow,imageability,liberal,yes,3,0,1.27987919643,-,-
2019_Oct_30,213,001,1,source,29,HIMSELF,HF,target,left,aqua,pleasantness,liberal,no,1,1,2.37455338387,-,-
2019_Oct_30,213,001,1,source,30,SWIFTNESS,LF,target,left,aqua,pleasantness,liberal,no,1,1,1.14656744389,-,-
2019_Oct_30,213,001,1,source,31,SAPLINGS,LF,target,right,yellow,imageability,liberal,no,7,1,1.19988385964,-,-
2019_Oct_30,213,001,1,source,32,CLEAR,HF,target,right,yellow,imageability,liberal,yes,7,1,0.640083673848,-,-
2019_Oct_30,213,001,1,source,33,WALKED,HF,target,left,aqua,pleasantness,liberal,no,2,1,3.01227978974,-,-
2019_Oct_30,213,001,1,source,34,ESPECIAL,LF,target,right,yellow,imageability,liberal,no,7,1,1.26654431847,-,-
2019_Oct_30,213,001,1,source,35,ANGERS,LF,target,left,aqua,pleasantness,conservative,no,1,1,1.66636702846,-,-
2019_Oct_30,213,001,1,source,36,ACQUIRES,LF,target,left,aqua,pleasantness,liberal,no,7,0,1.57285827724,-,-
2019_Oct_30,213,001,1,source,37,VEGAN,LF,target,right,yellow,imageability,liberal,no,9,1,1.31964187124,-,-
2019_Oct_30,213,001,1,source,38,WHITE,HF,target,right,yellow,imageability,conservative,no,9,1,1.5330776388,-,-
2019_Oct_30,213,001,1,source,39,TOYED,LF,target,left,aqua,pleasantness,conservative,no,1,1,1.75966241576,-,-
2019_Oct_30,213,001,1,source,40,MOUTH,HF,target,left,aqua,pleasantness,liberal,no,3,1,3.06582240057,-,-
2019_Oct_30,213,001,1,source,41,YELLOWED,LF,target,right,yellow,imageability,conservative,no,8,1,2.26619897688,-,-
2019_Oct_30,213,001,1,source,42,TURNED,HF,target,right,yellow,imageability,liberal,no,2,0,2.51940658437,-,-
2019_Oct_30,213,001,1,source,43,SOLEMNITY,LF,target,right,yellow,imageability,liberal,no,7,1,2.65245914741,-,-
2019_Oct_30,213,001,1,source,44,PUCKERED,LF,target,right,yellow,imageability,conservative,no,8,1,1.59968603977,-,-
2019_Oct_30,213,001,1,source,45,AIRBED,LF,target,left,aqua,pleasantness,conservative,no,3,1,5.91803489636,-,-
2019_Oct_30,213,001,1,source,46,TUSKS,LF,target,left,aqua,pleasantness,liberal,no,7,0,1.21307246234,-,-
2019_Oct_30,213,001,1,source,47,PEDALLING,LF,target,left,aqua,pleasantness,conservative,no,2,1,4.11846389714,-,-
2019_Oct_30,213,001,1,recog,0,MODERN,HF,lure,-,-,-,liberal,no,m,1,5.09164053386,1,141
2019_Oct_30,213,001,1,recog,1,SEGMENTED,LF,lure,-,-,-,liberal,no,m,1,6.82410784923,1,142
2019_Oct_30,213,001,1,recog,2,REVERE,LF,lure,-,-,-,conservative,no,m,1,1.44033692435,3,145
2019_Oct_30,213,001,1,recog,3,SAPLINGS,LF,target,right,yellow,imageability,liberal,no,z,1,1.03996760681,3,148
2019_Oct_30,213,001,1,recog,4,NORTH,HF,target,right,yellow,imageability,conservative,no,z,1,1.18663989964,1,149
2019_Oct_30,213,001,1,recog,5,ACQUIRES,LF,target,left,aqua,pleasantness,liberal,yes,z,1,1.81296783337,3,152
2019_Oct_30,213,001,1,recog,6,BUILDING,HF,lure,-,-,-,liberal,no,m,1,1.5331007349,1,153
2019_Oct_30,213,001,1,recog,7,ZEALOTS,LF,lure,-,-,-,liberal,no,m,1,1.87967411778,1,154
2019_Oct_30,213,001,1,recog,8,ITSELF,HF,lure,-,-,-,liberal,no,m,1,1.21318354356,1,155
2019_Oct_30,213,001,1,recog,9,UNDER,HF,lure,-,-,-,conservative,no,m,1,2.33252582547,3,158
2019_Oct_30,213,001,1,recog,10,AIRBED,LF,target,left,aqua,pleasantness,conservative,no,z,1,1.10653788089,1,159
2019_Oct_30,213,001,1,recog,11,CLEAR,HF,target,right,yellow,imageability,liberal,no,z,1,2.30612479076,3,162
2019_Oct_30,213,001,1,recog,12,SOVIET,HF,lure,-,-,-,liberal,no,m,1,1.23989032655,1,163
2019_Oct_30,213,001,1,recog,13,PENALIZED,LF,target,left,aqua,pleasantness,conservative,no,z,1,1.14659713887,1,164
2019_Oct_30,213,001,1,recog,14,NEITHER,HF,target,left,aqua,pleasantness,conservative,no,z,1,1.1999043895,1,165
2019_Oct_30,213,001,1,recog,15,COOING,LF,lure,-,-,-,conservative,no,m,1,1.59973003233,3,168
2019_Oct_30,213,001,1,recog,16,MOCCASINS,LF,lure,-,-,-,liberal,no,m,1,1.70631850466,1,169
2019_Oct_30,213,001,1,recog,17,SWIFTNESS,LF,target,left,aqua,pleasantness,liberal,no,z,1,1.17302126967,3,172
2019_Oct_30,213,001,1,recog,18,ALONE,HF,lure,-,-,-,liberal,no,m,1,2.06626232617,1,173
2019_Oct_30,213,001,1,recog,19,JAILS,LF,lure,-,-,-,liberal,no,m,1,2.7325963602,1,174
2019_Oct_30,213,001,1,recog,20,NIGHT,HF,lure,-,-,-,conservative,no,m,1,1.65343284939,3,177
2019_Oct_30,213,001,1,recog,21,GLUTINOUS,LF,lure,-,-,-,conservative,no,m,1,1.31990436018,3,180
2019_Oct_30,213,001,1,recog,22,WALKED,HF,target,left,aqua,pleasantness,liberal,no,z,1,1.26680314136,3,183
2019_Oct_30,213,001,1,recog,23,DEEPEN,LF,target,left,aqua,pleasantness,liberal,no,z,1,0.879905078721,3,186
2019_Oct_30,213,001,1,recog,24,UPKEEP,LF,target,left,aqua,pleasantness,conservative,no,z,1,1.21305193248,1,187
2019_Oct_30,213,001,1,recog,25,URBANE,LF,lure,-,-,-,conservative,no,m,1,0.973297616263,3,190
2019_Oct_30,213,001,1,recog,26,POUNDS,HF,target,right,yellow,imageability,conservative,no,z,1,0.920095214562,1,191
2019_Oct_30,213,001,1,recog,27,DIZZINESS,LF,lure,-,-,-,conservative,no,m,1,1.43979618247,3,194
2019_Oct_30,213,001,1,recog,28,MOUTH,HF,target,left,aqua,pleasantness,liberal,no,z,1,0.840117841402,3,197
2019_Oct_30,213,001,1,recog,29,ASKED,HF,lure,-,-,-,conservative,no,m,1,3.38567946875,3,200
2019_Oct_30,213,001,1,recog,30,RATHER,HF,target,right,yellow,imageability,liberal,no,m,0,2.58604211408,-3,197
2019_Oct_30,213,001,1,recog,31,IDOLATRY,LF,target,right,yellow,imageability,liberal,yes,m,0,1.41312789297,-3,194
2019_Oct_30,213,001,1,recog,32,PREPARED,HF,lure,-,-,-,conservative,no,m,1,4.39843621116,3,197
2019_Oct_30,213,001,1,recog,33,OLDER,HF,lure,-,-,-,conservative,no,z,0,2.54605287759,-3,194
2019_Oct_30,213,001,1,recog,34,BONANZA,LF,target,left,aqua,pleasantness,liberal,no,z,1,1.10673144815,3,197
2019_Oct_30,213,001,1,recog,35,PIPELINES,LF,lure,-,-,-,liberal,no,m,1,2.62604674796,1,198
2019_Oct_30,213,001,1,recog,36,SCHOOL,HF,lure,-,-,-,liberal,no,m,1,2.93252787845,1,199
2019_Oct_30,213,001,1,recog,37,VOUCH,LF,lure,-,-,-,conservative,no,m,1,0.91999989735,3,202
2019_Oct_30,213,001,1,recog,38,PUCKERED,LF,target,right,yellow,imageability,conservative,no,z,1,1.8662901148,1,203
2019_Oct_30,213,001,1,recog,39,WESTERN,HF,lure,-,-,-,conservative,no,m,1,1.37316651844,3,206
2019_Oct_30,213,001,1,recog,40,SOLEMNITY,LF,target,right,yellow,imageability,liberal,no,z,1,1.89292394346,3,209
2019_Oct_30,213,001,1,recog,41,ENOUGH,HF,lure,-,-,-,conservative,no,m,1,1.82634047161,3,212
2019_Oct_30,213,001,1,recog,42,FINAL,HF,target,right,yellow,imageability,liberal,no,z,1,0.986659256364,3,215
2019_Oct_30,213,001,1,recog,43,EIDERDOWN,LF,target,right,yellow,imageability,conservative,no,z,1,1.23990682376,1,216
2019_Oct_30,213,001,1,recog,44,HAUNCHES,LF,lure,-,-,-,liberal,no,m,1,2.30587513299,1,217
2019_Oct_30,213,001,1,recog,45,LUCERNE,LF,lure,-,-,-,liberal,yes,z,0,1.41317408516,-1,216
2019_Oct_30,213,001,1,recog,46,HIMSELF,HF,target,left,aqua,pleasantness,liberal,no,z,1,1.25323730246,3,219
2019_Oct_30,213,001,1,recog,47,TURNED,HF,target,right,yellow,imageability,liberal,no,z,1,1.33317434911,3,222
2019_Oct_30,213,001,1,recog,48,TRADE,HF,lure,-,-,-,conservative,no,m,1,1.10636850954,3,225
2019_Oct_30,213,001,1,recog,49,SOJOURN,LF,lure,-,-,-,liberal,no,m,1,1.99990798223,1,226
2019_Oct_30,213,001,1,recog,50,TUSKS,LF,target,left,aqua,pleasantness,liberal,no,z,1,1.6131605941,3,229
2019_Oct_30,213,001,1,recog,51,FLOOR,HF,lure,-,-,-,liberal,no,z,0,2.30613432248,-1,228
2019_Oct_30,213,001,1,recog,52,EVENING,HF,lure,-,-,-,liberal,no,m,1,1.78637139838,1,229
2019_Oct_30,213,001,1,recog,53,LOCAL,HF,target,left,aqua,pleasantness,liberal,no,z,1,0.853534472203,3,232
2019_Oct_30,213,001,1,recog,54,ULCER,LF,target,right,yellow,imageability,conservative,no,z,1,1.03997163946,1,233
2019_Oct_30,213,001,1,recog,55,SIMILAR,HF,lure,-,-,-,conservative,no,m,1,1.10658407308,3,236
2019_Oct_30,213,001,1,recog,56,CEASELESS,LF,lure,-,-,-,conservative,no,z,0,1.99957437199,-3,233
2019_Oct_30,213,001,1,recog,57,FRIEND,HF,target,right,yellow,imageability,liberal,no,z,1,1.13300453783,3,236
2019_Oct_30,213,001,1,recog,58,INUNDATED,LF,lure,-,-,-,liberal,no,m,1,2.05291205081,1,237
2019_Oct_30,213,001,1,recog,59,TODAY,HF,target,right,yellow,imageability,conservative,no,z,1,1.98626588956,1,238
2019_Oct_30,213,001,1,recog,60,HADJI,LF,lure,-,-,-,conservative,no,m,1,1.06669088701,3,241
2019_Oct_30,213,001,1,recog,61,ATHEIST,LF,lure,-,-,-,conservative,no,m,1,1.22654921631,3,244
2019_Oct_30,213,001,1,recog,62,LULLED,LF,target,right,yellow,imageability,liberal,no,z,1,1.47978651877,3,247
2019_Oct_30,213,001,1,recog,63,WHITE,HF,target,right,yellow,imageability,conservative,no,m,0,1.39996678562,-1,246
2019_Oct_30,213,001,1,recog,64,GARDEN,HF,target,right,yellow,imageability,liberal,no,z,1,1.47980301598,3,249
2019_Oct_30,213,001,1,recog,65,HIGHER,HF,target,left,aqua,pleasantness,conservative,no,z,1,1.5062832373,1,250
2019_Oct_30,213,001,1,recog,66,CRYPT,LF,lure,-,-,-,liberal,no,m,1,0.853368400291,1,251
2019_Oct_30,213,001,1,recog,67,BALDING,LF,target,right,yellow,imageability,conservative,no,z,1,1.11990318704,1,252
2019_Oct_30,213,001,1,recog,68,QUICKLY,HF,lure,-,-,-,liberal,no,z,0,4.01210052007,-1,251
2019_Oct_30,213,001,1,recog,69,EXACTLY,HF,lure,-,-,-,conservative,no,m,1,3.61229210766,3,254
2019_Oct_30,213,001,1,recog,70,TOYED,LF,target,left,aqua,pleasantness,conservative,no,z,1,1.14658467431,1,255
2019_Oct_30,213,001,1,recog,71,MINISTER,HF,target,left,aqua,pleasantness,liberal,no,z,1,0.959999398768,3,258
2019_Oct_30,213,001,1,recog,72,ARRIVED,HF,target,left,aqua,pleasantness,conservative,no,z,1,1.27984620201,1,259
2019_Oct_30,213,001,1,recog,73,SLACKEN,LF,lure,-,-,-,conservative,no,m,1,1.37289193154,3,262
2019_Oct_30,213,001,1,recog,74,GALACTIC,LF,target,left,aqua,pleasantness,liberal,no,z,1,0.866665151368,3,265
2019_Oct_30,213,001,1,recog,75,VEGAN,LF,target,right,yellow,imageability,liberal,no,z,1,1.07992128265,3,268
2019_Oct_30,213,001,1,recog,76,DOING,HF,lure,-,-,-,conservative,no,m,1,0.933445489919,3,271
2019_Oct_30,213,001,1,recog,77,YELLOWED,LF,target,right,yellow,imageability,conservative,no,z,1,1.29318511262,1,272
2019_Oct_30,213,001,1,recog,78,SINCE,HF,lure,-,-,-,liberal,no,m,1,1.50645260865,1,273
2019_Oct_30,213,001,1,recog,79,ARTIFACTS,LF,lure,-,-,-,liberal,no,m,1,0.999851158508,1,274
2019_Oct_30,213,001,1,recog,80,PROBABLY,HF,target,right,yellow,imageability,conservative,no,m,0,1.14659200641,-1,273
2019_Oct_30,213,001,1,recog,81,ESPECIAL,LF,target,right,yellow,imageability,liberal,no,z,1,3.11919087418,3,276
2019_Oct_30,213,001,1,recog,82,PEDALLING,LF,target,left,aqua,pleasantness,conservative,no,z,1,2.54603234773,1,277
2019_Oct_30,213,001,1,recog,83,FORCE,HF,target,left,aqua,pleasantness,conservative,yes,m,0,1.37316505202,-1,276
2019_Oct_30,213,001,1,recog,84,RUNNING,HF,lure,-,-,-,liberal,no,z,0,1.81298066454,-1,275
2019_Oct_30,213,001,1,recog,85,RIOTERS,LF,lure,-,-,-,conservative,no,m,1,2.31945123681,3,278
2019_Oct_30,213,001,1,recog,86,BEFALL,LF,target,right,yellow,imageability,conservative,no,m,0,0.706822586073,-1,277
2019_Oct_30,213,001,1,recog,87,PRACTICE,HF,lure,-,-,-,conservative,no,m,1,1.69308224336,3,280
2019_Oct_30,213,001,1,recog,88,UPDATE,LF,lure,-,-,-,liberal,no,m,1,2.45275382424,1,281
2019_Oct_30,213,001,1,recog,89,ATTACK,HF,target,left,aqua,pleasantness,conservative,no,z,1,0.906705712507,1,282
2019_Oct_30,213,001,1,recog,90,DOUBT,HF,lure,-,-,-,liberal,no,m,1,0.853359968384,1,283
2019_Oct_30,213,001,1,recog,91,ANGERS,LF,target,left,aqua,pleasantness,conservative,no,z,1,1.29319171151,1,284
2019_Oct_30,213,001,1,recog,92,OUGHT,HF,target,left,aqua,pleasantness,liberal,no,m,0,1.15992285171,-3,281
2019_Oct_30,213,001,1,recog,93,OFTEN,HF,target,left,aqua,pleasantness,conservative,no,z,1,2.74598219621,1,282
2019_Oct_30,213,001,1,recog,94,BLACK,HF,target,right,yellow,imageability,conservative,no,z,1,2.30618931318,1,283
2019_Oct_30,213,001,1,recog,95,CRUCIALLY,LF,lure,-,-,-,conservative,no,z,0,2.01293564548,-3,280
2019_Oct_30,213,001,2,source,0,BARBARIAN,LF,target,right,yellow,imageability,conservative,no,8,1,5.59829330866,-,-
2019_Oct_30,213,001,2,source,1,WIPERS,LF,target,left,aqua,pleasantness,conservative,no,2,1,2.07929805472,-,-
2019_Oct_30,213,001,2,source,2,DECIDED,HF,target,left,aqua,pleasantness,conservative,no,1,1,4.99843349828,-,-
2019_Oct_30,213,001,2,source,3,BIJOU,LF,target,left,aqua,pleasantness,conservative,yes,3,1,1.34642160856,-,-
2019_Oct_30,213,001,2,source,4,MUSIC,HF,target,right,yellow,imageability,liberal,no,8,1,1.91941699594,-,-
2019_Oct_30,213,001,2,source,5,SALAMI,LF,target,left,aqua,pleasantness,liberal,no,1,1,1.50641118232,-,-
2019_Oct_30,213,001,2,source,6,ANYONE,HF,target,left,aqua,pleasantness,liberal,no,3,1,2.2661531513,-,-
2019_Oct_30,213,001,2,source,7,WHOLE,HF,target,left,aqua,pleasantness,liberal,no,2,1,1.22656534691,-,-
2019_Oct_30,213,001,2,source,8,REEDY,LF,target,left,aqua,pleasantness,conservative,no,1,1,1.89294557314,-,-
2019_Oct_30,213,001,2,source,9,SOMEONE,HF,target,right,yellow,imageability,liberal,no,7,1,1.63975299644,-,-
2019_Oct_30,213,001,2,source,10,NEARLY,HF,target,right,yellow,imageability,liberal,no,2,0,3.82526851958,-,-
2019_Oct_30,213,001,2,source,11,OBVIOUSLY,HF,target,left,aqua,pleasantness,conservative,no,2,1,2.49275845812,-,-
2019_Oct_30,213,001,2,source,12,IDEAS,HF,target,left,aqua,pleasantness,conservative,no,8,0,1.46639115104,-,-
2019_Oct_30,213,001,2,source,13,FUNNILY,LF,target,left,aqua,pleasantness,conservative,no,2,1,1.22670025743,-,-
2019_Oct_30,213,001,2,source,14,SEINE,LF,target,right,yellow,imageability,conservative,no,7,1,2.919249091,-,-
2019_Oct_30,213,001,2,source,15,OBSCURELY,LF,target,left,aqua,pleasantness,liberal,no,3,1,1.63972000202,-,-
2019_Oct_30,213,001,2,source,16,SUMMER,HF,target,left,aqua,pleasantness,conservative,no,8,0,2.46583647819,-,-
2019_Oct_30,213,001,2,source,17,FEELING,HF,target,right,yellow,imageability,conservative,no,8,1,1.25321457298,-,-
2019_Oct_30,213,001,2,source,18,ASTERN,LF,target,right,yellow,imageability,conservative,no,7,1,1.62615123029,-,-
2019_Oct_30,213,001,2,source,19,ADDED,HF,target,left,aqua,pleasantness,liberal,no,2,1,2.91922452849,-,-
2019_Oct_30,213,001,2,source,20,DIVAN,LF,target,right,yellow,imageability,liberal,no,9,1,1.45288653512,-,-
2019_Oct_30,213,001,2,source,21,AGILITY,LF,target,right,yellow,imageability,liberal,no,8,1,3.10590218841,-,-
2019_Oct_30,213,001,2,source,22,TAMING,LF,target,right,yellow,imageability,liberal,no,8,1,2.10617237605,-,-
2019_Oct_30,213,001,2,source,23,MAKES,HF,target,right,yellow,imageability,conservative,no,7,1,2.53271066754,-,-
2019_Oct_30,213,001,2,source,24,SELECTS,LF,target,right,yellow,imageability,conservative,no,3,0,1.17324709814,-,-
2019_Oct_30,213,001,2,source,25,HOBBLE,LF,target,left,aqua,pleasantness,liberal,no,2,1,1.55967297398,-,-
2019_Oct_30,213,001,2,source,26,SPACE,HF,target,left,aqua,pleasantness,liberal,no,1,1,2.18644413275,-,-
2019_Oct_30,213,001,2,source,27,WREATH,LF,target,left,aqua,pleasantness,conservative,no,1,1,1.29325916677,-,-
2019_Oct_30,213,001,2,source,28,WARDROBES,LF,target,right,yellow,imageability,liberal,no,9,1,1.17326799461,-,-
2019_Oct_30,213,001,2,source,29,ROCKER,LF,target,left,aqua,pleasantness,liberal,no,2,1,2.14591048834,-,-
2019_Oct_30,213,001,2,source,30,LETTER,HF,target,left,aqua,pleasantness,conservative,yes,3,1,1.04002699677,-,-
2019_Oct_30,213,001,2,source,31,FUTURE,HF,target,right,yellow,imageability,conservative,no,9,1,1.19965436513,-,-
2019_Oct_30,213,001,2,source,32,CERTAIN,HF,target,left,aqua,pleasantness,conservative,no,1,1,1.50642657972,-,-
2019_Oct_30,213,001,2,source,33,SEEMED,HF,target,right,yellow,imageability,liberal,no,8,1,2.42607343678,-,-
2019_Oct_30,213,001,2,source,34,SMALL,HF,target,left,aqua,pleasantness,liberal,no,1,1,1.97298746872,-,-
2019_Oct_30,213,001,2,source,35,LUSCIOUS,LF,target,right,yellow,imageability,conservative,no,9,1,1.23987492915,-,-
2019_Oct_30,213,001,2,source,36,BEYOND,HF,target,right,yellow,imageability,liberal,no,9,1,1.71970983974,-,-
2019_Oct_30,213,001,2,source,37,ROUND,HF,target,right,yellow,imageability,conservative,no,7,1,1.69303421815,-,-
2019_Oct_30,213,001,2,source,38,MIMICKED,LF,target,right,yellow,imageability,liberal,yes,3,0,0.760085110938,-,-
2019_Oct_30,213,001,2,source,39,MAJOR,HF,target,right,yellow,imageability,conservative,no,8,1,1.53286904075,-,-
2019_Oct_30,213,001,2,source,40,JUMBO,LF,target,right,yellow,imageability,liberal,no,8,1,3.79885721995,-,-
2019_Oct_30,213,001,2,source,41,OOZED,LF,target,left,aqua,pleasantness,conservative,yes,7,0,1.09334597875,-,-
2019_Oct_30,213,001,2,source,42,EDUCATION,HF,target,left,aqua,pleasantness,liberal,no,2,1,2.55912233378,-,-
2019_Oct_30,213,001,2,source,43,PARENTS,HF,target,right,yellow,imageability,liberal,no,8,1,1.47953649439,-,-
2019_Oct_30,213,001,2,source,44,ROTARY,LF,target,left,aqua,pleasantness,liberal,no,2,1,2.86591581144,-,-
2019_Oct_30,213,001,2,source,45,FACILE,LF,target,left,aqua,pleasantness,liberal,no,7,0,2.87897793553,-,-
2019_Oct_30,213,001,2,source,46,TIRADE,LF,target,right,yellow,imageability,conservative,no,3,0,0.786720772627,-,-
2019_Oct_30,213,001,2,source,47,DIFFERENT,HF,target,right,yellow,imageability,conservative,no,3,0,1.38646436933,-,-
2019_Oct_30,213,001,2,recog,0,MIMICKED,LF,target,right,yellow,imageability,liberal,no,m,0,2.13290078871,-3,277
2019_Oct_30,213,001,2,recog,1,FACILE,LF,target,left,aqua,pleasantness,liberal,no,z,1,3.53230960204,3,280
2019_Oct_30,213,001,2,recog,2,SEINE,LF,target,right,yellow,imageability,conservative,no,z,1,1.21299730839,1,281
2019_Oct_30,213,001,2,recog,3,NOXIOUS,LF,lure,-,-,-,conservative,no,m,1,1.10649058889,3,284
2019_Oct_30,213,001,2,recog,4,AGILITY,LF,target,right,yellow,imageability,liberal,no,z,1,1.55975179398,3,287
2019_Oct_30,213,001,2,recog,5,DIVAN,LF,target,right,yellow,imageability,liberal,no,z,1,0.879793264299,3,290
2019_Oct_30,213,001,2,recog,6,CALLED,HF,lure,-,-,-,conservative,no,m,1,2.67908857682,3,293
2019_Oct_30,213,001,2,recog,7,BARBARIAN,LF,target,right,yellow,imageability,conservative,no,z,1,1.42653499205,1,294
2019_Oct_30,213,001,2,recog,8,DECIDED,HF,target,left,aqua,pleasantness,conservative,no,z,1,1.7863567342,1,295
2019_Oct_30,213,001,2,recog,9,FUNNILY,LF,target,left,aqua,pleasantness,conservative,no,z,1,0.906691414925,1,296
2019_Oct_30,213,001,2,recog,10,FEELING,HF,target,right,yellow,imageability,conservative,no,z,1,0.826497011805,1,297
2019_Oct_30,213,001,2,recog,11,ACCORDING,HF,lure,-,-,-,liberal,no,m,1,0.919988532606,1,298
2019_Oct_30,213,001,2,recog,12,TAMING,LF,target,right,yellow,imageability,liberal,no,z,1,1.02663822792,3,301
2019_Oct_30,213,001,2,recog,13,SMALL,HF,target,left,aqua,pleasantness,liberal,no,z,1,1.79966668304,3,304
2019_Oct_30,213,001,2,recog,14,WHOLE,HF,target,left,aqua,pleasantness,liberal,no,z,1,0.639878375237,3,307
2019_Oct_30,213,001,2,recog,15,CERTAIN,HF,target,left,aqua,pleasantness,conservative,no,z,1,1.55982621473,1,308
2019_Oct_30,213,001,2,recog,16,ICEBOX,LF,lure,-,-,-,liberal,no,m,1,1.09326275949,1,309
2019_Oct_30,213,001,2,recog,17,EVIDENCE,HF,lure,-,-,-,liberal,no,m,1,0.946663420993,1,310
2019_Oct_30,213,001,2,recog,18,LEFTISTS,LF,lure,-,-,-,conservative,no,m,1,1.14657954185,3,313
2019_Oct_30,213,001,2,recog,19,SECOND,HF,lure,-,-,-,liberal,no,m,1,1.25320687428,1,314
2019_Oct_30,213,001,2,recog,20,OMITTING,LF,lure,-,-,-,conservative,no,m,1,0.786756333279,3,317
2019_Oct_30,213,001,2,recog,21,PEOPLED,LF,lure,-,-,-,liberal,no,m,1,0.866708410717,1,318
2019_Oct_30,213,001,2,recog,22,SHALL,HF,lure,-,-,-,conservative,no,m,1,0.893355070546,3,321
2019_Oct_30,213,001,2,recog,23,LUSCIOUS,LF,target,right,yellow,imageability,conservative,no,z,1,0.706806088864,1,322
2019_Oct_30,213,001,2,recog,24,PARENTS,HF,target,right,yellow,imageability,liberal,no,z,1,0.613494204347,3,325
2019_Oct_30,213,001,2,recog,25,ROTARY,LF,target,left,aqua,pleasantness,liberal,no,z,1,0.680210753688,3,328
2019_Oct_30,213,001,2,recog,26,HERSELF,HF,lure,-,-,-,liberal,no,m,1,1.13322340082,1,329
2019_Oct_30,213,001,2,recog,27,LACING,LF,lure,-,-,-,conservative,no,m,1,2.33276081905,3,332
2019_Oct_30,213,001,2,recog,28,MIDDLE,HF,lure,-,-,-,conservative,no,m,1,0.999965172557,3,335
2019_Oct_30,213,001,2,recog,29,DEPARTS,LF,lure,-,-,-,liberal,no,m,1,1.87961729406,1,336
2019_Oct_30,213,001,2,recog,30,SUMMER,HF,target,left,aqua,pleasantness,conservative,no,z,1,1.05306565816,1,337
2019_Oct_30,213,001,2,recog,31,PUBLIC,HF,lure,-,-,-,liberal,no,m,1,1.04700971576,1,338
2019_Oct_30,213,001,2,recog,32,OBSCURELY,LF,target,left,aqua,pleasantness,liberal,no,z,1,1.22657597845,3,341
2019_Oct_30,213,001,2,recog,33,UNBEATEN,LF,lure,-,-,-,conservative,no,m,1,1.31996191711,3,344
2019_Oct_30,213,001,2,recog,34,WREATH,LF,target,left,aqua,pleasantness,conservative,no,z,1,0.999972138046,1,345
2019_Oct_30,213,001,2,recog,35,TELEPHONE,HF,lure,-,-,-,conservative,no,m,1,1.42623620925,3,348
2019_Oct_30,213,001,2,recog,36,MAKES,HF,target,right,yellow,imageability,conservative,no,z,1,1.27979121131,1,349
2019_Oct_30,213,001,2,recog,37,LEARN,HF,lure,-,-,-,conservative,no,m,1,0.986599866409,3,352
2019_Oct_30,213,001,2,recog,38,TABLE,HF,lure,-,-,-,liberal,no,z,0,1.05330395119,-1,351
2019_Oct_30,213,001,2,recog,39,SELECTS,LF,target,right,yellow,imageability,conservative,no,z,1,1.16002806725,1,352
2019_Oct_30,213,001,2,recog,40,ADDED,HF,target,left,aqua,pleasantness,liberal,no,z,1,0.933496447967,3,355
2019_Oct_30,213,001,2,recog,41,JUMBO,LF,target,right,yellow,imageability,liberal,no,z,1,0.613460476718,3,358
2019_Oct_30,213,001,2,recog,42,MATERIAL,HF,lure,-,-,-,liberal,no,m,1,0.986562839339,1,359
2019_Oct_30,213,001,2,recog,43,SALAMI,LF,target,left,aqua,pleasantness,liberal,no,z,1,1.01326558968,3,362
2019_Oct_30,213,001,2,recog,44,MUSIC,HF,target,right,yellow,imageability,liberal,no,z,1,0.842580691519,3,365
2019_Oct_30,213,001,2,recog,45,CAPITAL,HF,lure,-,-,-,liberal,no,m,1,1.09337787336,1,366
2019_Oct_30,213,001,2,recog,46,ASPIRED,LF,lure,-,-,-,conservative,no,m,1,1.66649460688,3,369
2019_Oct_30,213,001,2,recog,47,FOLLOWED,HF,lure,-,-,-,conservative,no,m,1,1.70635809797,3,372
2019_Oct_30,213,001,2,recog,48,FUTURE,HF,target,right,yellow,imageability,conservative,no,z,1,1.15993788251,1,373
2019_Oct_30,213,001,2,recog,49,HYDRAULIC,LF,lure,-,-,-,liberal,yes,z,0,1.85300106242,-1,372
2019_Oct_30,213,001,2,recog,50,AMONG,HF,lure,-,-,-,liberal,no,z,0,1.83969991209,-1,371
2019_Oct_30,213,001,2,recog,51,WIPERS,LF,target,left,aqua,pleasantness,conservative,no,z,1,1.21321580477,1,372
2019_Oct_30,213,001,2,recog,52,EXPECT,HF,lure,-,-,-,conservative,no,m,1,1.4531911836,3,375
2019_Oct_30,213,001,2,recog,53,SEEMED,HF,target,right,yellow,imageability,liberal,no,z,1,1.18654641545,3,378
2019_Oct_30,213,001,2,recog,54,SPACE,HF,target,left,aqua,pleasantness,liberal,no,z,1,1.05329515268,3,381
2019_Oct_30,213,001,2,recog,55,VIVACIOUS,LF,lure,-,-,-,liberal,no,m,1,1.42657421875,1,382
2019_Oct_30,213,001,2,recog,56,ECONOMIC,HF,lure,-,-,-,liberal,no,m,1,1.4664582397,1,383
2019_Oct_30,213,001,2,recog,57,EMULATION,LF,lure,-,-,-,conservative,no,m,1,1.7595161405,3,386
2019_Oct_30,213,001,2,recog,58,GIMMICKS,LF,lure,-,-,-,conservative,no,m,1,1.27985683355,3,389
2019_Oct_30,213,001,2,recog,59,EDUCATION,HF,target,left,aqua,pleasantness,liberal,no,z,1,1.07997150749,3,392
2019_Oct_30,213,001,2,recog,60,LOBBIES,LF,lure,-,-,-,conservative,no,m,1,1.42627396953,3,395
2019_Oct_30,213,001,2,recog,61,SERIOUS,HF,lure,-,-,-,conservative,no,z,0,1.43986290452,-3,392
2019_Oct_30,213,001,2,recog,62,OBVIOUSLY,HF,target,left,aqua,pleasantness,conservative,no,z,1,1.94628875103,1,393
2019_Oct_30,213,001,2,recog,63,OOZED,LF,target,left,aqua,pleasantness,conservative,no,z,1,1.1465916398,1,394
2019_Oct_30,213,001,2,recog,64,BENIGNLY,LF,lure,-,-,-,liberal,no,m,1,1.38648343277,1,395
2019_Oct_30,213,001,2,recog,65,SOUND,HF,lure,-,-,-,liberal,no,m,1,1.0400057337,1,396
2019_Oct_30,213,001,2,recog,66,BEYOND,HF,target,right,yellow,imageability,liberal,no,z,1,1.1063729088,3,399
2019_Oct_30,213,001,2,recog,67,ROCKER,LF,target,left,aqua,pleasantness,liberal,no,z,1,1.05342566394,3,402
2019_Oct_30,213,001,2,recog,68,GAUCHE,LF,lure,-,-,-,conservative,yes,m,1,1.29329876007,3,405
2019_Oct_30,213,001,2,recog,69,ANYONE,HF,target,left,aqua,pleasantness,liberal,no,z,1,1.37313059118,3,408
2019_Oct_30,213,001,2,recog,70,TIDILY,LF,lure,-,-,-,liberal,no,z,0,1.26654211884,-1,407
2019_Oct_30,213,001,2,recog,71,SOMEONE,HF,target,right,yellow,imageability,liberal,no,z,1,1.31986036762,3,410
2019_Oct_30,213,001,2,recog,72,NEARLY,HF,target,right,yellow,imageability,liberal,no,m,0,1.87986108616,-3,407
2019_Oct_30,213,001,2,recog,73,FIGURE,HF,lure,-,-,-,conservative,no,m,1,1.67975909674,3,410
2019_Oct_30,213,001,2,recog,74,BIGNESS,LF,lure,-,-,-,liberal,no,m,1,2.43946183902,1,411
2019_Oct_30,213,001,2,recog,75,INTEREST,HF,lure,-,-,-,liberal,no,m,1,1.3199296559,1,412
2019_Oct_30,213,001,2,recog,76,MAJOR,HF,target,right,yellow,imageability,conservative,no,z,1,1.37291062838,1,413
2019_Oct_30,213,001,2,recog,77,HOBBLE,LF,target,left,aqua,pleasantness,liberal,no,z,1,1.213249899,3,416
2019_Oct_30,213,001,2,recog,78,ACORNS,LF,lure,-,-,-,liberal,no,m,1,1.83963612288,1,417
2019_Oct_30,213,001,2,recog,79,TYPHOID,LF,lure,-,-,-,liberal,no,m,1,2.10619070628,1,418
2019_Oct_30,213,001,2,recog,80,TIRADE,LF,target,right,yellow,imageability,conservative,no,z,1,1.78638386294,1,419
2019_Oct_30,213,001,2,recog,81,BIJOU,LF,target,left,aqua,pleasantness,conservative,no,z,1,1.07994291232,1,420
2019_Oct_30,213,001,2,recog,82,LETTER,HF,target,left,aqua,pleasantness,conservative,no,z,1,2.87919166605,1,421
2019_Oct_30,213,001,2,recog,83,OPPOSES,LF,lure,-,-,-,conservative,no,m,1,1.23990059148,3,424
2019_Oct_30,213,001,2,recog,84,ROUND,HF,target,right,yellow,imageability,conservative,no,z,1,1.43980168154,1,425
2019_Oct_30,213,001,2,recog,85,BASIC,HF,lure,-,-,-,conservative,no,m,1,1.06665972562,3,428
2019_Oct_30,213,001,2,recog,86,LARGE,HF,lure,-,-,-,conservative,no,m,1,1.1999590136,3,431
2019_Oct_30,213,001,2,recog,87,JUDICIOUS,LF,lure,-,-,-,conservative,no,m,1,1.47983527719,3,434
2019_Oct_30,213,001,2,recog,88,IDEAS,HF,target,left,aqua,pleasantness,conservative,yes,m,0,1.41286870347,-1,433
2019_Oct_30,213,001,2,recog,89,WARDROBES,LF,target,right,yellow,imageability,liberal,no,z,1,1.13339167236,3,436
2019_Oct_30,213,001,2,recog,90,CAKED,LF,lure,-,-,-,liberal,no,m,1,3.43902081361,1,437
2019_Oct_30,213,001,2,recog,91,PRUDENTLY,LF,lure,-,-,-,liberal,no,m,1,1.13295871225,1,438
2019_Oct_30,213,001,2,recog,92,DIFFERENT,HF,target,right,yellow,imageability,conservative,no,z,1,2.29281227568,1,439
2019_Oct_30,213,001,2,recog,93,REEDY,LF,target,left,aqua,pleasantness,conservative,yes,m,0,1.63975006361,-1,438
2019_Oct_30,213,001,2,recog,94,WANTED,HF,lure,-,-,-,conservative,no,m,1,1.39982270999,3,441
2019_Oct_30,213,001,2,recog,95,ASTERN,LF,target,right,yellow,imageability,conservative,no,m,0,1.10660276992,-1,440
2019_Oct_30,213,001,3,source,0,FURTHER,HF,target,right,yellow,imageability,liberal,no,7,1,2.54603088131,-,-
2019_Oct_30,213,001,3,source,1,GYMKHANA,LF,target,right,yellow,imageability,conservative,no,9,1,1.26654358526,-,-
2019_Oct_30,213,001,3,source,2,JACKALS,LF,target,right,yellow,imageability,conservative,no,7,1,1.74612223919,-,-
2019_Oct_30,213,001,3,source,3,POINT,HF,target,left,aqua,pleasantness,liberal,no,3,1,2.19945896484,-,-
2019_Oct_30,213,001,3,source,4,ASHEN,LF,target,right,yellow,imageability,conservative,no,3,0,1.34651399293,-,-
2019_Oct_30,213,001,3,source,5,STUDENT,HF,target,right,yellow,imageability,liberal,no,8,1,1.14654874706,-,-
2019_Oct_30,213,001,3,source,6,NAGGED,LF,target,left,aqua,pleasantness,liberal,no,7,0,1.79962745634,-,-
2019_Oct_30,213,001,3,source,7,GIVEN,HF,target,right,yellow,imageability,liberal,no,3,0,1.42646387074,-,-
2019_Oct_30,213,001,3,source,8,POPES,LF,target,right,yellow,imageability,conservative,no,3,0,1.95968778481,-,-
2019_Oct_30,213,001,3,source,9,FIELD,HF,target,left,aqua,pleasantness,conservative,yes,7,0,1.13330991952,-,-
2019_Oct_30,213,001,3,source,10,JOURNEYED,LF,target,right,yellow,imageability,liberal,no,8,1,1.30655078538,-,-
2019_Oct_30,213,001,3,source,11,SILENCER,LF,target,right,yellow,imageability,liberal,no,8,1,1.14658760715,-,-
2019_Oct_30,213,001,3,source,12,CUBED,LF,target,right,yellow,imageability,liberal,no,8,1,1.4131304592,-,-
2019_Oct_30,213,001,3,source,13,HINDERED,LF,target,left,aqua,pleasantness,liberal,no,8,0,2.25258437956,-,-
2019_Oct_30,213,001,3,source,14,HAVING,HF,target,left,aqua,pleasantness,conservative,no,1,1,1.98632821236,-,-
2019_Oct_30,213,001,3,source,15,IMPORTANT,HF,target,left,aqua,pleasantness,conservative,no,1,1,2.07929108923,-,-
2019_Oct_30,213,001,3,source,16,EFFECT,HF,target,left,aqua,pleasantness,conservative,no,8,0,1.99956337385,-,-
2019_Oct_30,213,001,3,source,17,QUALITY,HF,target,left,aqua,pleasantness,liberal,no,1,1,1.47982611208,-,-
2019_Oct_30,213,001,3,source,18,VOICE,HF,target,right,yellow,imageability,liberal,no,3,0,1.51975815824,-,-
2019_Oct_30,213,001,3,source,19,PLYWOOD,LF,target,right,yellow,imageability,liberal,no,8,1,1.6530171197,-,-
2019_Oct_30,213,001,3,source,20,RAPACIOUS,LF,target,right,yellow,imageability,liberal,no,2,0,1.29324340277,-,-
2019_Oct_30,213,001,3,source,21,GLASS,HF,target,left,aqua,pleasantness,conservative,no,2,1,4.10517484476,-,-
2019_Oct_30,213,001,3,source,22,TYRANTS,LF,target,left,aqua,pleasantness,conservative,no,1,1,1.95963022787,-,-
2019_Oct_30,213,001,3,source,23,ERRANT,LF,target,left,aqua,pleasantness,conservative,no,3,1,1.51993559489,-,-
2019_Oct_30,213,001,3,source,24,REGAINING,LF,target,left,aqua,pleasantness,conservative,no,7,0,1.05327022356,-,-
2019_Oct_30,213,001,3,source,25,COMES,HF,target,right,yellow,imageability,conservative,yes,7,1,0.879795830532,-,-
2019_Oct_30,213,001,3,source,26,NATIONAL,HF,target,right,yellow,imageability,liberal,no,7,1,1.95934757568,-,-
2019_Oct_30,213,001,3,source,27,NEBULOUS,LF,target,left,aqua,pleasantness,liberal,yes,7,0,0.466930426501,-,-
2019_Oct_30,213,001,3,source,28,RUMBLED,LF,target,left,aqua,pleasantness,liberal,no,3,1,1.09329428749,-,-
2019_Oct_30,213,001,3,source,29,CAIRN,LF,target,right,yellow,imageability,conservative,no,7,1,1.22677907743,-,-
2019_Oct_30,213,001,3,source,30,MESSED,LF,target,left,aqua,pleasantness,liberal,no,2,1,2.42594989101,-,-
2019_Oct_30,213,001,3,source,31,HAGGLING,LF,target,left,aqua,pleasantness,conservative,no,3,1,1.22659394208,-,-
2019_Oct_30,213,001,3,source,32,SUGARY,LF,target,left,aqua,pleasantness,conservative,no,1,1,1.42652032786,-,-
2019_Oct_30,213,001,3,source,33,STRAIGHT,HF,target,left,aqua,pleasantness,liberal,no,8,0,1.31998427999,-,-
2019_Oct_30,213,001,3,source,34,RANGE,HF,target,right,yellow,imageability,conservative,no,3,0,2.49280831635,-,-
2019_Oct_30,213,001,3,source,35,SNAGS,LF,target,right,yellow,imageability,conservative,no,7,1,2.57272409993,-,-
2019_Oct_30,213,001,3,source,36,GEYSER,LF,target,left,aqua,pleasantness,liberal,no,2,1,1.63971120351,-,-
2019_Oct_30,213,001,3,source,37,COVER,HF,target,right,yellow,imageability,conservative,no,8,1,2.21288586057,-,-
2019_Oct_30,213,001,3,source,38,BRING,HF,target,left,aqua,pleasantness,liberal,no,2,1,1.35958418233,-,-
2019_Oct_30,213,001,3,source,39,HECTOR,LF,target,right,yellow,imageability,liberal,no,9,1,1.19988569267,-,-
2019_Oct_30,213,001,3,source,40,INDEED,HF,target,right,yellow,imageability,conservative,no,9,1,1.82607468324,-,-
2019_Oct_30,213,001,3,source,41,BEHIND,HF,target,left,aqua,pleasantness,liberal,no,7,0,2.78619799438,-,-
2019_Oct_30,213,001,3,source,42,ENTIRELY,HF,target,right,yellow,imageability,conservative,no,3,0,1.10660973541,-,-
2019_Oct_30,213,001,3,source,43,NUCLEAR,HF,target,left,aqua,pleasantness,liberal,yes,7,0,1.02638563731,-,-
2019_Oct_30,213,001,3,source,44,GREATER,HF,target,right,yellow,imageability,liberal,no,8,1,1.06637780663,-,-
2019_Oct_30,213,001,3,source,45,FAMILY,HF,target,left,aqua,pleasantness,conservative,no,1,1,3.02583902976,-,-
2019_Oct_30,213,001,3,source,46,BUZZARD,LF,target,left,aqua,pleasantness,conservative,no,3,1,1.01347015508,-,-
2019_Oct_30,213,001,3,source,47,YOUNG,HF,target,right,yellow,imageability,conservative,no,9,1,2.14593761708,-,-
2019_Oct_30,213,001,3,recog,0,REPORT,HF,lure,-,-,-,conservative,no,m,1,1.58652199958,3,443
2019_Oct_30,213,001,3,recog,1,TYRANTS,LF,target,left,aqua,pleasantness,conservative,no,z,1,0.906699846832,1,444
2019_Oct_30,213,001,3,recog,2,MESSED,LF,target,left,aqua,pleasantness,liberal,no,z,1,1.30661604101,3,447
2019_Oct_30,213,001,3,recog,3,STRAIGHT,HF,target,left,aqua,pleasantness,liberal,no,z,1,2.02626539098,3,450
2019_Oct_30,213,001,3,recog,4,AVAILABLE,HF,lure,-,-,-,conservative,no,m,1,1.59943124953,3,453
2019_Oct_30,213,001,3,recog,5,BEGAN,HF,lure,-,-,-,liberal,no,z,0,1.85295963609,-1,452
2019_Oct_30,213,001,3,recog,6,TIMES,HF,lure,-,-,-,conservative,no,z,0,2.4660498421,-3,449
2019_Oct_30,213,001,3,recog,7,WITHIN,HF,lure,-,-,-,liberal,no,m,1,2.1196088035,1,450
2019_Oct_30,213,001,3,recog,8,JOURNEYED,LF,target,right,yellow,imageability,liberal,no,z,1,0.93343925764,3,453
2019_Oct_30,213,001,3,recog,9,POLICE,HF,lure,-,-,-,conservative,no,m,1,0.920001363769,3,456
2019_Oct_30,213,001,3,recog,10,AFRAID,HF,lure,-,-,-,liberal,no,m,1,1.26644643503,1,457
2019_Oct_30,213,001,3,recog,11,LUNACY,LF,lure,-,-,-,conservative,no,m,1,1.06662269855,3,460
2019_Oct_30,213,001,3,recog,12,BUSINESS,HF,lure,-,-,-,conservative,no,m,1,0.826716607998,3,463
2019_Oct_30,213,001,3,recog,13,COVER,HF,target,right,yellow,imageability,conservative,no,z,1,1.41314439018,1,464
2019_Oct_30,213,001,3,recog,14,BUZZARD,LF,target,left,aqua,pleasantness,conservative,no,z,1,1.10663723076,1,465
2019_Oct_30,213,001,3,recog,15,BEHIND,HF,target,left,aqua,pleasantness,liberal,no,z,1,0.999979470139,3,468
2019_Oct_30,213,001,3,recog,16,FURTHER,HF,target,right,yellow,imageability,liberal,no,z,1,0.613455710857,3,471
2019_Oct_30,213,001,3,recog,17,FIELD,HF,target,left,aqua,pleasantness,conservative,no,m,0,1.30659404473,-1,470
2019_Oct_30,213,001,3,recog,18,MILES,HF,lure,-,-,-,liberal,no,m,1,2.10615551223,1,471
2019_Oct_30,213,001,3,recog,19,OUTSIDE,HF,lure,-,-,-,conservative,no,m,1,1.09328622219,3,474
2019_Oct_30,213,001,3,recog,20,IMPORTANT,HF,target,left,aqua,pleasantness,conservative,no,z,1,1.21299364234,1,475
2019_Oct_30,213,001,3,recog,21,BODICE,LF,lure,-,-,-,liberal,no,m,1,1.34650959368,1,476
2019_Oct_30,213,001,3,recog,22,GEYSER,LF,target,left,aqua,pleasantness,liberal,no,z,1,0.94672061132,3,479
2019_Oct_30,213,001,3,recog,23,HAGGLING,LF,target,left,aqua,pleasantness,conservative,no,z,1,1.19990622253,1,480
2019_Oct_30,213,001,3,recog,24,SNAGS,LF,target,right,yellow,imageability,conservative,no,z,1,0.666772859817,1,481
2019_Oct_30,213,001,3,recog,25,SENSE,HF,lure,-,-,-,liberal,no,m,1,0.866820958349,1,482
2019_Oct_30,213,001,3,recog,26,WICKEDLY,LF,lure,-,-,-,conservative,no,m,1,1.06661609966,3,485
2019_Oct_30,213,001,3,recog,27,NATIONAL,HF,target,right,yellow,imageability,liberal,no,z,1,1.05330358459,3,488
2019_Oct_30,213,001,3,recog,28,UNLESS,HF,lure,-,-,-,liberal,no,m,1,1.86605365479,1,489
2019_Oct_30,213,001,3,recog,29,HINDERED,LF,target,left,aqua,pleasantness,liberal,no,z,1,1.05335014338,3,492
2019_Oct_30,213,001,3,recog,30,SILENCER,LF,target,right,yellow,imageability,liberal,no,z,1,0.706503640018,3,495
2019_Oct_30,213,001,3,recog,31,STUDENT,HF,target,right,yellow,imageability,liberal,no,z,1,0.626700770677,3,498
2019_Oct_30,213,001,3,recog,32,RUPTURE,LF,lure,-,-,-,liberal,no,m,1,2.18616624642,1,499
2019_Oct_30,213,001,3,recog,33,GLASS,HF,target,left,aqua,pleasantness,conservative,no,z,1,1.70635956439,1,500
2019_Oct_30,213,001,3,recog,34,LIKELY,HF,lure,-,-,-,conservative,no,m,1,1.34652499107,3,503
2019_Oct_30,213,001,3,recog,35,QUALITY,HF,target,left,aqua,pleasantness,liberal,yes,z,1,2.34611732669,3,506
2019_Oct_30,213,001,3,recog,36,LUGGED,LF,lure,-,-,-,liberal,no,z,0,3.55899548856,-1,505
2019_Oct_30,213,001,3,recog,37,APPEARED,HF,lure,-,-,-,liberal,yes,z,0,1.39993782385,-1,504
2019_Oct_30,213,001,3,recog,38,NAGGED,LF,target,left,aqua,pleasantness,liberal,no,m,0,2.5993659939,-3,501
2019_Oct_30,213,001,3,recog,39,HAVING,HF,target,left,aqua,pleasantness,conservative,no,m,0,2.73258939471,-1,500
2019_Oct_30,213,001,3,recog,40,SCABS,LF,lure,-,-,-,liberal,no,z,0,4.95816014318,-1,499
2019_Oct_30,213,001,3,recog,41,POPES,LF,target,right,yellow,imageability,conservative,no,z,1,2.37377178273,1,500
2019_Oct_30,213,001,3,recog,42,DOCTOR,HF,lure,-,-,-,conservative,no,m,1,1.55977965593,3,503
2019_Oct_30,213,001,3,recog,43,ACIDITY,LF,lure,-,-,-,liberal,no,m,1,2.51936405823,1,504
2019_Oct_30,213,001,3,recog,44,VOICE,HF,target,right,yellow,imageability,liberal,no,m,0,1.47979531729,-3,501
2019_Oct_30,213,001,3,recog,45,SNEAKED,LF,lure,-,-,-,liberal,no,m,1,2.71906351572,1,502
2019_Oct_30,213,001,3,recog,46,CLOSE,HF,lure,-,-,-,conservative,no,m,1,1.50643831107,3,505
2019_Oct_30,213,001,3,recog,47,NUCLEAR,HF,target,left,aqua,pleasantness,liberal,no,z,1,1.37315112104,3,508
2019_Oct_30,213,001,3,recog,48,ALERTING,LF,lure,-,-,-,conservative,yes,m,1,1.27986563206,3,511
2019_Oct_30,213,001,3,recog,49,HAMLETS,LF,lure,-,-,-,conservative,no,z,0,1.47978688538,-3,508
2019_Oct_30,213,001,3,recog,50,ENTIRELY,HF,target,right,yellow,imageability,conservative,no,z,1,2.07958840561,1,509
2019_Oct_30,213,001,3,recog,51,RANGE,HF,target,right,yellow,imageability,conservative,no,z,1,0.826752901859,1,510
2019_Oct_30,213,001,3,recog,52,INDEED,HF,target,right,yellow,imageability,conservative,no,z,1,1.10664163001,1,511
2019_Oct_30,213,001,3,recog,53,RUMBLED,LF,target,left,aqua,pleasantness,liberal,no,z,1,1.22648029463,3,514
2019_Oct_30,213,001,3,recog,54,JACKALS,LF,target,right,yellow,imageability,conservative,no,z,1,1.09336834163,1,515
2019_Oct_30,213,001,3,recog,55,TOGETHER,HF,lure,-,-,-,conservative,no,m,1,0.946407897544,3,518
2019_Oct_30,213,001,3,recog,56,ASHEN,LF,target,right,yellow,imageability,conservative,no,z,1,0.839823457859,1,519
2019_Oct_30,213,001,3,recog,57,REGAINING,LF,target,left,aqua,pleasantness,conservative,no,m,0,1.10664346304,-1,518
2019_Oct_30,213,001,3,recog,58,NEBULOUS,LF,target,left,aqua,pleasantness,liberal,no,z,1,2.57269587137,3,521
2019_Oct_30,213,001,3,recog,59,AHEAD,HF,lure,-,-,-,conservative,no,m,1,1.31988566334,3,524
2019_Oct_30,213,001,3,recog,60,ANNALS,LF,lure,-,-,-,liberal,no,m,1,1.38625540467,1,525
2019_Oct_30,213,001,3,recog,61,ABOVE,HF,lure,-,-,-,liberal,no,m,1,1.4931895852,1,526
2019_Oct_30,213,001,3,recog,62,GREATER,HF,target,right,yellow,imageability,liberal,no,z,1,0.933324143776,3,529
2019_Oct_30,213,001,3,recog,63,EFFECT,HF,target,left,aqua,pleasantness,conservative,no,m,0,1.01327585461,-1,528
2019_Oct_30,213,001,3,recog,64,RAPACIOUS,LF,target,right,yellow,imageability,liberal,no,m,0,2.58601571854,-3,525
2019_Oct_30,213,001,3,recog,65,RINSING,LF,lure,-,-,-,conservative,no,m,1,1.28001300713,3,528
2019_Oct_30,213,001,3,recog,66,MUGGING,LF,lure,-,-,-,liberal,no,m,1,1.01350058327,1,529
2019_Oct_30,213,001,3,recog,67,GIVEN,HF,target,right,yellow,imageability,liberal,no,m,0,1.15989755599,-3,526
2019_Oct_30,213,001,3,recog,68,LODGERS,LF,lure,-,-,-,liberal,no,m,1,1.33316738362,1,527
2019_Oct_30,213,001,3,recog,69,POINT,HF,target,left,aqua,pleasantness,liberal,no,z,1,0.959761472343,3,530
2019_Oct_30,213,001,3,recog,70,HUNDRED,HF,lure,-,-,-,conservative,no,m,1,1.19989485778,3,533
2019_Oct_30,213,001,3,recog,71,AGNOSTIC,LF,lure,-,-,-,liberal,no,m,1,1.98599240248,1,534
2019_Oct_30,213,001,3,recog,72,COMES,HF,target,right,yellow,imageability,conservative,no,z,1,1.65304644808,1,535
2019_Oct_30,213,001,3,recog,73,SUGARY,LF,target,left,aqua,pleasantness,conservative,no,z,1,1.17322180242,1,536
2019_Oct_30,213,001,3,recog,74,BRING,HF,target,left,aqua,pleasantness,liberal,no,z,1,1.23985843194,3,539
2019_Oct_30,213,001,3,recog,75,SUCCESS,HF,lure,-,-,-,liberal,no,m,1,1.1996525321,1,540
2019_Oct_30,213,001,3,recog,76,DYEING,LF,lure,-,-,-,liberal,no,m,1,1.67967331125,1,541
2019_Oct_30,213,001,3,recog,77,EXUDED,LF,lure,-,-,-,liberal,no,m,1,1.90616827007,1,542
2019_Oct_30,213,001,3,recog,78,CUBED,LF,target,right,yellow,imageability,liberal,no,z,1,0.919757938274,3,545
2019_Oct_30,213,001,3,recog,79,GYMKHANA,LF,target,right,yellow,imageability,conservative,no,z,1,0.919746206925,1,546
2019_Oct_30,213,001,3,recog,80,PLYWOOD,LF,target,right,yellow,imageability,liberal,no,z,1,1.02664519341,3,549
2019_Oct_30,213,001,3,recog,81,YOUNG,HF,target,right,yellow,imageability,conservative,no,z,1,1.6530794425,1,550
2019_Oct_30,213,001,3,recog,82,CYANIDE,LF,lure,-,-,-,conservative,no,z,0,1.10640003754,-3,547
2019_Oct_30,213,001,3,recog,83,HOURS,HF,lure,-,-,-,liberal,no,m,1,2.1194911234,1,548
2019_Oct_30,213,001,3,recog,84,INFECT,LF,lure,-,-,-,conservative,no,m,1,1.34654038847,3,551
2019_Oct_30,213,001,3,recog,85,ERRANT,LF,target,left,aqua,pleasantness,conservative,no,m,0,1.38636135342,-1,550
2019_Oct_30,213,001,3,recog,86,HECTOR,LF,target,right,yellow,imageability,liberal,yes,z,1,1.07996527521,3,553
2019_Oct_30,213,001,3,recog,87,NOTHING,HF,lure,-,-,-,liberal,no,m,1,1.85302159228,1,554
2019_Oct_30,213,001,3,recog,88,CHIEF,HF,lure,-,-,-,liberal,no,m,1,1.0133612735,1,555
2019_Oct_30,213,001,3,recog,89,FAMILY,HF,target,left,aqua,pleasantness,conservative,no,z,1,1.17326066251,1,556
2019_Oct_30,213,001,3,recog,90,VIGILANT,LF,lure,-,-,-,conservative,no,z,0,1.3731951136,-3,553
2019_Oct_30,213,001,3,recog,91,TULIPS,LF,lure,-,-,-,conservative,no,m,1,1.90629218245,3,556
2019_Oct_30,213,001,3,recog,92,KICKER,LF,lure,-,-,-,conservative,no,m,1,0.906750071671,3,559
2019_Oct_30,213,001,3,recog,93,CAIRN,LF,target,right,yellow,imageability,conservative,no,z,1,1.06665422655,1,560
2019_Oct_30,213,001,3,recog,94,YEOMAN,LF,lure,-,-,-,conservative,no,m,1,0.893114577887,3,563
2019_Oct_30,213,001,3,recog,95,IRISES,LF,lure,-,-,-,conservative,no,m,1,0.853433289316,3,566
2019_Oct_30,213,001,4,source,0,DEGREE,HF,target,right,yellow,imageability,liberal,no,7,1,1.94604532553,-,-
2019_Oct_30,213,001,4,source,1,GROUND,HF,target,right,yellow,imageability,liberal,no,3,0,0.586594587302,-,-
2019_Oct_30,213,001,4,source,2,HEALTH,HF,target,right,yellow,imageability,conservative,no,7,1,0.77343025383,-,-
2019_Oct_30,213,001,4,source,3,AMEND,LF,target,right,yellow,imageability,conservative,no,7,1,0.666521369019,-,-
2019_Oct_30,213,001,4,source,4,WISPY,LF,target,left,aqua,pleasantness,conservative,no,7,0,1.0132828201,-,-
2019_Oct_30,213,001,4,source,5,SUPPORT,HF,target,right,yellow,imageability,liberal,no,3,0,1.01339133508,-,-
2019_Oct_30,213,001,4,source,6,ACROSS,HF,target,right,yellow,imageability,conservative,no,3,0,1.00000329944,-,-
2019_Oct_30,213,001,4,source,7,ODOURS,LF,target,right,yellow,imageability,conservative,no,9,1,1.2265719458,-,-
2019_Oct_30,213,001,4,source,8,HACKNEY,LF,target,left,aqua,pleasantness,liberal,no,1,1,1.31985046929,-,-
2019_Oct_30,213,001,4,source,9,ENERGY,HF,target,right,yellow,imageability,liberal,no,7,1,1.73443781542,-,-
2019_Oct_30,213,001,4,source,10,FATHER,HF,target,left,aqua,pleasantness,conservative,no,1,1,1.14657220975,-,-
2019_Oct_30,213,001,4,source,11,THOUSAND,HF,target,right,yellow,imageability,liberal,no,8,1,1.46644577514,-,-
2019_Oct_30,213,001,4,source,12,LIGHT,HF,target,right,yellow,imageability,conservative,no,2,0,2.50605740882,-,-
2019_Oct_30,213,001,4,source,13,NEMESIS,LF,target,left,aqua,pleasantness,liberal,no,9,0,2.17259637487,-,-
2019_Oct_30,213,001,4,source,14,ZOOLOGY,LF,target,left,aqua,pleasantness,conservative,no,1,1,1.1865500815,-,-
2019_Oct_30,213,001,4,source,15,EITHER,HF,target,left,aqua,pleasantness,conservative,no,7,0,1.34641207684,-,-
2019_Oct_30,213,001,4,source,16,PURCHASER,LF,target,right,yellow,imageability,liberal,no,3,0,0.773402025271,-,-
2019_Oct_30,213,001,4,source,17,HOIST,LF,target,right,yellow,imageability,conservative,no,7,1,1.47975132473,-,-
2019_Oct_30,213,001,4,source,18,POOLED,LF,target,left,aqua,pleasantness,liberal,no,2,1,1.25319844237,-,-
2019_Oct_30,213,001,4,source,19,RAVAGES,LF,target,right,yellow,imageability,conservative,no,8,1,1.33311495916,-,-
2019_Oct_30,213,001,4,source,20,LOTTERY,LF,target,right,yellow,imageability,conservative,no,8,1,1.37316065276,-,-
2019_Oct_30,213,001,4,source,21,WEBBED,LF,target,left,aqua,pleasantness,liberal,no,2,1,2.55910986922,-,-
2019_Oct_30,213,001,4,source,22,NOURISH,LF,target,left,aqua,pleasantness,liberal,no,8,0,1.26651095745,-,-
2019_Oct_30,213,001,4,source,23,INCLUDING,HF,target,left,aqua,pleasantness,liberal,no,8,0,1.22655581519,-,-
2019_Oct_30,213,001,4,source,24,TACITLY,LF,target,left,aqua,pleasantness,conservative,no,8,0,0.706878309982,-,-
2019_Oct_30,213,001,4,source,25,EARLIER,HF,target,left,aqua,pleasantness,conservative,no,8,0,0.466641908632,-,-
2019_Oct_30,213,001,4,source,26,HOTEL,HF,target,left,aqua,pleasantness,conservative,no,8,0,1.66639928967,-,-
2019_Oct_30,213,001,4,source,27,DAFFODILS,LF,target,left,aqua,pleasantness,liberal,no,8,0,0.999944276091,-,-
2019_Oct_30,213,001,4,source,28,KNOWLEDGE,HF,target,left,aqua,pleasantness,liberal,no,8,0,1.17324783135,-,-
2019_Oct_30,213,001,4,source,29,HARDLY,HF,target,right,yellow,imageability,liberal,no,7,1,1.19993188485,-,-
2019_Oct_30,213,001,4,source,30,HIKING,LF,target,right,yellow,imageability,liberal,no,8,1,1.19989999025,-,-
2019_Oct_30,213,001,4,source,31,LONGER,HF,target,left,aqua,pleasantness,liberal,no,3,1,0.906707178926,-,-
2019_Oct_30,213,001,4,source,32,TRIED,HF,target,right,yellow,imageability,conservative,no,3,0,0.786462682945,-,-
2019_Oct_30,213,001,4,source,33,MEANS,HF,target,left,aqua,pleasantness,conservative,yes,2,1,0.800078746681,-,-
2019_Oct_30,213,001,4,source,34,REREAD,LF,target,left,aqua,pleasantness,conservative,no,3,1,0.493508531257,-,-
2019_Oct_30,213,001,4,source,35,USUAL,HF,target,left,aqua,pleasantness,liberal,no,3,1,0.373558785424,-,-
2019_Oct_30,213,001,4,source,36,SITTING,HF,target,left,aqua,pleasantness,liberal,yes,3,1,0.520172421504,-,-
2019_Oct_30,213,001,4,source,37,RIMMED,LF,target,left,aqua,pleasantness,conservative,no,3,1,0.813147103053,-,-
2019_Oct_30,213,001,4,source,38,PINAFORE,LF,target,right,yellow,imageability,conservative,no,8,1,1.35988186531,-,-
2019_Oct_30,213,001,4,source,39,SEVEN,HF,target,right,yellow,imageability,conservative,no,8,1,2.67932503683,-,-
2019_Oct_30,213,001,4,source,40,PANACHE,LF,target,left,aqua,pleasantness,conservative,no,2,1,0.813396394223,-,-
2019_Oct_30,213,001,4,source,41,THUDDING,LF,target,right,yellow,imageability,liberal,no,3,0,0.680118735918,-,-
2019_Oct_30,213,001,4,source,42,DWINDLE,LF,target,right,yellow,imageability,liberal,yes,3,0,0.426857237546,-,-
2019_Oct_30,213,001,4,source,43,HALLMARK,LF,target,right,yellow,imageability,liberal,no,3,0,0.786996459332,-,-
2019_Oct_30,213,001,4,source,44,NUMBER,HF,target,left,aqua,pleasantness,liberal,yes,3,1,0.44042197663,-,-
2019_Oct_30,213,001,4,source,45,MERELY,HF,target,right,yellow,imageability,conservative,no,3,0,0.320255200837,-,-
2019_Oct_30,213,001,4,source,46,ADVERSELY,LF,target,right,yellow,imageability,liberal,no,7,1,0.293573713566,-,-
2019_Oct_30,213,001,4,source,47,REACHED,HF,target,left,aqua,pleasantness,conservative,no,3,1,0.293706791058,-,-
2019_Oct_30,213,001,4,recog,0,EARLIER,HF,target,left,aqua,pleasantness,conservative,no,z,1,3.77219003026,1,567
2019_Oct_30,213,001,4,recog,1,NEMESIS,LF,target,left,aqua,pleasantness,liberal,no,z,1,0.773380028991,3,570
2019_Oct_30,213,001,4,recog,2,ORDER,HF,lure,-,-,-,conservative,no,m,1,1.06661609966,3,573
2019_Oct_30,213,001,4,recog,3,INCLUDING,HF,target,left,aqua,pleasantness,liberal,no,z,1,2.49269980137,3,576
2019_Oct_30,213,001,4,recog,4,HORDE,LF,lure,-,-,-,liberal,no,m,1,1.42654342396,1,577
2019_Oct_30,213,001,4,recog,5,ENERGY,HF,target,right,yellow,imageability,liberal,no,z,1,0.973343075241,3,580
2019_Oct_30,213,001,4,recog,6,OSTRACISM,LF,lure,-,-,-,liberal,no,m,1,1.47978725198,1,581
2019_Oct_30,213,001,4,recog,7,KNOWLEDGE,HF,target,left,aqua,pleasantness,liberal,no,m,0,1.23989875846,-3,578
2019_Oct_30,213,001,4,recog,8,MERELY,HF,target,right,yellow,imageability,conservative,no,m,0,1.03974801062,-1,577
2019_Oct_30,213,001,4,recog,9,FOAMING,LF,lure,-,-,-,liberal,no,m,1,2.54603381415,1,578
2019_Oct_30,213,001,4,recog,10,RAVAGES,LF,target,right,yellow,imageability,conservative,no,m,0,0.866482948851,-1,577
2019_Oct_30,213,001,4,recog,11,PIRACY,LF,lure,-,-,-,conservative,no,m,1,0.866853952768,3,580
2019_Oct_30,213,001,4,recog,12,LATER,HF,lure,-,-,-,conservative,no,m,1,1.37315075444,3,583
2019_Oct_30,213,001,4,recog,13,SEVEN,HF,target,right,yellow,imageability,conservative,no,z,1,1.01332168019,1,584
2019_Oct_30,213,001,4,recog,14,NUMBER,HF,target,left,aqua,pleasantness,liberal,no,m,0,1.63975043021,-3,581
2019_Oct_30,213,001,4,recog,15,MYSELF,HF,lure,-,-,-,conservative,no,m,1,1.4797810197,3,584
2019_Oct_30,213,001,4,recog,16,AREAS,HF,lure,-,-,-,liberal,no,m,1,0.84014753638,1,585
2019_Oct_30,213,001,4,recog,17,LONGER,HF,target,left,aqua,pleasantness,liberal,no,z,1,0.653481974415,3,588
2019_Oct_30,213,001,4,recog,18,ACROSS,HF,target,right,yellow,imageability,conservative,yes,m,0,1.33318534725,-1,587
2019_Oct_30,213,001,4,recog,19,USING,HF,lure,-,-,-,conservative,no,m,1,1.2129826442,3,590
2019_Oct_30,213,001,4,recog,20,LITANY,LF,lure,-,-,-,liberal,no,m,1,0.959985101186,1,591
2019_Oct_30,213,001,4,recog,21,FATHER,HF,target,left,aqua,pleasantness,conservative,no,z,1,0.986654123899,1,592
2019_Oct_30,213,001,4,recog,22,LOOKED,HF,lure,-,-,-,liberal,no,z,0,1.09328622219,-1,591
2019_Oct_30,213,001,4,recog,23,HELICAL,LF,lure,-,-,-,liberal,no,m,1,1.55972906449,1,592
2019_Oct_30,213,001,4,recog,24,WADDLED,LF,lure,-,-,-,liberal,no,m,1,1.47985104119,1,593
2019_Oct_30,213,001,4,recog,25,NIMBLE,LF,lure,-,-,-,conservative,no,m,1,0.826762800185,3,596
2019_Oct_30,213,001,4,recog,26,TACITLY,LF,target,left,aqua,pleasantness,conservative,no,z,1,1.23971398971,1,597
2019_Oct_30,213,001,4,recog,27,ENAMELLED,LF,lure,-,-,-,conservative,no,m,1,1.30676928176,3,600
2019_Oct_30,213,001,4,recog,28,NOURISH,LF,target,left,aqua,pleasantness,liberal,no,z,1,2.33282424166,3,603
2019_Oct_30,213,001,4,recog,29,FREEDOM,HF,lure,-,-,-,liberal,no,m,1,1.47979055142,1,604
2019_Oct_30,213,001,4,recog,30,PINAFORE,LF,target,right,yellow,imageability,conservative,no,z,1,1.66638169264,1,605
2019_Oct_30,213,001,4,recog,31,ADVERSELY,LF,target,right,yellow,imageability,liberal,no,m,0,1.79965018583,-3,602
2019_Oct_30,213,001,4,recog,32,REREAD,LF,target,left,aqua,pleasantness,conservative,yes,m,0,0.946641058109,-1,601
2019_Oct_30,213,001,4,recog,33,HARDLY,HF,target,right,yellow,imageability,liberal,no,m,0,1.71971350579,-3,598
2019_Oct_30,213,001,4,recog,34,HOTEL,HF,target,left,aqua,pleasantness,conservative,no,m,0,1.17323829963,-1,597
2019_Oct_30,213,001,4,recog,35,WATCH,HF,lure,-,-,-,liberal,no,m,1,1.67949660781,1,598
2019_Oct_30,213,001,4,recog,36,HEALTH,HF,target,right,yellow,imageability,conservative,no,z,1,1.17325223061,1,599
2019_Oct_30,213,001,4,recog,37,DAFFODILS,LF,target,left,aqua,pleasantness,liberal,no,z,1,0.840035721958,3,602
2019_Oct_30,213,001,4,recog,38,MEANS,HF,target,left,aqua,pleasantness,conservative,no,m,0,0.826472815898,-1,601
2019_Oct_30,213,001,4,recog,39,ENMESHED,LF,lure,-,-,-,liberal,no,z,0,2.07969912022,-1,600
2019_Oct_30,213,001,4,recog,40,USUAL,HF,target,left,aqua,pleasantness,liberal,no,m,0,0.78646231634,-3,597
2019_Oct_30,213,001,4,recog,41,NEEDED,HF,lure,-,-,-,liberal,no,z,0,1.11999007235,-1,596
2019_Oct_30,213,001,4,recog,42,WETTER,LF,lure,-,-,-,conservative,no,m,1,1.53311173304,3,599
2019_Oct_30,213,001,4,recog,43,DUELLING,LF,lure,-,-,-,liberal,no,m,1,1.03995734188,1,600
2019_Oct_30,213,001,4,recog,44,WEEKS,HF,lure,-,-,-,liberal,no,m,1,0.786721505836,1,601
2019_Oct_30,213,001,4,recog,45,SITTING,HF,target,left,aqua,pleasantness,liberal,no,m,0,0.866692646717,-3,598
2019_Oct_30,213,001,4,recog,46,PEWTER,LF,lure,-,-,-,liberal,no,m,1,0.533526729513,1,599
2019_Oct_30,213,001,4,recog,47,HIKING,LF,target,right,yellow,imageability,liberal,no,z,1,0.746726037069,3,602
2019_Oct_30,213,001,4,recog,48,HOIST,LF,target,right,yellow,imageability,conservative,no,m,0,1.17328669144,-1,601
2019_Oct_30,213,001,4,recog,49,SUPPORT,HF,target,right,yellow,imageability,liberal,no,z,1,0.666773959631,3,604
2019_Oct_30,213,001,4,recog,50,YARDSTICK,LF,lure,-,-,-,conservative,no,m,1,0.640141597385,3,607
2019_Oct_30,213,001,4,recog,51,ZOOLOGY,LF,target,left,aqua,pleasantness,conservative,no,m,0,0.773389560712,-1,606
2019_Oct_30,213,001,4,recog,52,TRIED,HF,target,right,yellow,imageability,conservative,no,z,1,0.840017391725,1,607
2019_Oct_30,213,001,4,recog,53,EITHER,HF,target,left,aqua,pleasantness,conservative,no,z,1,0.573570590094,1,608
2019_Oct_30,213,001,4,recog,54,REACHED,HF,target,left,aqua,pleasantness,conservative,no,z,1,0.680119102522,1,609
2019_Oct_30,213,001,4,recog,55,AMEND,LF,target,right,yellow,imageability,conservative,no,z,1,0.600114967222,1,610
2019_Oct_30,213,001,4,recog,56,RIMMED,LF,target,left,aqua,pleasantness,conservative,no,z,1,0.693455813507,1,611
2019_Oct_30,213,001,4,recog,57,THOUSAND,HF,target,right,yellow,imageability,liberal,no,z,1,0.66688870689,3,614
2019_Oct_30,213,001,4,recog,58,PURCHASER,LF,target,right,yellow,imageability,liberal,no,z,1,0.573241379108,3,617
2019_Oct_30,213,001,4,recog,59,FLICKS,LF,lure,-,-,-,conservative,no,z,0,0.533511332117,-3,614
2019_Oct_30,213,001,4,recog,60,MAYBE,HF,lure,-,-,-,conservative,no,z,0,0.706869144865,-3,611
2019_Oct_30,213,001,4,recog,61,WEBBED,LF,target,left,aqua,pleasantness,liberal,no,z,1,1.08013684619,3,614
2019_Oct_30,213,001,4,recog,62,CUSTODIAN,LF,lure,-,-,-,liberal,no,z,0,0.760117005544,-1,613
2019_Oct_30,213,001,4,recog,63,SLOWLY,HF,lure,-,-,-,liberal,no,m,1,0.626528466485,1,614
2019_Oct_30,213,001,4,recog,64,ETHER,LF,lure,-,-,-,liberal,no,m,1,0.320248235349,1,615
2019_Oct_30,213,001,4,recog,65,DWINDLE,LF,target,right,yellow,imageability,liberal,no,m,0,0.10700713486,-3,612
2019_Oct_30,213,001,4,recog,66,PANACHE,LF,target,left,aqua,pleasantness,conservative,no,m,0,2.66603121859,-1,611
2019_Oct_30,213,001,4,recog,67,PRYING,LF,lure,-,-,-,liberal,no,m,1,1.99955750817,1,612
2019_Oct_30,213,001,4,recog,68,WHETHER,HF,lure,-,-,-,liberal,no,z,0,1.75972730479,-1,611
2019_Oct_30,213,001,4,recog,69,DEGREE,HF,target,right,yellow,imageability,liberal,no,z,1,1.933153306,3,614
2019_Oct_30,213,001,4,recog,70,WISPY,LF,target,left,aqua,pleasantness,conservative,no,z,1,2.75928664598,1,615
2019_Oct_30,213,001,4,recog,71,LOTTERY,LF,target,right,yellow,imageability,conservative,no,z,1,1.81298323077,1,616
2019_Oct_30,213,001,4,recog,72,LIGHT,HF,target,right,yellow,imageability,conservative,no,z,1,1.55974409528,1,617
2019_Oct_30,213,001,4,recog,73,ODOURS,LF,target,right,yellow,imageability,conservative,no,z,1,1.53310843359,1,618
2019_Oct_30,213,001,4,recog,74,BINDINGS,LF,lure,-,-,-,conservative,no,z,0,1.23986613064,-3,615
2019_Oct_30,213,001,4,recog,75,POWER,HF,lure,-,-,-,conservative,no,m,1,1.57316439213,3,618
2019_Oct_30,213,001,4,recog,76,NUTSHELL,LF,lure,-,-,-,conservative,no,m,1,0.760103441171,3,621
2019_Oct_30,213,001,4,recog,77,BLOOD,HF,lure,-,-,-,liberal,no,m,1,0.866730406997,1,622
2019_Oct_30,213,001,4,recog,78,APART,HF,lure,-,-,-,conservative,no,m,1,0.759827387861,3,625
2019_Oct_30,213,001,4,recog,79,THUDDING,LF,target,right,yellow,imageability,liberal,no,z,1,1.25323510284,3,628
2019_Oct_30,213,001,4,recog,80,EIGHT,HF,lure,-,-,-,conservative,no,m,1,0.733078811937,3,631
2019_Oct_30,213,001,4,recog,81,POOLED,LF,target,left,aqua,pleasantness,liberal,no,z,1,1.23990645715,3,634
2019_Oct_30,213,001,4,recog,82,WRONG,HF,lure,-,-,-,conservative,no,m,1,0.92000063056,3,637
2019_Oct_30,213,001,4,recog,83,ACACIA,LF,lure,-,-,-,conservative,no,z,0,1.17324819795,-3,634
2019_Oct_30,213,001,4,recog,84,GROUND,HF,target,right,yellow,imageability,liberal,no,z,1,1.50647130549,3,637
2019_Oct_30,213,001,4,recog,85,RIVER,HF,lure,-,-,-,conservative,yes,m,1,1.23859034642,3,640
2019_Oct_30,213,001,4,recog,86,INSIDE,HF,lure,-,-,-,liberal,no,z,0,1.10660790238,-1,639
2019_Oct_30,213,001,4,recog,87,WINDOW,HF,lure,-,-,-,conservative,no,m,1,0.666545931531,3,642
2019_Oct_30,213,001,4,recog,88,HALLMARK,LF,target,right,yellow,imageability,liberal,no,z,1,1.69302798587,3,645
2019_Oct_30,213,001,4,recog,89,ANEMONES,LF,lure,-,-,-,conservative,no,m,1,1.23985623232,3,648
2019_Oct_30,213,001,4,recog,90,SLEEP,HF,lure,-,-,-,liberal,no,z,0,0.813418390503,-1,647
2019_Oct_30,213,001,4,recog,91,HACKNEY,LF,target,left,aqua,pleasantness,liberal,yes,z,1,1.09331701698,3,650
2019_Oct_30,213,001,4,recog,92,RICKETS,LF,lure,-,-,-,conservative,no,z,0,1.34627350028,-3,647
2019_Oct_30,213,001,4,recog,93,CONCERNED,HF,lure,-,-,-,conservative,no,m,1,0.773409357364,3,650
2019_Oct_30,213,001,4,recog,94,DRINK,HF,lure,-,-,-,liberal,no,z,0,1.75975480014,-1,649
2019_Oct_30,213,001,4,recog,95,UNSAVOURY,LF,lure,-,-,-,conservative,no,m,1,0.693325302247,3,652
