date,subj,session,cycle,task,trial,item,wf,type,source,colour,encoding,bias,null,response,corr,rt,points,total
2019_Oct_31,214,001,0,source,0,SOLEMNITY,LF,target,right,aqua,imageability,liberal,no,7,1,3.5589864738,-,-
2019_Oct_31,214,001,0,source,1,EMIGRATED,LF,target,left,yellow,pleasantness,conservative,no,3,1,2.78597588337,-,-
2019_Oct_31,214,001,0,source,2,SEPULCHRE,LF,target,left,yellow,pleasantness,conservative,no,8,0,1.54639841569,-,-
2019_Oct_31,214,001,0,source,3,LEFTISTS,LF,target,right,aqua,imageability,liberal,no,8,1,1.69300564862,-,-
2019_Oct_31,214,001,0,source,4,SYSTEM,HF,target,left,yellow,pleasantness,conservative,no,3,1,1.70635880786,-,-
2019_Oct_31,214,001,0,source,5,GARDEN,HF,target,right,aqua,imageability,conservative,no,9,1,1.34648156132,-,-
2019_Oct_31,214,001,0,source,6,PHYSICAL,HF,target,left,yellow,pleasantness,liberal,no,3,1,1.78632012388,-,-
2019_Oct_31,214,001,0,source,7,ZEBRA,LF,target,left,yellow,pleasantness,conservative,no,7,0,1.35960632669,-,-
2019_Oct_31,214,001,0,source,8,TRADE,HF,target,left,yellow,pleasantness,liberal,no,3,1,1.61302526923,-,-
2019_Oct_31,214,001,0,source,9,ADENOIDS,LF,target,right,aqua,imageability,liberal,no,8,1,1.1863173377,-,-
2019_Oct_31,214,001,0,source,10,POWER,HF,target,right,aqua,imageability,liberal,no,7,1,1.79941262816,-,-
2019_Oct_31,214,001,0,source,11,MIGHTILY,LF,target,left,yellow,pleasantness,liberal,no,7,0,1.39981684498,-,-
2019_Oct_31,214,001,0,source,12,FLUFF,LF,target,left,yellow,pleasantness,conservative,no,7,0,1.63966816534,-,-
2019_Oct_31,214,001,0,source,13,WHOLE,HF,target,right,aqua,imageability,liberal,no,7,1,1.37290632845,-,-
2019_Oct_31,214,001,0,source,14,ASKED,HF,target,left,yellow,pleasantness,conservative,no,8,0,1.18656882757,-,-
2019_Oct_31,214,001,0,source,15,LOBBIES,LF,target,right,aqua,imageability,conservative,no,8,1,1.50649951022,-,-
2019_Oct_31,214,001,0,source,16,FRONT,HF,target,left,yellow,pleasantness,liberal,no,3,1,1.59981178586,-,-
2019_Oct_31,214,001,0,source,17,MATERIAL,HF,target,left,yellow,pleasantness,conservative,no,3,1,0.826514145023,-,-
2019_Oct_31,214,001,0,source,18,PREPARED,HF,target,right,aqua,imageability,conservative,no,7,1,1.18658532472,-,-
2019_Oct_31,214,001,0,source,19,BEAUTIFUL,HF,target,right,aqua,imageability,liberal,no,8,1,1.11967545341,-,-
2019_Oct_31,214,001,0,source,20,GLIDED,LF,target,left,yellow,pleasantness,liberal,no,8,0,1.91963798656,-,-
2019_Oct_31,214,001,0,source,21,POACHED,LF,target,left,yellow,pleasantness,liberal,no,2,1,1.69307347024,-,-
2019_Oct_31,214,001,0,source,22,WESTERN,HF,target,right,aqua,imageability,liberal,no,7,1,1.17321603494,-,-
2019_Oct_31,214,001,0,source,23,CLASS,HF,target,left,yellow,pleasantness,liberal,yes,3,1,0.973326675818,-,-
2019_Oct_31,214,001,0,source,24,ABATED,LF,target,left,yellow,pleasantness,liberal,no,8,0,1.70613517984,-,-
2019_Oct_31,214,001,0,source,25,SUMMER,HF,target,right,aqua,imageability,liberal,yes,7,1,1.1867378317,-,-
2019_Oct_31,214,001,0,source,26,ARCADES,LF,target,right,aqua,imageability,conservative,no,3,0,2.03973723341,-,-
2019_Oct_31,214,001,0,source,27,CIVILITY,LF,target,left,yellow,pleasantness,liberal,no,7,0,1.14658523674,-,-
2019_Oct_31,214,001,0,source,28,ECONOMIC,HF,target,left,yellow,pleasantness,conservative,no,2,1,2.11961019802,-,-
2019_Oct_31,214,001,0,source,29,LABOUR,HF,target,right,aqua,imageability,conservative,no,7,1,1.35959386218,-,-
2019_Oct_31,214,001,0,source,30,POLICE,HF,target,right,aqua,imageability,conservative,no,8,1,1.39957928603,-,-
2019_Oct_31,214,001,0,source,31,PAUNCH,LF,target,right,aqua,imageability,liberal,yes,8,1,0.706743374745,-,-
2019_Oct_31,214,001,0,source,32,QUALITY,HF,target,left,yellow,pleasantness,conservative,no,3,1,2.0262887573,-,-
2019_Oct_31,214,001,0,source,33,HOTEL,HF,target,left,yellow,pleasantness,conservative,no,3,1,1.95957685179,-,-
2019_Oct_31,214,001,0,source,34,REEDY,LF,target,left,yellow,pleasantness,conservative,yes,2,1,0.813071167969,-,-
2019_Oct_31,214,001,0,source,35,CIRCUSES,LF,target,right,aqua,imageability,liberal,no,8,1,1.65296083503,-,-
2019_Oct_31,214,001,0,source,36,YACHTING,LF,target,right,aqua,imageability,conservative,no,9,1,1.06667597839,-,-
2019_Oct_31,214,001,0,source,37,EBONY,LF,target,right,aqua,imageability,conservative,no,8,1,0.946731071537,-,-
2019_Oct_31,214,001,0,source,38,DINER,LF,target,right,aqua,imageability,conservative,no,3,0,1.74608724279,-,-
2019_Oct_31,214,001,0,source,39,BEGAN,HF,target,right,aqua,imageability,conservative,no,7,1,1.98652696147,-,-
2019_Oct_31,214,001,0,source,40,LEMURS,LF,target,right,aqua,imageability,conservative,no,8,1,1.13299781798,-,-
2019_Oct_31,214,001,0,source,41,LARGE,HF,target,left,yellow,pleasantness,liberal,no,3,1,1.78610602754,-,-
2019_Oct_31,214,001,0,source,42,AFIELD,LF,target,left,yellow,pleasantness,liberal,no,7,0,1.99967189003,-,-
2019_Oct_31,214,001,0,source,43,BOLDNESS,LF,target,left,yellow,pleasantness,conservative,no,3,1,2.03941462249,-,-
2019_Oct_31,214,001,0,source,44,ENTIRELY,HF,target,right,aqua,imageability,conservative,no,3,0,1.1196853517,-,-
2019_Oct_31,214,001,0,source,45,PIECE,HF,target,left,yellow,pleasantness,liberal,no,3,1,0.946641253725,-,-
2019_Oct_31,214,001,0,source,46,GNOMES,LF,target,right,aqua,imageability,liberal,no,9,1,1.31983206635,-,-
2019_Oct_31,214,001,0,source,47,TABLE,HF,target,right,aqua,imageability,liberal,no,7,1,1.41323196018,-,-
2019_Oct_31,214,001,0,recog,0,WESTERN,HF,target,right,aqua,imageability,liberal,no,z,1,1.58639153821,3,3
2019_Oct_31,214,001,0,recog,1,ECHELONS,LF,lure,-,-,-,conservative,no,z,0,1.99936797588,-3,0
2019_Oct_31,214,001,0,recog,2,ECONOMIC,HF,target,left,yellow,pleasantness,conservative,no,z,1,1.02661796708,1,1
2019_Oct_31,214,001,0,recog,3,QUALITY,HF,target,left,yellow,pleasantness,conservative,no,z,1,0.746783789094,1,2
2019_Oct_31,214,001,0,recog,4,SNIGGERED,LF,lure,-,-,-,conservative,no,m,1,1.079870765,3,5
2019_Oct_31,214,001,0,recog,5,LARGE,HF,target,left,yellow,pleasantness,liberal,no,z,1,0.786709090003,3,8
2019_Oct_31,214,001,0,recog,6,GETTING,HF,lure,-,-,-,liberal,no,m,1,1.0263994715,1,9
2019_Oct_31,214,001,0,recog,7,CARRIED,HF,lure,-,-,-,liberal,no,z,0,1.0799708477,-1,8
2019_Oct_31,214,001,0,recog,8,YACHTING,LF,target,right,aqua,imageability,conservative,no,m,0,0.746501871143,-1,7
2019_Oct_31,214,001,0,recog,9,TRADE,HF,target,left,yellow,pleasantness,liberal,no,z,1,0.946679747073,3,10
2019_Oct_31,214,001,0,recog,10,USHERS,LF,lure,-,-,-,liberal,yes,z,0,0.733177673565,-1,9
2019_Oct_31,214,001,0,recog,11,RABBIS,LF,lure,-,-,-,conservative,no,m,1,0.973365169165,3,12
2019_Oct_31,214,001,0,recog,12,SKETCHY,LF,lure,-,-,-,conservative,no,m,1,1.28016412097,3,15
2019_Oct_31,214,001,0,recog,13,SIMILAR,HF,lure,-,-,-,liberal,no,m,1,1.21295730098,1,16
2019_Oct_31,214,001,0,recog,14,BEGAN,HF,target,right,aqua,imageability,conservative,no,z,1,0.960051969686,1,17
2019_Oct_31,214,001,0,recog,15,SEPULCHRE,LF,target,left,yellow,pleasantness,conservative,no,z,1,0.760079758217,1,18
2019_Oct_31,214,001,0,recog,16,PAUNCH,LF,target,right,aqua,imageability,liberal,no,z,1,1.07995874979,3,21
2019_Oct_31,214,001,0,recog,17,LABOUR,HF,target,right,aqua,imageability,conservative,no,z,1,0.853833790854,1,22
2019_Oct_31,214,001,0,recog,18,EXHALED,LF,lure,-,-,-,liberal,no,m,1,1.7327615788,1,23
2019_Oct_31,214,001,0,recog,19,PIECE,HF,target,left,yellow,pleasantness,liberal,no,z,1,0.773394424111,3,26
2019_Oct_31,214,001,0,recog,20,MIGHTILY,LF,target,left,yellow,pleasantness,liberal,no,z,1,0.920144265738,3,29
2019_Oct_31,214,001,0,recog,21,POACHED,LF,target,left,yellow,pleasantness,liberal,no,z,1,0.626809187372,3,32
2019_Oct_31,214,001,0,recog,22,SAYING,HF,lure,-,-,-,liberal,no,m,1,0.680094246381,1,33
2019_Oct_31,214,001,0,recog,23,ALREADY,HF,lure,-,-,-,conservative,no,m,1,1.62640262429,3,36
2019_Oct_31,214,001,0,recog,24,EBONY,LF,target,right,aqua,imageability,conservative,no,z,1,0.733407533845,1,37
2019_Oct_31,214,001,0,recog,25,CIRCUSES,LF,target,right,aqua,imageability,liberal,no,z,1,0.773539965628,3,40
2019_Oct_31,214,001,0,recog,26,MATERIAL,HF,target,left,yellow,pleasantness,conservative,no,z,1,1.0133260306,1,41
2019_Oct_31,214,001,0,recog,27,MILES,HF,lure,-,-,-,liberal,no,m,1,1.1863844261,1,42
2019_Oct_31,214,001,0,recog,28,WHOLE,HF,target,right,aqua,imageability,liberal,no,z,1,1.02668945473,3,45
2019_Oct_31,214,001,0,recog,29,ROVERS,LF,lure,-,-,-,liberal,no,m,1,1.37291036109,1,46
2019_Oct_31,214,001,0,recog,30,MOISTENED,LF,lure,-,-,-,conservative,no,m,1,2.18593643685,3,49
2019_Oct_31,214,001,0,recog,31,SYMBOLIZE,LF,lure,-,-,-,liberal,no,m,1,1.57311389925,1,50
2019_Oct_31,214,001,0,recog,32,GLEANED,LF,lure,-,-,-,liberal,no,z,0,0.840092765303,-1,49
2019_Oct_31,214,001,0,recog,33,LEMURS,LF,target,right,aqua,imageability,conservative,no,z,1,1.03991796884,1,50
2019_Oct_31,214,001,0,recog,34,POLICE,HF,target,right,aqua,imageability,conservative,no,z,1,0.640429967036,1,51
2019_Oct_31,214,001,0,recog,35,ZEBRA,LF,target,left,yellow,pleasantness,conservative,no,z,1,0.600242178151,1,52
2019_Oct_31,214,001,0,recog,36,SECOND,HF,lure,-,-,-,conservative,no,m,1,0.760154911897,3,55
2019_Oct_31,214,001,0,recog,37,LATER,HF,lure,-,-,-,conservative,no,m,1,1.29293658056,3,58
2019_Oct_31,214,001,0,recog,38,PHYSICAL,HF,target,left,yellow,pleasantness,liberal,no,z,1,0.866747392717,3,61
2019_Oct_31,214,001,0,recog,39,ABATED,LF,target,left,yellow,pleasantness,liberal,yes,m,0,1.07996314903,-3,58
2019_Oct_31,214,001,0,recog,40,COPIOUSLY,LF,lure,-,-,-,conservative,no,m,1,1.43954161388,3,61
2019_Oct_31,214,001,0,recog,41,LOBBIES,LF,target,right,aqua,imageability,conservative,no,z,1,0.919736236245,1,62
2019_Oct_31,214,001,0,recog,42,HAVING,HF,lure,-,-,-,conservative,no,m,1,1.5597816364,3,65
2019_Oct_31,214,001,0,recog,43,BRING,HF,lure,-,-,-,conservative,no,m,1,0.866679204501,3,68
2019_Oct_31,214,001,0,recog,44,HOTEL,HF,target,left,yellow,pleasantness,conservative,yes,m,0,0.799816625021,-1,67
2019_Oct_31,214,001,0,recog,45,WEEKS,HF,lure,-,-,-,liberal,no,m,1,0.733402034795,1,68
2019_Oct_31,214,001,0,recog,46,BEAUTIFUL,HF,target,right,aqua,imageability,liberal,no,z,1,0.640200106755,3,71
2019_Oct_31,214,001,0,recog,47,SYSTEM,HF,target,left,yellow,pleasantness,conservative,no,z,1,0.906440267122,1,72
2019_Oct_31,214,001,0,recog,48,ROUND,HF,lure,-,-,-,conservative,no,m,1,0.919990658947,3,75
2019_Oct_31,214,001,0,recog,49,TABLE,HF,target,right,aqua,imageability,liberal,no,z,1,0.693402313414,3,78
2019_Oct_31,214,001,0,recog,50,VILLAGE,HF,lure,-,-,-,conservative,no,m,1,1.02662933178,3,81
2019_Oct_31,214,001,0,recog,51,FRACTIONS,LF,lure,-,-,-,conservative,no,m,1,0.680152536309,3,84
2019_Oct_31,214,001,0,recog,52,ROWAN,LF,lure,-,-,-,conservative,no,m,1,0.626593991225,3,87
2019_Oct_31,214,001,0,recog,53,BOWER,LF,lure,-,-,-,liberal,no,m,1,1.10659944628,1,88
2019_Oct_31,214,001,0,recog,54,MAGGOT,LF,lure,-,-,-,conservative,no,m,1,0.773531900354,3,91
2019_Oct_31,214,001,0,recog,55,CIVILITY,LF,target,left,yellow,pleasantness,liberal,no,z,1,0.680063085098,3,94
2019_Oct_31,214,001,0,recog,56,TACITLY,LF,lure,-,-,-,conservative,no,m,1,0.786491694235,3,97
2019_Oct_31,214,001,0,recog,57,FLUFF,LF,target,left,yellow,pleasantness,conservative,no,z,1,0.893535830342,1,98
2019_Oct_31,214,001,0,recog,58,SUBJECT,HF,lure,-,-,-,liberal,no,m,1,0.880176438845,1,99
2019_Oct_31,214,001,0,recog,59,DINER,LF,target,right,aqua,imageability,conservative,no,z,1,0.626758229511,1,100
2019_Oct_31,214,001,0,recog,60,GARDEN,HF,target,right,aqua,imageability,conservative,no,z,1,0.786467498416,1,101
2019_Oct_31,214,001,0,recog,61,ARRIVED,HF,lure,-,-,-,conservative,no,m,1,0.946650052205,3,104
2019_Oct_31,214,001,0,recog,62,ENTIRELY,HF,target,right,aqua,imageability,conservative,no,z,1,0.999938410642,1,105
2019_Oct_31,214,001,0,recog,63,FREEDOM,HF,lure,-,-,-,liberal,no,m,1,0.786779477839,1,106
2019_Oct_31,214,001,0,recog,64,POWER,HF,target,right,aqua,imageability,liberal,no,z,1,0.640159047183,3,109
2019_Oct_31,214,001,0,recog,65,CUDDLE,LF,lure,-,-,-,liberal,no,m,1,0.760129616269,1,110
2019_Oct_31,214,001,0,recog,66,HESITATES,LF,lure,-,-,-,liberal,no,m,1,0.813132757326,1,111
2019_Oct_31,214,001,0,recog,67,FRONT,HF,target,left,yellow,pleasantness,liberal,no,m,0,1.18660585451,-3,108
2019_Oct_31,214,001,0,recog,68,PREPARED,HF,target,right,aqua,imageability,conservative,no,z,1,0.814314686421,1,109
2019_Oct_31,214,001,0,recog,69,CLASS,HF,target,left,yellow,pleasantness,liberal,no,z,1,0.666562917928,3,112
2019_Oct_31,214,001,0,recog,70,ADENOIDS,LF,target,right,aqua,imageability,liberal,no,z,1,0.893331632294,3,115
2019_Oct_31,214,001,0,recog,71,POPES,LF,lure,-,-,-,liberal,yes,z,0,0.919997624411,-1,114
2019_Oct_31,214,001,0,recog,72,SEVEN,HF,lure,-,-,-,conservative,no,m,1,0.653605323667,3,117
2019_Oct_31,214,001,0,recog,73,AFIELD,LF,target,left,yellow,pleasantness,liberal,no,z,1,0.733169974896,3,120
2019_Oct_31,214,001,0,recog,74,ASKED,HF,target,left,yellow,pleasantness,conservative,no,z,1,0.999986802281,1,121
2019_Oct_31,214,001,0,recog,75,COMES,HF,lure,-,-,-,conservative,no,m,1,0.600149794116,3,124
2019_Oct_31,214,001,0,recog,76,TWENTY,HF,lure,-,-,-,liberal,no,m,1,0.826494715046,1,125
2019_Oct_31,214,001,0,recog,77,VOICE,HF,lure,-,-,-,conservative,no,m,1,0.773455646864,3,128
2019_Oct_31,214,001,0,recog,78,HOWEVER,HF,lure,-,-,-,liberal,no,m,1,0.666550086811,1,129
2019_Oct_31,214,001,0,recog,79,ERADICATE,LF,lure,-,-,-,liberal,no,m,1,0.599834148659,1,130
2019_Oct_31,214,001,0,recog,80,WETTER,LF,lure,-,-,-,liberal,no,m,1,0.680198728326,1,131
2019_Oct_31,214,001,0,recog,81,PRACTICE,HF,lure,-,-,-,liberal,no,z,0,0.760079391614,-1,130
2019_Oct_31,214,001,0,recog,82,AIRBED,LF,lure,-,-,-,conservative,no,m,1,0.78676518031,3,133
2019_Oct_31,214,001,0,recog,83,LEFTISTS,LF,target,right,aqua,imageability,liberal,no,z,1,0.88007085709,3,136
2019_Oct_31,214,001,0,recog,84,REEDY,LF,target,left,yellow,pleasantness,conservative,no,z,1,1.14658230391,1,137
2019_Oct_31,214,001,0,recog,85,SUMMER,HF,target,right,aqua,imageability,liberal,no,z,1,0.599910768753,3,140
2019_Oct_31,214,001,0,recog,86,SOLEMNITY,LF,target,right,aqua,imageability,liberal,no,z,1,0.773561595223,3,143
2019_Oct_31,214,001,0,recog,87,GNOMES,LF,target,right,aqua,imageability,liberal,no,z,1,0.586744943806,3,146
2019_Oct_31,214,001,0,recog,88,GLUTINOUS,LF,lure,-,-,-,liberal,no,z,0,1.0931865307,-1,145
2019_Oct_31,214,001,0,recog,89,ARCADES,LF,target,right,aqua,imageability,conservative,no,z,1,0.693469768424,1,146
2019_Oct_31,214,001,0,recog,90,TOTAL,HF,lure,-,-,-,liberal,no,m,1,1.55975524096,1,147
2019_Oct_31,214,001,0,recog,91,BOLDNESS,LF,target,left,yellow,pleasantness,conservative,no,z,1,0.733509082964,1,148
2019_Oct_31,214,001,0,recog,92,ERODE,LF,lure,-,-,-,conservative,no,m,1,0.760099188194,3,151
2019_Oct_31,214,001,0,recog,93,FORCE,HF,lure,-,-,-,conservative,no,m,1,0.76012301741,3,154
2019_Oct_31,214,001,0,recog,94,GLIDED,LF,target,left,yellow,pleasantness,liberal,no,z,1,0.613409836114,3,157
2019_Oct_31,214,001,0,recog,95,EMIGRATED,LF,target,left,yellow,pleasantness,conservative,no,z,1,0.760094788954,1,158
2019_Oct_31,214,001,1,source,0,ALDER,LF,target,left,yellow,pleasantness,conservative,no,3,1,2.51914512506,-,-
2019_Oct_31,214,001,1,source,1,TIPSY,LF,target,right,aqua,imageability,conservative,no,9,1,1.26660163124,-,-
2019_Oct_31,214,001,1,source,2,MOTHER,HF,target,left,yellow,pleasantness,liberal,no,1,1,1.2266063091,-,-
2019_Oct_31,214,001,1,source,3,INTEREST,HF,target,right,aqua,imageability,liberal,no,7,1,1.39981684498,-,-
2019_Oct_31,214,001,1,source,4,GIVEN,HF,target,left,yellow,pleasantness,liberal,no,2,1,1.22629029704,-,-
2019_Oct_31,214,001,1,source,5,HOURS,HF,target,left,yellow,pleasantness,liberal,no,2,1,0.959964718097,-,-
2019_Oct_31,214,001,1,source,6,ITSELF,HF,target,left,yellow,pleasantness,conservative,no,1,1,0.786526154947,-,-
2019_Oct_31,214,001,1,source,7,PRIVATE,HF,target,right,aqua,imageability,liberal,no,7,1,1.27992142958,-,-
2019_Oct_31,214,001,1,source,8,AHEAD,HF,target,right,aqua,imageability,conservative,no,8,1,1.50630044462,-,-
2019_Oct_31,214,001,1,source,9,TREES,HF,target,right,aqua,imageability,liberal,no,9,1,0.934614831891,-,-
2019_Oct_31,214,001,1,source,10,UGLIEST,LF,target,right,aqua,imageability,conservative,no,9,1,0.773382326201,-,-
2019_Oct_31,214,001,1,source,11,MINISTER,HF,target,right,aqua,imageability,conservative,yes,8,1,0.693432008282,-,-
2019_Oct_31,214,001,1,source,12,WILDFOWL,LF,target,right,aqua,imageability,liberal,no,7,1,1.35958139767,-,-
2019_Oct_31,214,001,1,source,13,INSIDE,HF,target,left,yellow,pleasantness,conservative,yes,8,0,0.666559251894,-,-
2019_Oct_31,214,001,1,source,14,ANSWER,HF,target,right,aqua,imageability,liberal,no,7,1,1.29297544051,-,-
2019_Oct_31,214,001,1,source,15,TODAY,HF,target,left,yellow,pleasantness,liberal,no,3,1,1.40005843657,-,-
2019_Oct_31,214,001,1,source,16,HAMLETS,LF,target,left,yellow,pleasantness,liberal,no,3,1,0.893278841416,-,-
2019_Oct_31,214,001,1,source,17,NUMBER,HF,target,right,aqua,imageability,conservative,no,3,0,0.733238896319,-,-
2019_Oct_31,214,001,1,source,18,ADOPTIVE,LF,target,left,yellow,pleasantness,conservative,no,3,1,2.31940937273,-,-
2019_Oct_31,214,001,1,source,19,FURTHER,HF,target,right,aqua,imageability,liberal,no,8,1,1.26628708559,-,-
2019_Oct_31,214,001,1,source,20,FOUND,HF,target,right,aqua,imageability,conservative,no,2,0,1.25321841052,-,-
2019_Oct_31,214,001,1,source,21,BOMBARDED,LF,target,left,yellow,pleasantness,conservative,no,3,1,2.03955576476,-,-
2019_Oct_31,214,001,1,source,22,GEARING,LF,target,right,aqua,imageability,liberal,no,7,1,1.9595566886,-,-
2019_Oct_31,214,001,1,source,23,ACTION,HF,target,left,yellow,pleasantness,liberal,no,8,0,0.920004223271,-,-
2019_Oct_31,214,001,1,source,24,EITHER,HF,target,left,yellow,pleasantness,liberal,no,1,1,1.49310602461,-,-
2019_Oct_31,214,001,1,source,25,AXLES,LF,target,right,aqua,imageability,liberal,no,7,1,1.38632254346,-,-
2019_Oct_31,214,001,1,source,26,JUDICIOUS,LF,target,left,yellow,pleasantness,liberal,no,1,1,0.959816243753,-,-
2019_Oct_31,214,001,1,source,27,CUBED,LF,target,right,aqua,imageability,conservative,no,8,1,1.33315553072,-,-
2019_Oct_31,214,001,1,source,28,APART,HF,target,left,yellow,pleasantness,conservative,no,7,0,1.07995691678,-,-
2019_Oct_31,214,001,1,source,29,VULTURE,LF,target,right,aqua,imageability,conservative,no,7,1,0.97308838366,-,-
2019_Oct_31,214,001,1,source,30,COWARDS,LF,target,right,aqua,imageability,conservative,no,7,1,0.880033096948,-,-
2019_Oct_31,214,001,1,source,31,INVOLVED,HF,target,right,aqua,imageability,conservative,no,7,1,2.73262996821,-,-
2019_Oct_31,214,001,1,source,32,TOMBSTONE,LF,target,left,yellow,pleasantness,liberal,no,1,1,1.41316670479,-,-
2019_Oct_31,214,001,1,source,33,PUPPETS,LF,target,left,yellow,pleasantness,conservative,no,1,1,1.17325929413,-,-
2019_Oct_31,214,001,1,source,34,OLDER,HF,target,left,yellow,pleasantness,conservative,no,1,1,2.2125503713,-,-
2019_Oct_31,214,001,1,source,35,VELVETY,LF,target,left,yellow,pleasantness,liberal,no,1,1,0.786780211046,-,-
2019_Oct_31,214,001,1,source,36,MICROCOSM,LF,target,right,aqua,imageability,conservative,no,7,1,1.0530412678,-,-
2019_Oct_31,214,001,1,source,37,PLODDED,LF,target,right,aqua,imageability,liberal,no,9,1,0.960062601182,-,-
2019_Oct_31,214,001,1,source,38,ADJOURNED,LF,target,left,yellow,pleasantness,conservative,no,7,0,1.18632430316,-,-
2019_Oct_31,214,001,1,source,39,PATCHY,LF,target,right,aqua,imageability,liberal,no,9,1,1.12003582448,-,-
2019_Oct_31,214,001,1,source,40,MOLARS,LF,target,left,yellow,pleasantness,liberal,no,1,1,2.66602694388,-,-
2019_Oct_31,214,001,1,source,41,AFRAID,HF,target,left,yellow,pleasantness,conservative,yes,2,1,0.666852167945,-,-
2019_Oct_31,214,001,1,source,42,DIETING,LF,target,left,yellow,pleasantness,liberal,no,1,1,1.05303906818,-,-
2019_Oct_31,214,001,1,source,43,VARIOUS,HF,target,right,aqua,imageability,conservative,no,7,1,1.65279806316,-,-
2019_Oct_31,214,001,1,source,44,LANGUAGE,HF,target,right,aqua,imageability,liberal,no,7,1,1.14635537646,-,-
2019_Oct_31,214,001,1,source,45,GUMMED,LF,target,left,yellow,pleasantness,conservative,no,3,1,1.97295530666,-,-
2019_Oct_31,214,001,1,source,46,CANNOT,HF,target,left,yellow,pleasantness,conservative,no,7,0,1.02666819174,-,-
2019_Oct_31,214,001,1,source,47,CAFETERIA,LF,target,right,aqua,imageability,liberal,yes,7,1,0.813381680979,-,-
2019_Oct_31,214,001,1,recog,0,MOLARS,LF,target,left,yellow,pleasantness,liberal,no,z,1,2.94609868081,3,161
2019_Oct_31,214,001,1,recog,1,OPPOSES,LF,lure,-,-,-,liberal,no,m,1,0.853180870346,1,162
2019_Oct_31,214,001,1,recog,2,MOTHER,HF,target,left,yellow,pleasantness,liberal,no,z,1,0.573540625513,3,165
2019_Oct_31,214,001,1,recog,3,ABOVE,HF,lure,-,-,-,liberal,no,z,0,0.840030809343,-1,164
2019_Oct_31,214,001,1,recog,4,OBSCURELY,LF,lure,-,-,-,liberal,no,m,1,0.733472422632,1,165
2019_Oct_31,214,001,1,recog,5,POUNDS,HF,lure,-,-,-,liberal,no,m,1,0.919991025551,1,166
2019_Oct_31,214,001,1,recog,6,SAWDUST,LF,lure,-,-,-,liberal,no,m,1,0.813405510195,1,167
2019_Oct_31,214,001,1,recog,7,SEEMED,HF,lure,-,-,-,liberal,no,m,1,1.71969217053,1,168
2019_Oct_31,214,001,1,recog,8,TIPSY,LF,target,right,aqua,imageability,conservative,no,z,1,0.666547887192,1,169
2019_Oct_31,214,001,1,recog,9,ATROCITY,LF,lure,-,-,-,conservative,no,m,1,0.720319795406,3,172
2019_Oct_31,214,001,1,recog,10,TRYING,HF,lure,-,-,-,liberal,no,z,0,0.773533366768,-1,171
2019_Oct_31,214,001,1,recog,11,OOZED,LF,lure,-,-,-,conservative,no,m,1,0.600181688605,3,174
2019_Oct_31,214,001,1,recog,12,YOUNG,HF,lure,-,-,-,liberal,no,m,1,0.786702857747,1,175
2019_Oct_31,214,001,1,recog,13,DOUBT,HF,lure,-,-,-,conservative,no,m,1,0.94675783358,3,178
2019_Oct_31,214,001,1,recog,14,THWART,LF,lure,-,-,-,conservative,no,m,1,0.52012688874,3,181
2019_Oct_31,214,001,1,recog,15,LENGTHEN,LF,lure,-,-,-,conservative,no,m,1,0.573504698388,3,184
2019_Oct_31,214,001,1,recog,16,DOODLE,LF,lure,-,-,-,liberal,no,m,1,0.626911469698,1,185
2019_Oct_31,214,001,1,recog,17,TIRADE,LF,lure,-,-,-,liberal,no,m,1,0.7201313613,1,186
2019_Oct_31,214,001,1,recog,18,PUPPETS,LF,target,left,yellow,pleasantness,conservative,no,z,1,0.640121653645,1,187
2019_Oct_31,214,001,1,recog,19,DIETING,LF,target,left,yellow,pleasantness,liberal,no,z,1,0.573446775064,3,190
2019_Oct_31,214,001,1,recog,20,ADOPTIVE,LF,target,left,yellow,pleasantness,conservative,no,z,1,0.626763361958,1,191
2019_Oct_31,214,001,1,recog,21,SUDDENLY,HF,lure,-,-,-,liberal,no,m,1,0.720078937026,1,192
2019_Oct_31,214,001,1,recog,22,FRIEND,HF,lure,-,-,-,conservative,no,m,1,1.22661474097,3,195
2019_Oct_31,214,001,1,recog,23,VARIOUS,HF,target,right,aqua,imageability,conservative,no,z,1,0.866697168062,1,196
2019_Oct_31,214,001,1,recog,24,DIFFERENT,HF,lure,-,-,-,liberal,no,m,1,0.613520183712,1,197
2019_Oct_31,214,001,1,recog,25,TOMBSTONE,LF,target,left,yellow,pleasantness,liberal,no,z,1,0.640167112456,3,200
2019_Oct_31,214,001,1,recog,26,GIVEN,HF,target,left,yellow,pleasantness,liberal,yes,z,1,0.640050899205,3,203
2019_Oct_31,214,001,1,recog,27,UNLESS,HF,lure,-,-,-,liberal,no,m,1,0.733414499308,1,204
2019_Oct_31,214,001,1,recog,28,WOMAN,HF,lure,-,-,-,conservative,no,m,1,0.680064918115,3,207
2019_Oct_31,214,001,1,recog,29,ITSELF,HF,target,left,yellow,pleasantness,conservative,no,z,1,0.773418253326,1,208
2019_Oct_31,214,001,1,recog,30,DIPLOMAS,LF,lure,-,-,-,conservative,no,m,1,0.626587025762,3,211
2019_Oct_31,214,001,1,recog,31,APART,HF,target,left,yellow,pleasantness,conservative,no,z,1,0.480190589733,1,212
2019_Oct_31,214,001,1,recog,32,DAGGERS,LF,lure,-,-,-,conservative,no,m,1,0.613542546515,3,215
2019_Oct_31,214,001,1,recog,33,LETTER,HF,lure,-,-,-,liberal,no,z,0,1.11991851141,-1,214
2019_Oct_31,214,001,1,recog,34,ADDED,HF,lure,-,-,-,conservative,no,m,1,0.546817443279,3,217
2019_Oct_31,214,001,1,recog,35,FOUND,HF,target,right,aqua,imageability,conservative,no,z,1,0.68010194505,1,218
2019_Oct_31,214,001,1,recog,36,OBVIOUSLY,HF,lure,-,-,-,conservative,no,m,1,0.680122108232,3,221
2019_Oct_31,214,001,1,recog,37,CAFETERIA,LF,target,right,aqua,imageability,liberal,no,z,1,0.666820273457,3,224
2019_Oct_31,214,001,1,recog,38,HOURS,HF,target,left,yellow,pleasantness,liberal,yes,m,0,0.600159325802,-3,221
2019_Oct_31,214,001,1,recog,39,HEALTH,HF,lure,-,-,-,conservative,no,m,1,0.920383657703,3,224
2019_Oct_31,214,001,1,recog,40,TODAY,HF,target,left,yellow,pleasantness,liberal,no,z,1,0.560159971023,3,227
2019_Oct_31,214,001,1,recog,41,INSIDE,HF,target,left,yellow,pleasantness,conservative,no,z,1,0.98640158314,1,228
2019_Oct_31,214,001,1,recog,42,ENOUGH,HF,lure,-,-,-,conservative,no,m,1,0.720146025433,3,231
2019_Oct_31,214,001,1,recog,43,PATCHY,LF,target,right,aqua,imageability,liberal,no,z,1,0.613461160578,3,234
2019_Oct_31,214,001,1,recog,44,DIABETIC,LF,lure,-,-,-,liberal,no,z,0,0.760044930903,-1,233
2019_Oct_31,214,001,1,recog,45,SERIOUS,HF,lure,-,-,-,conservative,no,z,0,1.65281126088,-3,230
2019_Oct_31,214,001,1,recog,46,FAILINGS,LF,lure,-,-,-,conservative,no,m,1,0.640120187231,3,233
2019_Oct_31,214,001,1,recog,47,EITHER,HF,target,left,yellow,pleasantness,liberal,yes,m,0,0.600134030173,-3,230
2019_Oct_31,214,001,1,recog,48,BOMBARDED,LF,target,left,yellow,pleasantness,conservative,no,z,1,0.906680758898,1,231
2019_Oct_31,214,001,1,recog,49,GEARING,LF,target,right,aqua,imageability,liberal,no,z,1,0.600117899627,3,234
2019_Oct_31,214,001,1,recog,50,PAPER,HF,lure,-,-,-,conservative,no,m,1,0.760120817789,3,237
2019_Oct_31,214,001,1,recog,51,HAMLETS,LF,target,left,yellow,pleasantness,liberal,no,z,1,0.773372061308,3,240
2019_Oct_31,214,001,1,recog,52,ANSWER,HF,target,right,aqua,imageability,liberal,no,z,1,0.786505625161,3,243
2019_Oct_31,214,001,1,recog,53,BUMBLING,LF,lure,-,-,-,liberal,no,m,1,0.75986896131,1,244
2019_Oct_31,214,001,1,recog,54,TATTERS,LF,lure,-,-,-,liberal,no,m,1,0.599870442388,1,245
2019_Oct_31,214,001,1,recog,55,LANGUAGE,HF,target,right,aqua,imageability,liberal,no,z,1,0.653428620867,3,248
2019_Oct_31,214,001,1,recog,56,AXLES,LF,target,right,aqua,imageability,liberal,no,z,1,0.640134851365,3,251
2019_Oct_31,214,001,1,recog,57,REPORT,HF,lure,-,-,-,liberal,no,m,1,0.613424500246,1,252
2019_Oct_31,214,001,1,recog,58,BINDINGS,LF,lure,-,-,-,conservative,no,m,1,0.680119908613,3,255
2019_Oct_31,214,001,1,recog,59,ACTION,HF,target,left,yellow,pleasantness,liberal,no,z,1,0.813406243401,3,258
2019_Oct_31,214,001,1,recog,60,SPEAK,HF,lure,-,-,-,liberal,no,m,1,0.840055738368,1,259
2019_Oct_31,214,001,1,recog,61,TREES,HF,target,right,aqua,imageability,liberal,no,z,1,0.626907803665,3,262
2019_Oct_31,214,001,1,recog,62,MICROCOSM,LF,target,right,aqua,imageability,conservative,no,z,1,0.65345868234,1,263
2019_Oct_31,214,001,1,recog,63,GUMMED,LF,target,left,yellow,pleasantness,conservative,no,z,1,0.586778671312,1,264
2019_Oct_31,214,001,1,recog,64,CAPITAL,HF,lure,-,-,-,conservative,no,z,0,1.25216992504,-3,261
2019_Oct_31,214,001,1,recog,65,JUDICIOUS,LF,target,left,yellow,pleasantness,liberal,no,z,1,0.573315531076,3,264
2019_Oct_31,214,001,1,recog,66,WILDFOWL,LF,target,right,aqua,imageability,liberal,no,z,1,0.720113764342,3,267
2019_Oct_31,214,001,1,recog,67,ALDER,LF,target,left,yellow,pleasantness,conservative,no,z,1,1.10641614462,1,268
2019_Oct_31,214,001,1,recog,68,HUSBAND,HF,lure,-,-,-,conservative,no,m,1,0.560202130405,3,271
2019_Oct_31,214,001,1,recog,69,HURDLES,LF,lure,-,-,-,conservative,no,m,1,0.600197085943,3,274
2019_Oct_31,214,001,1,recog,70,PLODDED,LF,target,right,aqua,imageability,liberal,no,z,1,0.693523659112,3,277
2019_Oct_31,214,001,1,recog,71,COWARDS,LF,target,right,aqua,imageability,conservative,no,z,1,1.90628812675,1,278
2019_Oct_31,214,001,1,recog,72,NOMAD,LF,lure,-,-,-,conservative,no,m,1,0.626809187373,3,281
2019_Oct_31,214,001,1,recog,73,AHEAD,HF,target,right,aqua,imageability,conservative,no,z,1,0.84010559642,1,282
2019_Oct_31,214,001,1,recog,74,FURTHER,HF,target,right,aqua,imageability,liberal,no,z,1,0.586809099387,3,285
2019_Oct_31,214,001,1,recog,75,UGLIEST,LF,target,right,aqua,imageability,conservative,no,z,1,0.586827429554,1,286
2019_Oct_31,214,001,1,recog,76,MAJOR,HF,lure,-,-,-,liberal,no,m,1,0.693405612843,1,287
2019_Oct_31,214,001,1,recog,77,CUBED,LF,target,right,aqua,imageability,conservative,no,z,1,0.626862711457,1,288
2019_Oct_31,214,001,1,recog,78,YELLOWED,LF,lure,-,-,-,liberal,no,m,1,0.853068689731,1,289
2019_Oct_31,214,001,1,recog,79,VULTURE,LF,target,right,aqua,imageability,conservative,no,z,1,0.880088820652,1,290
2019_Oct_31,214,001,1,recog,80,INTEREST,HF,target,right,aqua,imageability,liberal,no,m,0,0.799779964689,-3,287
2019_Oct_31,214,001,1,recog,81,ATTACK,HF,lure,-,-,-,conservative,no,m,1,0.693443372986,3,290
2019_Oct_31,214,001,1,recog,82,AFRAID,HF,target,left,yellow,pleasantness,conservative,no,m,0,0.773502572089,-1,289
2019_Oct_31,214,001,1,recog,83,PRIVATE,HF,target,right,aqua,imageability,liberal,no,z,1,0.733385904248,3,292
2019_Oct_31,214,001,1,recog,84,ADJOURNED,LF,target,left,yellow,pleasantness,conservative,no,z,1,0.666547520588,1,293
2019_Oct_31,214,001,1,recog,85,ENVIRONS,LF,lure,-,-,-,liberal,no,m,1,0.813412842261,1,294
2019_Oct_31,214,001,1,recog,86,VELVETY,LF,target,left,yellow,pleasantness,liberal,no,z,1,0.60011826623,3,297
2019_Oct_31,214,001,1,recog,87,DEDICATE,LF,lure,-,-,-,conservative,no,m,1,0.786484728772,3,300
2019_Oct_31,214,001,1,recog,88,TAMING,LF,lure,-,-,-,liberal,no,m,1,0.866727962742,1,301
2019_Oct_31,214,001,1,recog,89,CANNOT,HF,target,left,yellow,pleasantness,conservative,no,m,0,1.25323454107,-1,300
2019_Oct_31,214,001,1,recog,90,INVOLVED,HF,target,right,aqua,imageability,conservative,yes,z,1,0.840126859412,1,301
2019_Oct_31,214,001,1,recog,91,NUMBER,HF,target,right,aqua,imageability,conservative,no,z,1,0.760062894465,1,302
2019_Oct_31,214,001,1,recog,92,HYDRAULIC,LF,lure,-,-,-,conservative,no,m,1,0.840079200981,3,305
2019_Oct_31,214,001,1,recog,93,OLDER,HF,target,left,yellow,pleasantness,conservative,no,z,1,0.653419089182,1,306
2019_Oct_31,214,001,1,recog,94,MINISTER,HF,target,right,aqua,imageability,conservative,no,z,1,0.773055316041,1,307
2019_Oct_31,214,001,1,recog,95,ICILY,LF,lure,-,-,-,liberal,no,m,1,0.640135951174,1,308
2019_Oct_31,214,001,2,source,0,WRONG,HF,target,left,yellow,pleasantness,liberal,no,7,0,1.81298428298,-,-
2019_Oct_31,214,001,2,source,1,HASSLE,LF,target,right,aqua,imageability,liberal,no,7,1,1.89294743202,-,-
2019_Oct_31,214,001,2,source,2,GENERAL,HF,target,right,aqua,imageability,conservative,no,2,0,1.43956470989,-,-
2019_Oct_31,214,001,2,source,3,EYEBALL,LF,target,right,aqua,imageability,conservative,no,8,1,2.30613906584,-,-
2019_Oct_31,214,001,2,source,4,SPOKE,HF,target,right,aqua,imageability,conservative,no,7,1,1.79964395486,-,-
2019_Oct_31,214,001,2,source,5,ORDER,HF,target,right,aqua,imageability,liberal,no,3,0,1.27963034654,-,-
2019_Oct_31,214,001,2,source,6,DIMMED,LF,target,left,yellow,pleasantness,liberal,no,1,1,1.34650429073,-,-
2019_Oct_31,214,001,2,source,7,FAMILY,HF,target,left,yellow,pleasantness,conservative,no,1,1,0.893368659229,-,-
2019_Oct_31,214,001,2,source,8,VOUCH,LF,target,right,aqua,imageability,conservative,no,7,1,1.39981464536,-,-
2019_Oct_31,214,001,2,source,9,ZIGZAG,LF,target,right,aqua,imageability,liberal,no,9,1,1.30625857852,-,-
2019_Oct_31,214,001,2,source,10,HAIRDO,LF,target,right,aqua,imageability,conservative,no,9,1,0.666700760776,-,-
2019_Oct_31,214,001,2,source,11,RIVER,HF,target,left,yellow,pleasantness,conservative,no,3,1,2.1862179882,-,-
2019_Oct_31,214,001,2,source,12,HIGHER,HF,target,left,yellow,pleasantness,liberal,no,7,0,1.25342187537,-,-
2019_Oct_31,214,001,2,source,13,DANDELION,LF,target,left,yellow,pleasantness,liberal,no,3,1,0.826738872856,-,-
2019_Oct_31,214,001,2,source,14,ARDENTLY,LF,target,right,aqua,imageability,liberal,yes,3,0,0.533543103752,-,-
2019_Oct_31,214,001,2,source,15,GROUND,HF,target,left,yellow,pleasantness,liberal,no,3,1,1.7596361682,-,-
2019_Oct_31,214,001,2,source,16,SOVIET,HF,target,left,yellow,pleasantness,liberal,yes,3,1,0.586578505901,-,-
2019_Oct_31,214,001,2,source,17,THEORY,HF,target,right,aqua,imageability,conservative,no,7,1,1.31961357077,-,-
2019_Oct_31,214,001,2,source,18,LUXURIANT,LF,target,left,yellow,pleasantness,conservative,no,1,1,1.02662566575,-,-
2019_Oct_31,214,001,2,source,19,YEARN,LF,target,right,aqua,imageability,liberal,no,9,1,0.986735192159,-,-
2019_Oct_31,214,001,2,source,20,TUCKER,LF,target,left,yellow,pleasantness,liberal,no,1,1,0.773406155416,-,-
2019_Oct_31,214,001,2,source,21,AFTERNOON,HF,target,right,aqua,imageability,liberal,no,7,1,1.11965272401,-,-
2019_Oct_31,214,001,2,source,22,TURNED,HF,target,right,aqua,imageability,conservative,no,7,1,1.33317569391,-,-
2019_Oct_31,214,001,2,source,23,ICEBOX,LF,target,right,aqua,imageability,conservative,no,3,0,1.79964102203,-,-
2019_Oct_31,214,001,2,source,24,BOOKS,HF,target,left,yellow,pleasantness,liberal,no,2,1,1.3465130892,-,-
2019_Oct_31,214,001,2,source,25,AVAILABLE,HF,target,left,yellow,pleasantness,conservative,no,2,1,1.50620769398,-,-
2019_Oct_31,214,001,2,source,26,BUTCHERED,LF,target,right,aqua,imageability,conservative,no,9,1,0.999980203421,-,-
2019_Oct_31,214,001,2,source,27,THING,HF,target,left,yellow,pleasantness,conservative,no,7,0,1.91956686551,-,-
2019_Oct_31,214,001,2,source,28,AGILITY,LF,target,right,aqua,imageability,liberal,no,7,1,0.880014766782,-,-
2019_Oct_31,214,001,2,source,29,OBTAINS,LF,target,left,yellow,pleasantness,conservative,no,7,0,1.25326460254,-,-
2019_Oct_31,214,001,2,source,30,SLEEP,HF,target,right,aqua,imageability,liberal,no,8,1,0.959760886652,-,-
2019_Oct_31,214,001,2,source,31,VALUE,HF,target,right,aqua,imageability,liberal,no,9,1,1.42646524014,-,-
2019_Oct_31,214,001,2,source,32,CASES,HF,target,right,aqua,imageability,conservative,no,3,0,1.13309753408,-,-
2019_Oct_31,214,001,2,source,33,SOUND,HF,target,right,aqua,imageability,liberal,no,7,1,0.85337700312,-,-
2019_Oct_31,214,001,2,source,34,KNOWLEDGE,HF,target,left,yellow,pleasantness,conservative,no,2,1,1.1732567279,-,-
2019_Oct_31,214,001,2,source,35,LIQUEUR,LF,target,right,aqua,imageability,liberal,no,7,1,0.973287082658,-,-
2019_Oct_31,214,001,2,source,36,CHURCH,HF,target,left,yellow,pleasantness,liberal,no,2,1,0.853373337087,-,-
2019_Oct_31,214,001,2,source,37,MUMBLES,LF,target,left,yellow,pleasantness,conservative,no,1,1,1.09328184756,-,-
2019_Oct_31,214,001,2,source,38,VOWEL,LF,target,left,yellow,pleasantness,conservative,no,7,0,1.67947138734,-,-
2019_Oct_31,214,001,2,source,39,MEETING,HF,target,right,aqua,imageability,liberal,no,7,1,1.35981015814,-,-
2019_Oct_31,214,001,2,source,40,USUAL,HF,target,left,yellow,pleasantness,conservative,no,3,1,0.84002384388,-,-
2019_Oct_31,214,001,2,source,41,JOLLITY,LF,target,left,yellow,pleasantness,liberal,no,2,1,1.09304978766,-,-
2019_Oct_31,214,001,2,source,42,FEUDALISM,LF,target,left,yellow,pleasantness,conservative,yes,2,1,0.626823851506,-,-
2019_Oct_31,214,001,2,source,43,VAINLY,LF,target,right,aqua,imageability,conservative,no,7,1,1.01338102109,-,-
2019_Oct_31,214,001,2,source,44,PUCKERED,LF,target,left,yellow,pleasantness,conservative,yes,8,0,0.773443182351,-,-
2019_Oct_31,214,001,2,source,45,SOMEONE,HF,target,right,aqua,imageability,conservative,no,9,1,1.39980401387,-,-
2019_Oct_31,214,001,2,source,46,DUNGEON,LF,target,left,yellow,pleasantness,liberal,no,1,1,1.10639854766,-,-
2019_Oct_31,214,001,2,source,47,TEMERITY,LF,target,left,yellow,pleasantness,liberal,no,7,0,0.98639388447,-,-
2019_Oct_31,214,001,2,recog,0,TUCKER,LF,target,left,yellow,pleasantness,liberal,no,z,1,1.11992621008,3,311
2019_Oct_31,214,001,2,recog,1,HIGHER,HF,target,left,yellow,pleasantness,liberal,no,z,1,0.573479036156,3,314
2019_Oct_31,214,001,2,recog,2,VOUCH,LF,target,right,aqua,imageability,conservative,no,z,1,0.493537516717,1,315
2019_Oct_31,214,001,2,recog,3,FERRET,LF,lure,-,-,-,conservative,no,m,1,0.760146113418,3,318
2019_Oct_31,214,001,2,recog,4,CASES,HF,target,right,aqua,imageability,conservative,no,z,1,0.613489755637,1,319
2019_Oct_31,214,001,2,recog,5,DAUGHTER,HF,lure,-,-,-,conservative,no,m,1,0.653203159827,3,322
2019_Oct_31,214,001,2,recog,6,AFTERNOON,HF,target,right,aqua,imageability,liberal,no,z,1,0.653419822387,3,325
2019_Oct_31,214,001,2,recog,7,SYRINGE,LF,lure,-,-,-,liberal,no,m,1,0.600097736444,1,326
2019_Oct_31,214,001,2,recog,8,TOGETHER,HF,lure,-,-,-,conservative,no,m,1,0.640128985711,3,329
2019_Oct_31,214,001,2,recog,9,BECAME,HF,lure,-,-,-,conservative,no,m,1,0.866814114521,3,332
2019_Oct_31,214,001,2,recog,10,SOVIET,HF,target,left,yellow,pleasantness,liberal,no,m,0,0.786514423641,-3,329
2019_Oct_31,214,001,2,recog,11,LIGHT,HF,lure,-,-,-,liberal,no,m,1,1.15979248786,1,330
2019_Oct_31,214,001,2,recog,12,RIVER,HF,target,left,yellow,pleasantness,conservative,no,z,1,0.600154193356,1,331
2019_Oct_31,214,001,2,recog,13,SORRY,HF,lure,-,-,-,conservative,no,m,1,0.773420452946,3,334
2019_Oct_31,214,001,2,recog,14,EYEBALL,LF,target,right,aqua,imageability,conservative,no,z,1,0.52015658361,1,335
2019_Oct_31,214,001,2,recog,15,SPOKE,HF,target,right,aqua,imageability,conservative,no,z,1,0.546770151451,1,336
2019_Oct_31,214,001,2,recog,16,TURNED,HF,target,right,aqua,imageability,conservative,no,z,1,0.705805236855,1,337
2019_Oct_31,214,001,2,recog,17,CONCERNED,HF,lure,-,-,-,liberal,no,m,1,0.653419822388,1,338
2019_Oct_31,214,001,2,recog,18,SANDAL,LF,lure,-,-,-,conservative,no,m,1,0.720091768142,3,341
2019_Oct_31,214,001,2,recog,19,AGILITY,LF,target,right,aqua,imageability,liberal,no,z,1,0.600128164519,3,344
2019_Oct_31,214,001,2,recog,20,INHABITS,LF,lure,-,-,-,conservative,no,m,1,0.613464093404,3,347
2019_Oct_31,214,001,2,recog,21,GENERAL,HF,target,right,aqua,imageability,conservative,no,z,1,0.586794435255,1,348
2019_Oct_31,214,001,2,recog,22,USUAL,HF,target,left,yellow,pleasantness,conservative,no,z,1,0.600164091645,1,349
2019_Oct_31,214,001,2,recog,23,MEETING,HF,target,right,aqua,imageability,liberal,no,z,1,0.653221489993,3,352
2019_Oct_31,214,001,2,recog,24,DUNGEON,LF,target,left,yellow,pleasantness,liberal,no,z,1,0.533468316675,3,355
2019_Oct_31,214,001,2,recog,25,BUTCHERED,LF,target,right,aqua,imageability,conservative,no,z,1,0.506800124938,1,356
2019_Oct_31,214,001,2,recog,26,PUCKERED,LF,target,left,yellow,pleasantness,conservative,no,z,1,0.666534689472,1,357
2019_Oct_31,214,001,2,recog,27,VICEREGAL,LF,lure,-,-,-,liberal,no,m,1,0.720103132846,1,358
2019_Oct_31,214,001,2,recog,28,BETTER,HF,lure,-,-,-,conservative,no,m,1,0.613451628892,3,361
2019_Oct_31,214,001,2,recog,29,PEGGED,LF,lure,-,-,-,conservative,no,m,1,0.813409909434,3,364
2019_Oct_31,214,001,2,recog,30,GROUND,HF,target,left,yellow,pleasantness,liberal,no,z,1,0.573509097628,3,367
2019_Oct_31,214,001,2,recog,31,VOWEL,LF,target,left,yellow,pleasantness,conservative,no,z,1,0.600128897726,1,368
2019_Oct_31,214,001,2,recog,32,RANGE,HF,lure,-,-,-,conservative,no,m,1,0.639491462542,3,371
2019_Oct_31,214,001,2,recog,33,ARDENTLY,LF,target,right,aqua,imageability,liberal,no,m,0,0.666757217687,-3,368
2019_Oct_31,214,001,2,recog,34,BOOKS,HF,target,left,yellow,pleasantness,liberal,no,z,1,0.520153650783,3,371
2019_Oct_31,214,001,2,recog,35,THEORY,HF,target,right,aqua,imageability,conservative,yes,z,1,0.719831846391,1,372
2019_Oct_31,214,001,2,recog,36,NUCLEAR,HF,lure,-,-,-,liberal,no,m,1,0.639022943502,1,373
2019_Oct_31,214,001,2,recog,37,ORDER,HF,target,right,aqua,imageability,liberal,no,z,1,0.693598079585,3,376
2019_Oct_31,214,001,2,recog,38,AVAILABLE,HF,target,left,yellow,pleasantness,conservative,no,z,1,0.693177952183,1,377
2019_Oct_31,214,001,2,recog,39,MYOPIC,LF,lure,-,-,-,liberal,no,m,1,0.533451086319,1,378
2019_Oct_31,214,001,2,recog,40,AROUND,HF,lure,-,-,-,liberal,no,m,1,0.612831702681,1,379
2019_Oct_31,214,001,2,recog,41,YEARN,LF,target,right,aqua,imageability,liberal,no,z,1,0.666815874218,3,382
2019_Oct_31,214,001,2,recog,42,PAGANISM,LF,lure,-,-,-,conservative,no,m,1,0.60012156566,3,385
2019_Oct_31,214,001,2,recog,43,ICEBOX,LF,target,right,aqua,imageability,conservative,no,z,1,0.52021633995,1,386
2019_Oct_31,214,001,2,recog,44,DEVELOPED,HF,lure,-,-,-,liberal,no,m,1,0.613443563619,1,387
2019_Oct_31,214,001,2,recog,45,KNOWLEDGE,HF,target,left,yellow,pleasantness,conservative,no,z,1,0.666742186951,1,388
2019_Oct_31,214,001,2,recog,46,FAMILY,HF,target,left,yellow,pleasantness,conservative,no,z,1,0.666774814646,1,389
2019_Oct_31,214,001,2,recog,47,TAILED,LF,lure,-,-,-,liberal,no,m,1,0.960003944651,1,390
2019_Oct_31,214,001,2,recog,48,ALONE,HF,lure,-,-,-,conservative,no,m,1,0.706769770183,3,393
2019_Oct_31,214,001,2,recog,49,DOLPHIN,LF,lure,-,-,-,conservative,no,m,1,0.640148415687,3,396
2019_Oct_31,214,001,2,recog,50,ATONEMENT,LF,lure,-,-,-,liberal,no,z,0,1.30649393785,-1,395
2019_Oct_31,214,001,2,recog,51,EXACTLY,HF,lure,-,-,-,conservative,no,m,1,1.55982782842,3,398
2019_Oct_31,214,001,2,recog,52,PUTTS,LF,lure,-,-,-,liberal,no,m,1,0.559847258393,1,399
2019_Oct_31,214,001,2,recog,53,CHURCH,HF,target,left,yellow,pleasantness,liberal,no,z,1,0.600148694306,3,402
2019_Oct_31,214,001,2,recog,54,THING,HF,target,left,yellow,pleasantness,conservative,yes,z,1,0.840198347059,1,403
2019_Oct_31,214,001,2,recog,55,BLACK,HF,lure,-,-,-,conservative,no,m,1,0.613428532883,3,406
2019_Oct_31,214,001,2,recog,56,MUMBLES,LF,target,left,yellow,pleasantness,conservative,no,z,1,0.613530815209,1,407
2019_Oct_31,214,001,2,recog,57,ZIGZAG,LF,target,right,aqua,imageability,liberal,yes,z,1,0.639881161868,3,410
2019_Oct_31,214,001,2,recog,58,JAILS,LF,lure,-,-,-,conservative,no,m,1,0.773397356937,3,413
2019_Oct_31,214,001,2,recog,59,WRONG,HF,target,left,yellow,pleasantness,liberal,no,z,1,0.706745207761,3,416
2019_Oct_31,214,001,2,recog,60,SLEEP,HF,target,right,aqua,imageability,liberal,no,z,1,0.600474971258,3,419
2019_Oct_31,214,001,2,recog,61,RECENT,HF,lure,-,-,-,liberal,no,m,1,0.640106622908,1,420
2019_Oct_31,214,001,2,recog,62,LIKELY,HF,lure,-,-,-,conservative,no,m,1,0.533550435818,3,423
2019_Oct_31,214,001,2,recog,63,FIXTURE,LF,lure,-,-,-,liberal,no,m,1,0.506766764037,1,424
2019_Oct_31,214,001,2,recog,64,VERBALLY,LF,lure,-,-,-,liberal,no,m,1,0.773518336032,1,425
2019_Oct_31,214,001,2,recog,65,HOEING,LF,lure,-,-,-,conservative,no,m,1,0.680196162103,3,428
2019_Oct_31,214,001,2,recog,66,ENERGY,HF,lure,-,-,-,conservative,no,m,1,0.50691853781,3,431
2019_Oct_31,214,001,2,recog,67,PLEASE,HF,lure,-,-,-,liberal,no,m,1,0.533488479857,1,432
2019_Oct_31,214,001,2,recog,68,TRIED,HF,lure,-,-,-,liberal,no,m,1,0.680118075597,1,433
2019_Oct_31,214,001,2,recog,69,TEMERITY,LF,target,left,yellow,pleasantness,liberal,no,z,1,0.65344218519,3,436
2019_Oct_31,214,001,2,recog,70,DURING,HF,lure,-,-,-,liberal,no,m,1,0.680129806903,1,437
2019_Oct_31,214,001,2,recog,71,TAKEN,HF,lure,-,-,-,liberal,no,m,1,0.586807999577,1,438
2019_Oct_31,214,001,2,recog,72,DANDELION,LF,target,left,yellow,pleasantness,liberal,no,z,1,0.560108279957,3,441
2019_Oct_31,214,001,2,recog,73,ALCHEMIST,LF,lure,-,-,-,liberal,no,m,1,0.600127431314,1,442
2019_Oct_31,214,001,2,recog,74,PAYOFF,LF,lure,-,-,-,liberal,no,m,1,0.586800667511,1,443
2019_Oct_31,214,001,2,recog,75,LUXURIANT,LF,target,left,yellow,pleasantness,conservative,no,z,1,0.613519450505,1,444
2019_Oct_31,214,001,2,recog,76,CHAIR,HF,lure,-,-,-,liberal,no,m,1,0.920057747354,1,445
2019_Oct_31,214,001,2,recog,77,SOUND,HF,target,right,aqua,imageability,liberal,no,z,1,0.586879120621,3,448
2019_Oct_31,214,001,2,recog,78,VALUE,HF,target,right,aqua,imageability,liberal,no,z,1,0.586865556298,3,451
2019_Oct_31,214,001,2,recog,79,HASSLE,LF,target,right,aqua,imageability,liberal,no,m,0,0.746785622111,-3,448
2019_Oct_31,214,001,2,recog,80,SOMEONE,HF,target,right,aqua,imageability,conservative,no,z,1,0.826709177988,1,449
2019_Oct_31,214,001,2,recog,81,FEUDALISM,LF,target,left,yellow,pleasantness,conservative,no,z,1,0.66651452629,1,450
2019_Oct_31,214,001,2,recog,82,RUDIMENTS,LF,lure,-,-,-,liberal,no,m,1,0.706846023674,1,451
2019_Oct_31,214,001,2,recog,83,EGOISM,LF,lure,-,-,-,conservative,no,z,0,0.84001284578,-3,448
2019_Oct_31,214,001,2,recog,84,VAINLY,LF,target,right,aqua,imageability,conservative,no,m,0,1.69310353171,-1,447
2019_Oct_31,214,001,2,recog,85,MOMENT,HF,lure,-,-,-,conservative,no,m,1,0.72008040344,3,450
2019_Oct_31,214,001,2,recog,86,ULCER,LF,lure,-,-,-,liberal,no,m,1,0.66681184158,1,451
2019_Oct_31,214,001,2,recog,87,REWRITE,LF,lure,-,-,-,conservative,no,m,1,0.666790945192,3,454
2019_Oct_31,214,001,2,recog,88,HAIRDO,LF,target,right,aqua,imageability,conservative,no,z,1,0.587571267684,1,455
2019_Oct_31,214,001,2,recog,89,TOXICITY,LF,lure,-,-,-,conservative,no,z,0,0.760081591235,-3,452
2019_Oct_31,214,001,2,recog,90,DIMMED,LF,target,left,yellow,pleasantness,liberal,no,z,1,0.666841536449,3,455
2019_Oct_31,214,001,2,recog,91,TOWARDS,HF,lure,-,-,-,liberal,no,m,1,1.00033837486,1,456
2019_Oct_31,214,001,2,recog,92,CRYPT,LF,lure,-,-,-,conservative,no,m,1,0.94665628446,3,459
2019_Oct_31,214,001,2,recog,93,LIQUEUR,LF,target,right,aqua,imageability,liberal,no,z,1,0.586855658009,3,462
2019_Oct_31,214,001,2,recog,94,OBTAINS,LF,target,left,yellow,pleasantness,conservative,no,m,0,0.600154559959,-1,461
2019_Oct_31,214,001,2,recog,95,JOLLITY,LF,target,left,yellow,pleasantness,liberal,yes,m,0,0.493536050303,-3,458
2019_Oct_31,214,001,3,source,0,LONGER,HF,target,right,aqua,imageability,conservative,no,7,1,1.23990594425,-,-
2019_Oct_31,214,001,3,source,1,GUARDSMEN,LF,target,right,aqua,imageability,liberal,no,9,1,1.82611894665,-,-
2019_Oct_31,214,001,3,source,2,LOTTERY,LF,target,left,yellow,pleasantness,conservative,no,1,1,0.933304958236,-,-
2019_Oct_31,214,001,3,source,3,FRUGAL,LF,target,left,yellow,pleasantness,conservative,yes,7,0,0.8131078283,-,-
2019_Oct_31,214,001,3,source,4,TIMES,HF,target,left,yellow,pleasantness,liberal,no,3,1,1.85293817895,-,-
2019_Oct_31,214,001,3,source,5,RAMBLE,LF,target,right,aqua,imageability,conservative,yes,3,0,0.639900225241,-,-
2019_Oct_31,214,001,3,source,6,UMPIRE,LF,target,left,yellow,pleasantness,liberal,no,1,1,1.50641775768,-,-
2019_Oct_31,214,001,3,source,7,AVENGE,LF,target,right,aqua,imageability,conservative,no,7,1,0.853594032285,-,-
2019_Oct_31,214,001,3,source,8,BIBLES,LF,target,left,yellow,pleasantness,liberal,no,1,1,0.826695613664,-,-
2019_Oct_31,214,001,3,source,9,CAIRN,LF,target,right,aqua,imageability,liberal,no,8,1,1.19991575456,-,-
2019_Oct_31,214,001,3,source,10,SPACE,HF,target,right,aqua,imageability,conservative,no,8,1,1.82630078189,-,-
2019_Oct_31,214,001,3,source,11,DWINDLE,LF,target,left,yellow,pleasantness,liberal,no,7,0,1.1333097974,-,-
2019_Oct_31,214,001,3,source,12,AREAS,HF,target,left,yellow,pleasantness,liberal,no,3,1,0.866704866733,-,-
2019_Oct_31,214,001,3,source,13,GNARLED,LF,target,right,aqua,imageability,liberal,no,9,1,1.53309988034,-,-
2019_Oct_31,214,001,3,source,14,SHALL,HF,target,left,yellow,pleasantness,liberal,no,7,0,0.946624023369,-,-
2019_Oct_31,214,001,3,source,15,FLYWHEEL,LF,target,left,yellow,pleasantness,liberal,no,1,1,0.959970217146,-,-
2019_Oct_31,214,001,3,source,16,SWAGGER,LF,target,right,aqua,imageability,liberal,no,9,1,0.986437876869,-,-
2019_Oct_31,214,001,3,source,17,NORTH,HF,target,left,yellow,pleasantness,conservative,no,1,1,0.906476927454,-,-
2019_Oct_31,214,001,3,source,18,MONEY,HF,target,left,yellow,pleasantness,conservative,no,1,1,0.679882716267,-,-
2019_Oct_31,214,001,3,source,19,TROUBLE,HF,target,left,yellow,pleasantness,liberal,no,1,1,0.813448402782,-,-
2019_Oct_31,214,001,3,source,20,PASSED,HF,target,right,aqua,imageability,liberal,no,9,1,0.906809436662,-,-
2019_Oct_31,214,001,3,source,21,PERHAPS,HF,target,right,aqua,imageability,conservative,no,7,1,0.893345929823,-,-
2019_Oct_31,214,001,3,source,22,EXPECT,HF,target,right,aqua,imageability,liberal,no,3,0,0.813152187302,-,-
2019_Oct_31,214,001,3,source,23,DONATE,LF,target,right,aqua,imageability,conservative,yes,3,0,0.626794156637,-,-
2019_Oct_31,214,001,3,source,24,HERSELF,HF,target,left,yellow,pleasantness,conservative,no,7,0,1.00023609254,-,-
2019_Oct_31,214,001,3,source,25,SAFARI,LF,target,left,yellow,pleasantness,conservative,no,1,1,0.97309828195,-,-
2019_Oct_31,214,001,3,source,26,EVIDENCE,HF,target,right,aqua,imageability,conservative,no,7,1,1.01351556451,-,-
2019_Oct_31,214,001,3,source,27,VECTORS,LF,target,left,yellow,pleasantness,conservative,no,8,0,1.61282363741,-,-
2019_Oct_31,214,001,3,source,28,DEITIES,LF,target,right,aqua,imageability,conservative,no,9,1,0.946804758804,-,-
2019_Oct_31,214,001,3,source,29,KRONOR,LF,target,left,yellow,pleasantness,liberal,no,1,1,1.21296976549,-,-
2019_Oct_31,214,001,3,source,30,MERELY,HF,target,left,yellow,pleasantness,conservative,no,3,1,2.15836786737,-,-
2019_Oct_31,214,001,3,source,31,SICKENED,LF,target,left,yellow,pleasantness,conservative,no,2,1,0.906728783933,-,-
2019_Oct_31,214,001,3,source,32,BESOTTED,LF,target,left,yellow,pleasantness,liberal,no,2,1,0.879780873865,-,-
2019_Oct_31,214,001,3,source,33,ACROSS,HF,target,left,yellow,pleasantness,conservative,no,3,1,0.946687812346,-,-
2019_Oct_31,214,001,3,source,34,BOTANIST,LF,target,right,aqua,imageability,liberal,no,8,1,1.19965729922,-,-
2019_Oct_31,214,001,3,source,35,OUTSIDE,HF,target,left,yellow,pleasantness,liberal,no,1,1,0.893378924122,-,-
2019_Oct_31,214,001,3,source,36,LUCERNE,LF,target,right,aqua,imageability,conservative,no,7,1,1.03997699198,-,-
2019_Oct_31,214,001,3,source,37,ALTHOUGH,HF,target,left,yellow,pleasantness,liberal,no,8,0,1.31987642535,-,-
2019_Oct_31,214,001,3,source,38,HARDLY,HF,target,right,aqua,imageability,conservative,no,8,1,1.026608802,-,-
2019_Oct_31,214,001,3,source,39,OTHERS,HF,target,right,aqua,imageability,conservative,no,7,1,1.02640020471,-,-
2019_Oct_31,214,001,3,source,40,STAFF,HF,target,right,aqua,imageability,liberal,no,8,1,1.11991044614,-,-
2019_Oct_31,214,001,3,source,41,ACCORDING,HF,target,right,aqua,imageability,liberal,no,3,0,0.840019811244,-,-
2019_Oct_31,214,001,3,source,42,AUDACIOUS,LF,target,left,yellow,pleasantness,conservative,no,3,1,0.95974182328,-,-
2019_Oct_31,214,001,3,source,43,ECLECTIC,LF,target,right,aqua,imageability,liberal,no,9,1,1.06628224643,-,-
2019_Oct_31,214,001,3,source,44,GLASS,HF,target,right,aqua,imageability,liberal,no,8,1,1.13326983764,-,-
2019_Oct_31,214,001,3,source,45,OFFER,HF,target,right,aqua,imageability,liberal,yes,7,1,0.666801576687,-,-
2019_Oct_31,214,001,3,source,46,TILTS,LF,target,right,aqua,imageability,conservative,no,9,1,0.973349038619,-,-
2019_Oct_31,214,001,3,source,47,STUDENT,HF,target,left,yellow,pleasantness,conservative,no,2,1,1.17320796966,-,-
2019_Oct_31,214,001,3,recog,0,KITCHEN,HF,lure,-,-,-,liberal,no,m,1,1.10660787816,1,459
2019_Oct_31,214,001,3,recog,1,HERSELF,HF,target,left,yellow,pleasantness,conservative,no,z,1,0.760068393514,1,460
2019_Oct_31,214,001,3,recog,2,DOING,HF,lure,-,-,-,liberal,no,m,1,0.720095067572,1,461
2019_Oct_31,214,001,3,recog,3,BIOLOGIST,LF,lure,-,-,-,liberal,no,m,1,0.960266432628,1,462
2019_Oct_31,214,001,3,recog,4,IRATE,LF,lure,-,-,-,liberal,no,m,1,0.813349419886,1,463
2019_Oct_31,214,001,3,recog,5,HOSPITAL,HF,lure,-,-,-,conservative,no,m,1,0.680182231177,3,466
2019_Oct_31,214,001,3,recog,6,WAITING,HF,lure,-,-,-,conservative,no,z,0,1.05315528143,-3,463
2019_Oct_31,214,001,3,recog,7,DEITIES,LF,target,right,aqua,imageability,conservative,no,z,1,0.640096724619,1,464
2019_Oct_31,214,001,3,recog,8,HARDLY,HF,target,right,aqua,imageability,conservative,no,z,1,0.880025031674,1,465
2019_Oct_31,214,001,3,recog,9,AMBIENCE,LF,lure,-,-,-,conservative,no,m,1,0.640120187232,3,468
2019_Oct_31,214,001,3,recog,10,UMPIRE,LF,target,left,yellow,pleasantness,liberal,no,z,1,0.666849601722,3,471
2019_Oct_31,214,001,3,recog,11,SHIELDING,LF,lure,-,-,-,liberal,no,m,1,0.733427697028,1,472
2019_Oct_31,214,001,3,recog,12,STAFF,HF,target,right,aqua,imageability,liberal,no,z,1,0.546837239858,3,475
2019_Oct_31,214,001,3,recog,13,OTHERS,HF,target,right,aqua,imageability,conservative,no,z,1,0.57352926081,1,476
2019_Oct_31,214,001,3,recog,14,PARENTS,HF,lure,-,-,-,liberal,no,m,1,0.773438783111,1,477
2019_Oct_31,214,001,3,recog,15,BIBLES,LF,target,left,yellow,pleasantness,liberal,no,z,1,0.586746043617,3,480
2019_Oct_31,214,001,3,recog,16,BESOTTED,LF,target,left,yellow,pleasantness,liberal,no,z,1,0.813116260177,3,483
2019_Oct_31,214,001,3,recog,17,WHETHER,HF,lure,-,-,-,conservative,no,z,0,0.813399644541,-3,480
2019_Oct_31,214,001,3,recog,18,DWINDLE,LF,target,left,yellow,pleasantness,liberal,no,z,1,0.600115333404,3,483
2019_Oct_31,214,001,3,recog,19,DEGREE,HF,lure,-,-,-,conservative,no,m,1,0.573690199666,3,486
2019_Oct_31,214,001,3,recog,20,BREAK,HF,lure,-,-,-,liberal,no,m,1,0.533481147791,1,487
2019_Oct_31,214,001,3,recog,21,TROUBLE,HF,target,left,yellow,pleasantness,liberal,no,z,1,0.586857857628,3,490
2019_Oct_31,214,001,3,recog,22,NECESSARY,HF,lure,-,-,-,conservative,no,m,1,0.573476836536,3,493
2019_Oct_31,214,001,3,recog,23,NORTH,HF,target,left,yellow,pleasantness,conservative,no,z,1,0.666546420779,1,494
2019_Oct_31,214,001,3,recog,24,LUCERNE,LF,target,right,aqua,imageability,conservative,no,z,1,0.640122386852,1,495
2019_Oct_31,214,001,3,recog,25,SAFARI,LF,target,left,yellow,pleasantness,conservative,no,z,1,0.506863180709,1,496
2019_Oct_31,214,001,3,recog,26,MUTATIONS,LF,lure,-,-,-,conservative,no,m,1,0.77340982145,3,499
2019_Oct_31,214,001,3,recog,27,IRRIGATED,LF,lure,-,-,-,liberal,no,m,1,0.920014854766,1,500
2019_Oct_31,214,001,3,recog,28,EIGHT,HF,lure,-,-,-,liberal,no,m,1,0.626480344197,1,501
2019_Oct_31,214,001,3,recog,29,FITFUL,LF,lure,-,-,-,conservative,no,m,1,0.560178301189,3,504
2019_Oct_31,214,001,3,recog,30,MERELY,HF,target,left,yellow,pleasantness,conservative,no,z,1,0.613593504376,1,505
2019_Oct_31,214,001,3,recog,31,WHITE,HF,lure,-,-,-,conservative,yes,m,1,0.440227528683,3,508
2019_Oct_31,214,001,3,recog,32,GNARLED,LF,target,right,aqua,imageability,liberal,yes,z,1,0.613207837686,3,511
2019_Oct_31,214,001,3,recog,33,RUINOUS,LF,lure,-,-,-,conservative,no,m,1,0.640307154924,3,514
2019_Oct_31,214,001,3,recog,34,HICKORY,LF,lure,-,-,-,conservative,no,m,1,0.813438871096,3,517
2019_Oct_31,214,001,3,recog,35,CAIRN,LF,target,right,aqua,imageability,liberal,no,z,1,0.680090580347,3,520
2019_Oct_31,214,001,3,recog,36,WATCH,HF,lure,-,-,-,liberal,no,z,0,0.906463729734,-1,519
2019_Oct_31,214,001,3,recog,37,ECLECTIC,LF,target,right,aqua,imageability,liberal,no,z,1,0.480196821989,3,522
2019_Oct_31,214,001,3,recog,38,VECTORS,LF,target,left,yellow,pleasantness,conservative,no,z,1,0.734132675207,1,523
2019_Oct_31,214,001,3,recog,39,BOTANIST,LF,target,right,aqua,imageability,liberal,no,z,1,0.746729531804,3,526
2019_Oct_31,214,001,3,recog,40,LYNCH,LF,lure,-,-,-,liberal,no,m,1,0.680132739729,1,527
2019_Oct_31,214,001,3,recog,41,AVENGE,LF,target,right,aqua,imageability,conservative,no,m,0,0.986433477628,-1,526
2019_Oct_31,214,001,3,recog,42,TITAN,LF,lure,-,-,-,liberal,no,m,1,0.733463257548,1,527
2019_Oct_31,214,001,3,recog,43,SKIDDED,LF,lure,-,-,-,conservative,no,z,0,0.960105860374,-3,524
2019_Oct_31,214,001,3,recog,44,SITTING,HF,lure,-,-,-,liberal,no,z,0,0.613469959058,-1,523
2019_Oct_31,214,001,3,recog,45,MYTHIC,LF,lure,-,-,-,conservative,yes,z,0,0.533495078717,-3,520
2019_Oct_31,214,001,3,recog,46,ALTHOUGH,HF,target,left,yellow,pleasantness,liberal,no,z,1,1.45318695596,3,523
2019_Oct_31,214,001,3,recog,47,AUDACIOUS,LF,target,left,yellow,pleasantness,conservative,no,z,1,0.69340744586,1,524
2019_Oct_31,214,001,3,recog,48,MOVED,HF,lure,-,-,-,liberal,no,m,1,0.573573986415,1,525
2019_Oct_31,214,001,3,recog,49,AGELESS,LF,lure,-,-,-,conservative,no,m,1,0.586809099387,3,528
2019_Oct_31,214,001,3,recog,50,KRONOR,LF,target,left,yellow,pleasantness,liberal,no,z,1,0.62687187654,3,531
2019_Oct_31,214,001,3,recog,51,SHALL,HF,target,left,yellow,pleasantness,liberal,no,z,1,0.57352926081,3,534
2019_Oct_31,214,001,3,recog,52,BUOYANCY,LF,lure,-,-,-,liberal,no,m,1,0.680155102532,1,535
2019_Oct_31,214,001,3,recog,53,FATHER,HF,lure,-,-,-,conservative,no,m,1,1.27991959656,3,538
2019_Oct_31,214,001,3,recog,54,ACCORDING,HF,target,right,aqua,imageability,liberal,no,z,1,0.666779947092,3,541
2019_Oct_31,214,001,3,recog,55,SWAGGER,LF,target,right,aqua,imageability,liberal,no,z,1,0.586885719481,3,544
2019_Oct_31,214,001,3,recog,56,AWAITS,LF,lure,-,-,-,conservative,no,m,1,0.639900225241,3,547
2019_Oct_31,214,001,3,recog,57,GUARDSMEN,LF,target,right,aqua,imageability,liberal,no,z,1,0.773399189954,3,550
2019_Oct_31,214,001,3,recog,58,NEOLITHIC,LF,lure,-,-,-,liberal,no,m,1,0.706735309472,1,551
2019_Oct_31,214,001,3,recog,59,AREAS,HF,target,left,yellow,pleasantness,liberal,no,z,1,0.640200839962,3,554
2019_Oct_31,214,001,3,recog,60,MONEY,HF,target,left,yellow,pleasantness,conservative,no,z,1,0.586571173834,1,555
2019_Oct_31,214,001,3,recog,61,SICKENED,LF,target,left,yellow,pleasantness,conservative,no,z,1,0.640114321579,1,556
2019_Oct_31,214,001,3,recog,62,WRITE,HF,lure,-,-,-,conservative,no,m,1,0.666814407803,3,559
2019_Oct_31,214,001,3,recog,63,PERHAPS,HF,target,right,aqua,imageability,conservative,no,z,1,0.733215433706,1,560
2019_Oct_31,214,001,3,recog,64,WADDLED,LF,lure,-,-,-,liberal,no,m,1,0.586560908941,1,561
2019_Oct_31,214,001,3,recog,65,OUGHT,HF,lure,-,-,-,conservative,no,m,1,0.53352074095,3,564
2019_Oct_31,214,001,3,recog,66,GLASS,HF,target,right,aqua,imageability,liberal,no,z,1,0.680203860773,3,567
2019_Oct_31,214,001,3,recog,67,OATHS,LF,lure,-,-,-,liberal,no,m,1,0.573297934117,1,568
2019_Oct_31,214,001,3,recog,68,FIELD,HF,lure,-,-,-,liberal,no,m,1,0.706781501491,1,569
2019_Oct_31,214,001,3,recog,69,EXPECT,HF,target,right,aqua,imageability,liberal,no,z,1,0.999981669835,3,572
2019_Oct_31,214,001,3,recog,70,ACROSS,HF,target,left,yellow,pleasantness,conservative,no,z,1,0.653503041342,1,573
2019_Oct_31,214,001,3,recog,71,DONATE,LF,target,right,aqua,imageability,conservative,no,m,0,0.7067826013,-1,572
2019_Oct_31,214,001,3,recog,72,HEDGED,LF,lure,-,-,-,conservative,no,m,1,0.746660976983,3,575
2019_Oct_31,214,001,3,recog,73,PROBABLY,HF,lure,-,-,-,liberal,no,m,1,0.746762892705,1,576
2019_Oct_31,214,001,3,recog,74,FLYWHEEL,LF,target,left,yellow,pleasantness,liberal,no,z,1,0.626776559677,3,579
2019_Oct_31,214,001,3,recog,75,EVIDENCE,HF,target,right,aqua,imageability,conservative,no,z,1,0.69340524624,1,580
2019_Oct_31,214,001,3,recog,76,OUTSIDE,HF,target,left,yellow,pleasantness,liberal,no,z,1,0.919945933343,3,583
2019_Oct_31,214,001,3,recog,77,PLACE,HF,lure,-,-,-,conservative,yes,z,0,0.613246331034,-3,580
2019_Oct_31,214,001,3,recog,78,LOTTERY,LF,target,left,yellow,pleasantness,conservative,no,z,1,0.546925224655,1,581
2019_Oct_31,214,001,3,recog,79,UNSAVOURY,LF,lure,-,-,-,liberal,no,m,1,0.546871333967,1,582
2019_Oct_31,214,001,3,recog,80,KOSHER,LF,lure,-,-,-,conservative,no,m,1,0.66675318505,3,585
2019_Oct_31,214,001,3,recog,81,INCLUDING,HF,lure,-,-,-,liberal,no,m,1,0.733388837076,1,586
2019_Oct_31,214,001,3,recog,82,STUDENT,HF,target,left,yellow,pleasantness,conservative,no,z,1,0.520307624176,1,587
2019_Oct_31,214,001,3,recog,83,MEMBERS,HF,lure,-,-,-,conservative,no,m,1,0.600113866991,3,590
2019_Oct_31,214,001,3,recog,84,OFFER,HF,target,right,aqua,imageability,liberal,no,m,0,1.02670668508,-3,587
2019_Oct_31,214,001,3,recog,85,TILTS,LF,target,right,aqua,imageability,conservative,no,z,1,0.560135775205,1,588
2019_Oct_31,214,001,3,recog,86,TIMES,HF,target,left,yellow,pleasantness,liberal,no,z,1,0.706719545529,3,591
2019_Oct_31,214,001,3,recog,87,REQUIRED,HF,lure,-,-,-,liberal,no,m,1,0.720117063772,1,592
2019_Oct_31,214,001,3,recog,88,SPACE,HF,target,right,aqua,imageability,conservative,no,z,1,0.54686950095,1,593
2019_Oct_31,214,001,3,recog,89,PASSED,HF,target,right,aqua,imageability,liberal,no,z,1,0.653578561625,3,596
2019_Oct_31,214,001,3,recog,90,RAMBLE,LF,target,right,aqua,imageability,conservative,no,m,0,0.853378469534,-1,595
2019_Oct_31,214,001,3,recog,91,SNEAKED,LF,lure,-,-,-,liberal,no,m,1,0.706783334507,1,596
2019_Oct_31,214,001,3,recog,92,NATIONAL,HF,lure,-,-,-,conservative,no,m,1,0.626526536214,3,599
2019_Oct_31,214,001,3,recog,93,FRUGAL,LF,target,left,yellow,pleasantness,conservative,no,m,0,0.720136127144,-1,598
2019_Oct_31,214,001,3,recog,94,WICKEDLY,LF,lure,-,-,-,conservative,no,m,1,0.79983092255,3,601
2019_Oct_31,214,001,3,recog,95,LONGER,HF,target,right,aqua,imageability,conservative,no,z,1,0.759844765492,1,602
2019_Oct_31,214,001,4,source,0,LEVEL,HF,target,left,yellow,pleasantness,conservative,no,7,0,1.53289238286,-,-
2019_Oct_31,214,001,4,source,1,NEITHER,HF,target,left,yellow,pleasantness,liberal,no,3,1,1.09331080923,-,-
2019_Oct_31,214,001,4,source,2,QUICKLY,HF,target,left,yellow,pleasantness,conservative,no,3,1,1.66639501361,-,-
2019_Oct_31,214,001,4,source,3,RODENTS,LF,target,right,aqua,imageability,liberal,no,8,1,0.959968017526,-,-
2019_Oct_31,214,001,4,source,4,LIVED,HF,target,right,aqua,imageability,conservative,no,9,1,0.853419529106,-,-
2019_Oct_31,214,001,4,source,5,FIVER,LF,target,right,aqua,imageability,conservative,no,3,0,0.893037249831,-,-
2019_Oct_31,214,001,4,source,6,REACHED,HF,target,left,yellow,pleasantness,liberal,no,2,1,0.999943909692,-,-
2019_Oct_31,214,001,4,source,7,BUSINESS,HF,target,left,yellow,pleasantness,liberal,no,2,1,1.50645038537,-,-
2019_Oct_31,214,001,4,source,8,NUTSHELL,LF,target,left,yellow,pleasantness,conservative,no,3,1,1.82606248973,-,-
2019_Oct_31,214,001,4,source,9,TELEPHONE,HF,target,right,aqua,imageability,liberal,no,8,1,1.01307747355,-,-
2019_Oct_31,214,001,4,source,10,AVOCADO,LF,target,left,yellow,pleasantness,liberal,no,1,1,0.906434401469,-,-
2019_Oct_31,214,001,4,source,11,GIRLS,HF,target,right,aqua,imageability,conservative,no,9,1,0.773634182679,-,-
2019_Oct_31,214,001,4,source,12,AUBURN,LF,target,right,aqua,imageability,liberal,no,7,1,0.800261314845,-,-
2019_Oct_31,214,001,4,source,13,CAUGHT,HF,target,right,aqua,imageability,conservative,no,7,1,1.54643947526,-,-
2019_Oct_31,214,001,4,source,14,NEARLY,HF,target,left,yellow,pleasantness,conservative,no,3,1,1.10633365888,-,-
2019_Oct_31,214,001,4,source,15,HEIFERS,LF,target,left,yellow,pleasantness,liberal,no,7,0,1.0532399668,-,-
2019_Oct_31,214,001,4,source,16,EXCEPT,HF,target,left,yellow,pleasantness,liberal,no,3,1,0.720091768143,-,-
2019_Oct_31,214,001,4,source,17,AMEND,LF,target,right,aqua,imageability,conservative,yes,3,0,0.600110934164,-,-
2019_Oct_31,214,001,4,source,18,RADIAL,LF,target,left,yellow,pleasantness,conservative,no,3,1,1.07994445227,-,-
2019_Oct_31,214,001,4,source,19,NESTING,LF,target,right,aqua,imageability,conservative,no,2,0,1.66656401774,-,-
2019_Oct_31,214,001,4,source,20,WANTED,HF,target,left,yellow,pleasantness,conservative,no,1,1,1.14655480866,-,-
2019_Oct_31,214,001,4,source,21,NINETIES,LF,target,left,yellow,pleasantness,conservative,no,1,1,1.39982710988,-,-
2019_Oct_31,214,001,4,source,22,SNOBBISH,LF,target,left,yellow,pleasantness,liberal,no,3,1,0.840082867015,-,-
2019_Oct_31,214,001,4,source,23,UPDATE,LF,target,right,aqua,imageability,liberal,no,7,1,1.45312976584,-,-
2019_Oct_31,214,001,4,source,24,ALERTING,LF,target,right,aqua,imageability,conservative,no,9,1,0.74679881983,-,-
2019_Oct_31,214,001,4,source,25,ARTIFACTS,LF,target,left,yellow,pleasantness,conservative,no,1,1,1.18663591598,-,-
2019_Oct_31,214,001,4,source,26,ESPECIAL,LF,target,right,aqua,imageability,conservative,no,9,1,1.03973393398,-,-
2019_Oct_31,214,001,4,source,27,INDEED,HF,target,right,aqua,imageability,liberal,yes,8,1,0.840117327726,-,-
2019_Oct_31,214,001,4,source,28,CLOSE,HF,target,right,aqua,imageability,conservative,no,7,1,1.30624648061,-,-
2019_Oct_31,214,001,4,source,29,NOTHING,HF,target,left,yellow,pleasantness,liberal,no,1,1,1.35984571866,-,-
2019_Oct_31,214,001,4,source,30,WINDOW,HF,target,right,aqua,imageability,liberal,no,8,1,1.05333784989,-,-
2019_Oct_31,214,001,4,source,31,CHIEF,HF,target,right,aqua,imageability,conservative,no,9,1,0.733091521784,-,-
2019_Oct_31,214,001,4,source,32,RUNNING,HF,target,left,yellow,pleasantness,conservative,no,1,1,0.880031263931,-,-
2019_Oct_31,214,001,4,source,33,PANACHE,LF,target,right,aqua,imageability,conservative,no,9,1,0.893330532484,-,-
2019_Oct_31,214,001,4,source,34,GUILDHALL,LF,target,left,yellow,pleasantness,liberal,no,1,1,1.06637536367,-,-
2019_Oct_31,214,001,4,source,35,VAGABOND,LF,target,left,yellow,pleasantness,conservative,no,1,1,0.93330532484,-,-
2019_Oct_31,214,001,4,source,36,MOUTH,HF,target,right,aqua,imageability,conservative,no,9,1,0.973066754064,-,-
2019_Oct_31,214,001,4,source,37,IMPORTANT,HF,target,left,yellow,pleasantness,conservative,no,7,0,0.919728170972,-,-
2019_Oct_31,214,001,4,source,38,NICETIES,LF,target,right,aqua,imageability,liberal,no,7,1,1.29336623965,-,-
2019_Oct_31,214,001,4,source,39,REFECTORY,LF,target,left,yellow,pleasantness,conservative,yes,7,0,0.546560087751,-,-
2019_Oct_31,214,001,4,source,40,RAGES,LF,target,left,yellow,pleasantness,liberal,no,2,1,0.90641900413,-,-
2019_Oct_31,214,001,4,source,41,ACORNS,LF,target,right,aqua,imageability,liberal,yes,2,0,0.733392869713,-,-
2019_Oct_31,214,001,4,source,42,BICEPS,LF,target,left,yellow,pleasantness,liberal,no,1,1,0.653440718776,-,-
2019_Oct_31,214,001,4,source,43,HUMAN,HF,target,left,yellow,pleasantness,liberal,no,9,0,0.893146131015,-,-
2019_Oct_31,214,001,4,source,44,SHUNNED,LF,target,right,aqua,imageability,liberal,no,9,1,1.03994143145,-,-
2019_Oct_31,214,001,4,source,45,UNTIL,HF,target,right,aqua,imageability,liberal,no,7,1,0.719927896459,-,-
2019_Oct_31,214,001,4,source,46,SOCIAL,HF,target,right,aqua,imageability,liberal,no,8,1,1.06639479365,-,-
2019_Oct_31,214,001,4,source,47,CALLED,HF,target,right,aqua,imageability,liberal,no,8,1,1.41333204289,-,-
2019_Oct_31,214,001,4,recog,0,VESTIBULE,LF,lure,-,-,-,conservative,no,m,1,0.973347938809,3,605
2019_Oct_31,214,001,4,recog,1,FIVER,LF,target,right,aqua,imageability,conservative,no,z,1,0.82649178222,1,606
2019_Oct_31,214,001,4,recog,2,ACORNS,LF,target,right,aqua,imageability,liberal,no,z,1,0.679857420638,3,609
2019_Oct_31,214,001,4,recog,3,IMPORTANT,HF,target,left,yellow,pleasantness,conservative,no,z,1,0.640080960677,1,610
2019_Oct_31,214,001,4,recog,4,LOCAL,HF,lure,-,-,-,conservative,no,m,1,0.65354813355,3,613
2019_Oct_31,214,001,4,recog,5,AEONS,LF,lure,-,-,-,conservative,no,m,1,0.613484256587,3,616
2019_Oct_31,214,001,4,recog,6,GIRLS,HF,target,right,aqua,imageability,conservative,no,z,1,0.493483626029,1,617
2019_Oct_31,214,001,4,recog,7,TENABLE,LF,lure,-,-,-,conservative,no,m,1,0.706845657071,3,620
2019_Oct_31,214,001,4,recog,8,EFFECT,HF,lure,-,-,-,conservative,no,m,1,0.666758684099,3,623
2019_Oct_31,214,001,4,recog,9,NICETIES,LF,target,right,aqua,imageability,liberal,no,z,1,0.600147594496,3,626
2019_Oct_31,214,001,4,recog,10,HIVES,LF,lure,-,-,-,liberal,no,m,1,0.613483889983,1,627
2019_Oct_31,214,001,4,recog,11,LEECH,LF,lure,-,-,-,liberal,no,m,1,0.560134308792,1,628
2019_Oct_31,214,001,4,recog,12,AUBURN,LF,target,right,aqua,imageability,liberal,yes,m,0,0.62677582647,-3,625
2019_Oct_31,214,001,4,recog,13,NEEDED,HF,lure,-,-,-,conservative,no,m,1,0.880033463551,3,628
2019_Oct_31,214,001,4,recog,14,RETURN,HF,lure,-,-,-,conservative,no,z,0,0.53351194247,-3,625
2019_Oct_31,214,001,4,recog,15,EXCEPT,HF,target,left,yellow,pleasantness,liberal,no,z,1,0.600181688605,3,628
2019_Oct_31,214,001,4,recog,16,CAUGHT,HF,target,right,aqua,imageability,conservative,no,z,1,0.813169784261,1,629
2019_Oct_31,214,001,4,recog,17,BROUGHT,HF,lure,-,-,-,liberal,no,m,1,0.679901413036,1,630
2019_Oct_31,214,001,4,recog,18,CHIEF,HF,target,right,aqua,imageability,conservative,no,z,1,0.600199285564,1,631
2019_Oct_31,214,001,4,recog,19,GASEOUS,LF,lure,-,-,-,liberal,yes,m,1,0.480233848924,1,632
2019_Oct_31,214,001,4,recog,20,WANTED,HF,target,left,yellow,pleasantness,conservative,no,z,1,0.506838251684,1,633
2019_Oct_31,214,001,4,recog,21,RAGES,LF,target,left,yellow,pleasantness,liberal,no,z,1,0.533514142089,3,636
2019_Oct_31,214,001,4,recog,22,OFTEN,HF,lure,-,-,-,liberal,no,z,0,0.666771515216,-1,635
2019_Oct_31,214,001,4,recog,23,UPDATE,LF,target,right,aqua,imageability,liberal,no,z,1,0.746788188335,3,638
2019_Oct_31,214,001,4,recog,24,AGATE,LF,lure,-,-,-,liberal,no,z,0,0.639872363388,-1,637
2019_Oct_31,214,001,4,recog,25,HANDS,HF,lure,-,-,-,conservative,no,m,1,0.706736775885,3,640
2019_Oct_31,214,001,4,recog,26,LIVED,HF,target,right,aqua,imageability,conservative,no,z,1,0.586832195397,1,641
2019_Oct_31,214,001,4,recog,27,APPEARED,HF,lure,-,-,-,conservative,no,m,1,0.720299632224,3,644
2019_Oct_31,214,001,4,recog,28,SIZZLING,LF,lure,-,-,-,conservative,no,m,1,0.986582318576,3,647
2019_Oct_31,214,001,4,recog,29,REFECTORY,LF,target,left,yellow,pleasantness,conservative,no,m,0,0.613663159006,-1,646
2019_Oct_31,214,001,4,recog,30,HISTORY,HF,lure,-,-,-,liberal,no,m,1,0.640143283241,1,647
2019_Oct_31,214,001,4,recog,31,SOCIAL,HF,target,right,aqua,imageability,liberal,no,z,1,0.626829350555,3,650
2019_Oct_31,214,001,4,recog,32,SNOBBISH,LF,target,left,yellow,pleasantness,liberal,no,z,1,0.54657328547,3,653
2019_Oct_31,214,001,4,recog,33,WITHIN,HF,lure,-,-,-,liberal,no,z,0,1.02667662361,-1,652
2019_Oct_31,214,001,4,recog,34,PACIFISM,LF,lure,-,-,-,liberal,no,m,1,0.653428254264,1,653
2019_Oct_31,214,001,4,recog,35,TELEPHONE,HF,target,right,aqua,imageability,liberal,no,z,1,0.546927424274,3,656
2019_Oct_31,214,001,4,recog,36,VIBRATE,LF,lure,-,-,-,conservative,no,m,1,0.693442273175,3,659
2019_Oct_31,214,001,4,recog,37,NESTING,LF,target,right,aqua,imageability,conservative,no,z,1,0.640137417588,1,660
2019_Oct_31,214,001,4,recog,38,FEELING,HF,lure,-,-,-,liberal,no,m,1,0.680059419066,1,661
2019_Oct_31,214,001,4,recog,39,HUMAN,HF,target,left,yellow,pleasantness,liberal,no,z,1,0.560122210882,3,664
2019_Oct_31,214,001,4,recog,40,HEIFERS,LF,target,left,yellow,pleasantness,liberal,no,z,1,0.626754196875,3,667
2019_Oct_31,214,001,4,recog,41,CADDIE,LF,lure,-,-,-,liberal,no,m,1,0.986412947843,1,668
2019_Oct_31,214,001,4,recog,42,MARKET,HF,lure,-,-,-,conservative,no,m,1,0.573542091926,3,671
2019_Oct_31,214,001,4,recog,43,CLOSE,HF,target,right,aqua,imageability,conservative,no,m,0,0.826703678938,-1,670
2019_Oct_31,214,001,4,recog,44,NOTHING,HF,target,left,yellow,pleasantness,liberal,no,z,1,0.573504698387,3,673
2019_Oct_31,214,001,4,recog,45,QUICKLY,HF,target,left,yellow,pleasantness,conservative,no,m,0,0.706825493889,-1,672
2019_Oct_31,214,001,4,recog,46,BICEPS,LF,target,left,yellow,pleasantness,liberal,no,z,1,0.453713764929,3,675
2019_Oct_31,214,001,4,recog,47,UNTIL,HF,target,right,aqua,imageability,liberal,no,z,1,0.573502498768,3,678
2019_Oct_31,214,001,4,recog,48,RADIAL,LF,target,left,yellow,pleasantness,conservative,no,m,0,0.573538792496,-1,677
2019_Oct_31,214,001,4,recog,49,SHUNNED,LF,target,right,aqua,imageability,liberal,no,z,1,0.77340102297,3,680
2019_Oct_31,214,001,4,recog,50,OEDIPAL,LF,lure,-,-,-,liberal,no,m,1,0.626823118298,1,681
2019_Oct_31,214,001,4,recog,51,CURATOR,LF,lure,-,-,-,liberal,no,m,1,0.626736233312,1,682
2019_Oct_31,214,001,4,recog,52,WINDOW,HF,target,right,aqua,imageability,liberal,no,z,1,0.560126610121,3,685
2019_Oct_31,214,001,4,recog,53,CRACKLE,LF,lure,-,-,-,conservative,no,m,1,0.746706069192,3,688
2019_Oct_31,214,001,4,recog,54,ARTIFACTS,LF,target,left,yellow,pleasantness,conservative,no,z,1,0.653512206424,1,689
2019_Oct_31,214,001,4,recog,55,COOING,LF,lure,-,-,-,conservative,no,m,1,0.640141816827,3,692
2019_Oct_31,214,001,4,recog,56,MUSIC,HF,lure,-,-,-,conservative,no,m,1,0.600149794115,3,695
2019_Oct_31,214,001,4,recog,57,SUGARY,LF,lure,-,-,-,liberal,no,m,1,0.60021101687,1,696
2019_Oct_31,214,001,4,recog,58,NEARLY,HF,target,left,yellow,pleasantness,conservative,no,z,1,0.840191381596,1,697
2019_Oct_31,214,001,4,recog,59,HIMSELF,HF,lure,-,-,-,liberal,no,m,1,0.693206180639,1,698
2019_Oct_31,214,001,4,recog,60,PANACHE,LF,target,right,aqua,imageability,conservative,no,z,1,0.893329432674,1,699
2019_Oct_31,214,001,4,recog,61,NEITHER,HF,target,left,yellow,pleasantness,liberal,no,z,1,0.58689781739,3,702
2019_Oct_31,214,001,4,recog,62,ALERTING,LF,target,right,aqua,imageability,conservative,no,z,1,0.666772248422,1,703
2019_Oct_31,214,001,4,recog,63,RODENTS,LF,target,right,aqua,imageability,liberal,no,z,1,0.746769124962,3,706
2019_Oct_31,214,001,4,recog,64,SLOWLY,HF,lure,-,-,-,conservative,no,m,1,0.760065460689,3,709
2019_Oct_31,214,001,4,recog,65,USING,HF,lure,-,-,-,liberal,no,m,1,0.706771969803,1,710
2019_Oct_31,214,001,4,recog,66,DYNAMISM,LF,lure,-,-,-,liberal,no,m,1,0.4935356837,1,711
2019_Oct_31,214,001,4,recog,67,ALKALINE,LF,lure,-,-,-,conservative,no,m,1,0.586869955539,3,714
2019_Oct_31,214,001,4,recog,68,EARLIER,HF,lure,-,-,-,liberal,no,m,1,0.666537255695,1,715
2019_Oct_31,214,001,4,recog,69,AVOCADO,LF,target,left,yellow,pleasantness,liberal,no,z,1,0.600169590694,3,718
2019_Oct_31,214,001,4,recog,70,VAGABOND,LF,target,left,yellow,pleasantness,conservative,no,z,1,0.547211541846,1,719
2019_Oct_31,214,001,4,recog,71,MOUTH,HF,target,right,aqua,imageability,conservative,no,z,1,0.41354760564,1,720
2019_Oct_31,214,001,4,recog,72,INDEED,HF,target,right,aqua,imageability,liberal,no,m,0,0.760080124821,-3,717
2019_Oct_31,214,001,4,recog,73,RATHER,HF,lure,-,-,-,liberal,no,z,0,0.826477118087,-1,716
2019_Oct_31,214,001,4,recog,74,SELECTS,LF,lure,-,-,-,conservative,no,m,1,0.69349139802,3,719
2019_Oct_31,214,001,4,recog,75,NUTSHELL,LF,target,left,yellow,pleasantness,conservative,no,z,1,0.680074083199,1,720
2019_Oct_31,214,001,4,recog,76,DECIDED,HF,lure,-,-,-,conservative,no,m,1,0.693573150559,3,723
2019_Oct_31,214,001,4,recog,77,JOSTLED,LF,lure,-,-,-,conservative,yes,m,1,0.746836946575,3,726
2019_Oct_31,214,001,4,recog,78,ESPECIAL,LF,target,right,aqua,imageability,conservative,no,z,1,0.893149430445,1,727
2019_Oct_31,214,001,4,recog,79,GUILDHALL,LF,target,left,yellow,pleasantness,liberal,no,z,1,0.573474270313,3,730
2019_Oct_31,214,001,4,recog,80,STRAIGHT,HF,lure,-,-,-,liberal,no,z,0,0.986683867694,-1,729
2019_Oct_31,214,001,4,recog,81,CALLED,HF,target,right,aqua,imageability,liberal,no,m,0,0.573546124563,-3,726
2019_Oct_31,214,001,4,recog,82,REACHED,HF,target,left,yellow,pleasantness,liberal,no,z,1,1.49319620903,3,729
2019_Oct_31,214,001,4,recog,83,AMEND,LF,target,right,aqua,imageability,conservative,no,m,0,0.573466938246,-1,728
2019_Oct_31,214,001,4,recog,84,REVERE,LF,lure,-,-,-,liberal,no,m,1,0.826476751484,1,729
2019_Oct_31,214,001,4,recog,85,POSITION,HF,lure,-,-,-,liberal,no,m,1,0.999725414115,1,730
2019_Oct_31,214,001,4,recog,86,LEVEL,HF,target,left,yellow,pleasantness,conservative,no,z,1,0.520230270876,1,731
2019_Oct_31,214,001,4,recog,87,FINAL,HF,lure,-,-,-,conservative,no,m,1,0.853342542409,3,734
2019_Oct_31,214,001,4,recog,88,NINETIES,LF,target,left,yellow,pleasantness,conservative,no,z,1,0.600141728843,1,735
2019_Oct_31,214,001,4,recog,89,POINT,HF,lure,-,-,-,liberal,no,m,1,0.571073751789,1,736
2019_Oct_31,214,001,4,recog,90,RUNNING,HF,target,left,yellow,pleasantness,conservative,no,z,1,0.466917716619,1,737
2019_Oct_31,214,001,4,recog,91,ANYONE,HF,lure,-,-,-,conservative,no,m,1,0.68012284144,3,740
2019_Oct_31,214,001,4,recog,92,AUSPICES,LF,lure,-,-,-,conservative,no,m,1,0.61351101863,3,743
2019_Oct_31,214,001,4,recog,93,ERSTWHILE,LF,lure,-,-,-,conservative,no,m,1,0.546592348842,3,746
2019_Oct_31,214,001,4,recog,94,JUBILANT,LF,lure,-,-,-,liberal,no,m,1,0.560139074634,1,747
2019_Oct_31,214,001,4,recog,95,BUSINESS,HF,target,left,yellow,pleasantness,liberal,yes,m,0,0.799720574952,-3,744
