date,subj,session,cycle,task,trial,item,wf,type,source,colour,encoding,bias,null,response,corr,rt,points,total
2019_Nov_01,215,001,0,source,0,AXLES,LF,target,right,yellow,pleasantness,conservative,no,1,0,2.74596166635,-,-
2019_Nov_01,215,001,0,source,1,ETHER,LF,target,right,yellow,pleasantness,liberal,no,9,1,1.5464550429,-,-
2019_Nov_01,215,001,0,source,2,EXUDED,LF,target,right,yellow,pleasantness,liberal,no,9,1,1.21311315546,-,-
2019_Nov_01,215,001,0,source,3,PIVOT,LF,target,right,yellow,pleasantness,conservative,no,9,1,1.1333557451,-,-
2019_Nov_01,215,001,0,source,4,CURATOR,LF,target,right,yellow,pleasantness,liberal,no,9,1,0.813404092921,-,-
2019_Nov_01,215,001,0,source,5,BOOKS,HF,target,right,yellow,pleasantness,liberal,no,9,1,0.826710375718,-,-
2019_Nov_01,215,001,0,source,6,LOCAL,HF,target,left,aqua,imageability,liberal,no,1,1,1.33319781181,-,-
2019_Nov_01,215,001,0,source,7,TELEPHONE,HF,target,right,yellow,pleasantness,liberal,no,9,1,0.879795463927,-,-
2019_Nov_01,215,001,0,source,8,AMICABLY,LF,target,left,aqua,imageability,liberal,no,9,0,1.26651792294,-,-
2019_Nov_01,215,001,0,source,9,FORCE,HF,target,right,yellow,pleasantness,liberal,no,9,1,0.706776393886,-,-
2019_Nov_01,215,001,0,source,10,WOMAN,HF,target,left,aqua,imageability,conservative,no,1,1,1.45314059215,-,-
2019_Nov_01,215,001,0,source,11,JOWLS,LF,target,left,aqua,imageability,conservative,no,1,1,1.59951043613,-,-
2019_Nov_01,215,001,0,source,12,BUCKED,LF,target,right,yellow,pleasantness,conservative,no,9,1,1.57320508525,-,-
2019_Nov_01,215,001,0,source,13,WHETHER,HF,target,right,yellow,pleasantness,liberal,yes,3,0,2.1329466143,-,-
2019_Nov_01,215,001,0,source,14,HYACINTHS,LF,target,left,aqua,imageability,conservative,no,1,1,1.05327388961,-,-
2019_Nov_01,215,001,0,source,15,FLYWHEEL,LF,target,left,aqua,imageability,liberal,no,1,1,1.97276310667,-,-
2019_Nov_01,215,001,0,source,16,HOEING,LF,target,right,yellow,pleasantness,conservative,no,9,1,1.30651779096,-,-
2019_Nov_01,215,001,0,source,17,ZIPPED,LF,target,right,yellow,pleasantness,liberal,no,9,1,4.45197002347,-,-
2019_Nov_01,215,001,0,source,18,NUMBER,HF,target,right,yellow,pleasantness,liberal,no,9,1,1.53311356606,-,-
2019_Nov_01,215,001,0,source,19,COFFINS,LF,target,right,yellow,pleasantness,conservative,no,3,0,2.21279274299,-,-
2019_Nov_01,215,001,0,source,20,PIECE,HF,target,left,aqua,imageability,liberal,no,1,1,1.23992882004,-,-
2019_Nov_01,215,001,0,source,21,TALKING,HF,target,right,yellow,pleasantness,conservative,no,1,0,2.01291254939,-,-
2019_Nov_01,215,001,0,source,22,TAUNTED,LF,target,left,aqua,imageability,conservative,no,2,1,4.3719765197,-,-
2019_Nov_01,215,001,0,source,23,SCYTHE,LF,target,left,aqua,imageability,liberal,no,8,0,3.82529088247,-,-
2019_Nov_01,215,001,0,source,24,ANSWER,HF,target,left,aqua,imageability,liberal,no,1,1,1.90632151082,-,-
2019_Nov_01,215,001,0,source,25,FOUND,HF,target,left,aqua,imageability,conservative,no,1,1,1.38647683388,-,-
2019_Nov_01,215,001,0,source,26,WHOLE,HF,target,left,aqua,imageability,conservative,no,1,1,0.893225292495,-,-
2019_Nov_01,215,001,0,source,27,REPORT,HF,target,right,yellow,pleasantness,liberal,no,9,1,1.21321470495,-,-
2019_Nov_01,215,001,0,source,28,WALKED,HF,target,left,aqua,imageability,liberal,no,1,1,2.19963016922,-,-
2019_Nov_01,215,001,0,source,29,ENROLMENT,LF,target,right,yellow,pleasantness,liberal,no,9,1,0.959935242952,-,-
2019_Nov_01,215,001,0,source,30,NEBULOUS,LF,target,right,yellow,pleasantness,liberal,no,9,1,1.98624352668,-,-
2019_Nov_01,215,001,0,source,31,TRADE,HF,target,left,aqua,imageability,conservative,yes,7,0,2.78569721241,-,-
2019_Nov_01,215,001,0,source,32,TERMS,HF,target,left,aqua,imageability,conservative,no,1,1,2.2128568988,-,-
2019_Nov_01,215,001,0,source,33,APPEARED,HF,target,right,yellow,pleasantness,conservative,no,8,1,3.14577594443,-,-
2019_Nov_01,215,001,0,source,34,SIMILAR,HF,target,right,yellow,pleasantness,conservative,no,8,1,1.57315852645,-,-
2019_Nov_01,215,001,0,source,35,LOOKED,HF,target,left,aqua,imageability,liberal,no,1,1,3.67867724639,-,-
2019_Nov_01,215,001,0,source,36,ALMOST,HF,target,right,yellow,pleasantness,conservative,no,9,1,1.61322474992,-,-
2019_Nov_01,215,001,0,source,37,BEREAVED,LF,target,left,aqua,imageability,liberal,no,1,1,3.81194280674,-,-
2019_Nov_01,215,001,0,source,38,TASSELS,LF,target,left,aqua,imageability,conservative,no,1,1,1.01338876885,-,-
2019_Nov_01,215,001,0,source,39,GIRLS,HF,target,right,yellow,pleasantness,conservative,yes,2,0,2.1462536303,-,-
2019_Nov_01,215,001,0,source,40,NARRATOR,LF,target,left,aqua,imageability,conservative,yes,3,1,1.2266742285,-,-
2019_Nov_01,215,001,0,source,41,SALAMI,LF,target,left,aqua,imageability,liberal,no,1,1,1.39989566431,-,-
2019_Nov_01,215,001,0,source,42,PUBLIC,HF,target,right,yellow,pleasantness,conservative,no,9,1,1.27961194163,-,-
2019_Nov_01,215,001,0,source,43,UNION,HF,target,left,aqua,imageability,conservative,no,1,1,2.51945131014,-,-
2019_Nov_01,215,001,0,source,44,FACILE,LF,target,left,aqua,imageability,conservative,no,1,1,4.38528060287,-,-
2019_Nov_01,215,001,0,source,45,KANGAROO,LF,target,right,yellow,pleasantness,conservative,no,9,1,0.813367432455,-,-
2019_Nov_01,215,001,0,source,46,HAVING,HF,target,left,aqua,imageability,liberal,no,2,1,1.55976609156,-,-
2019_Nov_01,215,001,0,source,47,JOYFULLY,LF,target,left,aqua,imageability,liberal,no,1,1,2.75916126719,-,-
2019_Nov_01,215,001,0,recog,0,MAJOR,HF,lure,-,-,-,conservative,no,m,1,2.46605827401,3,3
2019_Nov_01,215,001,0,recog,1,FOUND,HF,target,left,aqua,imageability,conservative,no,z,1,1.39981391147,1,4
2019_Nov_01,215,001,0,recog,2,BOOKS,HF,target,right,yellow,pleasantness,liberal,no,z,1,1.39980951222,3,7
2019_Nov_01,215,001,0,recog,3,PINAFORE,LF,lure,-,-,-,liberal,no,m,1,1.07993521362,1,8
2019_Nov_01,215,001,0,recog,4,SCYTHE,LF,target,left,aqua,imageability,liberal,no,z,1,0.840036821772,3,11
2019_Nov_01,215,001,0,recog,5,BEREAVED,LF,target,left,aqua,imageability,liberal,no,z,1,0.906676384134,3,14
2019_Nov_01,215,001,0,recog,6,LOOKED,HF,target,left,aqua,imageability,liberal,no,z,1,0.98666365562,3,17
2019_Nov_01,215,001,0,recog,7,LOCAL,HF,target,left,aqua,imageability,liberal,no,z,1,0.813414357852,3,20
2019_Nov_01,215,001,0,recog,8,TELEPHONE,HF,target,right,yellow,pleasantness,liberal,no,z,1,0.706763562723,3,23
2019_Nov_01,215,001,0,recog,9,AXLES,LF,target,right,yellow,pleasantness,conservative,no,z,1,0.89336166943,1,24
2019_Nov_01,215,001,0,recog,10,UNABATED,LF,lure,-,-,-,liberal,no,m,1,1.18657501061,1,25
2019_Nov_01,215,001,0,recog,11,SPACE,HF,lure,-,-,-,liberal,no,m,1,1.43981524591,1,26
2019_Nov_01,215,001,0,recog,12,LAUNCHER,LF,lure,-,-,-,conservative,no,m,1,1.46623901011,3,29
2019_Nov_01,215,001,0,recog,13,WOMAN,HF,target,left,aqua,imageability,conservative,no,z,1,0.946660488156,1,30
2019_Nov_01,215,001,0,recog,14,TERMS,HF,target,left,aqua,imageability,conservative,no,z,1,0.98663139441,1,31
2019_Nov_01,215,001,0,recog,15,ANSWER,HF,target,left,aqua,imageability,liberal,no,z,1,0.826764633208,3,34
2019_Nov_01,215,001,0,recog,16,HAVING,HF,target,left,aqua,imageability,liberal,no,z,1,0.533596017793,3,37
2019_Nov_01,215,001,0,recog,17,APPEARED,HF,target,right,yellow,pleasantness,conservative,no,z,1,0.746952232146,1,38
2019_Nov_01,215,001,0,recog,18,GIRLS,HF,target,right,yellow,pleasantness,conservative,no,z,1,1.11986909281,1,39
2019_Nov_01,215,001,0,recog,19,HOEING,LF,target,right,yellow,pleasantness,conservative,no,z,1,1.1066090022,1,40
2019_Nov_01,215,001,0,recog,20,POUNDS,HF,lure,-,-,-,liberal,no,m,1,0.746489210458,1,41
2019_Nov_01,215,001,0,recog,21,PIVOT,LF,target,right,yellow,pleasantness,conservative,no,z,1,0.720103573149,1,42
2019_Nov_01,215,001,0,recog,22,ENTIRELY,HF,lure,-,-,-,conservative,no,m,1,1.14661583571,3,45
2019_Nov_01,215,001,0,recog,23,CAMPANILE,LF,lure,-,-,-,conservative,no,m,1,1.50643794446,3,48
2019_Nov_01,215,001,0,recog,24,ALREADY,HF,lure,-,-,-,conservative,no,m,1,1.46648390202,3,51
2019_Nov_01,215,001,0,recog,25,STAFF,HF,lure,-,-,-,conservative,no,m,1,1.10635127912,3,54
2019_Nov_01,215,001,0,recog,26,SOLEMNITY,LF,lure,-,-,-,conservative,no,m,1,0.519935228288,3,57
2019_Nov_01,215,001,0,recog,27,PIECE,HF,target,left,aqua,imageability,liberal,no,z,1,0.706781892956,3,60
2019_Nov_01,215,001,0,recog,28,JOYFULLY,LF,target,left,aqua,imageability,liberal,no,z,1,0.85346738355,3,63
2019_Nov_01,215,001,0,recog,29,CURATOR,LF,target,right,yellow,pleasantness,liberal,no,z,1,0.693567994533,3,66
2019_Nov_01,215,001,0,recog,30,TABLE,HF,lure,-,-,-,conservative,no,m,1,0.733448349436,3,69
2019_Nov_01,215,001,0,recog,31,FOLLOWED,HF,lure,-,-,-,liberal,no,m,1,1.13330185421,1,70
2019_Nov_01,215,001,0,recog,32,SIMILAR,HF,target,right,yellow,pleasantness,conservative,no,z,1,1.11994094732,1,71
2019_Nov_01,215,001,0,recog,33,DITTO,LF,lure,-,-,-,liberal,no,m,1,0.76007264638,1,72
2019_Nov_01,215,001,0,recog,34,HOWEVER,HF,lure,-,-,-,liberal,no,m,1,1.33290892734,1,73
2019_Nov_01,215,001,0,recog,35,ETHER,LF,target,right,yellow,pleasantness,liberal,yes,z,1,2.29279467866,3,76
2019_Nov_01,215,001,0,recog,36,SALAMI,LF,target,left,aqua,imageability,liberal,no,z,1,0.959994266303,3,79
2019_Nov_01,215,001,0,recog,37,ENROLMENT,LF,target,right,yellow,pleasantness,liberal,no,z,1,0.960012596536,3,82
2019_Nov_01,215,001,0,recog,38,ORDER,HF,lure,-,-,-,conservative,no,m,1,0.78673910286,3,85
2019_Nov_01,215,001,0,recog,39,SENSE,HF,lure,-,-,-,conservative,no,m,1,0.57349873558,3,88
2019_Nov_01,215,001,0,recog,40,COFFINS,LF,target,right,yellow,pleasantness,conservative,no,z,1,1.05307115723,1,89
2019_Nov_01,215,001,0,recog,41,LAMENT,LF,lure,-,-,-,conservative,no,m,1,0.720085242916,3,92
2019_Nov_01,215,001,0,recog,42,WALKED,HF,target,left,aqua,imageability,liberal,no,z,1,0.720061047008,3,95
2019_Nov_01,215,001,0,recog,43,KANGAROO,LF,target,right,yellow,pleasantness,conservative,no,z,1,0.773295343314,1,96
2019_Nov_01,215,001,0,recog,44,ACACIA,LF,lure,-,-,-,conservative,no,m,1,1.14670675366,3,99
2019_Nov_01,215,001,0,recog,45,UNION,HF,target,left,aqua,imageability,conservative,no,z,1,0.706783725979,1,100
2019_Nov_01,215,001,0,recog,46,AMICABLY,LF,target,left,aqua,imageability,liberal,no,z,1,0.933350172707,3,103
2019_Nov_01,215,001,0,recog,47,OXIDE,LF,lure,-,-,-,liberal,yes,m,1,1.58571913537,1,104
2019_Nov_01,215,001,0,recog,48,CABLED,LF,lure,-,-,-,liberal,no,m,1,2.06630631872,1,105
2019_Nov_01,215,001,0,recog,49,ALMOST,HF,target,right,yellow,pleasantness,conservative,no,z,1,2.34612539199,1,106
2019_Nov_01,215,001,0,recog,50,PAPER,HF,lure,-,-,-,conservative,no,m,1,0.773541701647,3,109
2019_Nov_01,215,001,0,recog,51,CLOSE,HF,lure,-,-,-,conservative,no,m,1,1.13333484863,3,112
2019_Nov_01,215,001,0,recog,52,RUNNING,HF,lure,-,-,-,conservative,no,m,1,0.666838482051,3,115
2019_Nov_01,215,001,0,recog,53,DAPPER,LF,lure,-,-,-,liberal,no,z,0,3.26579094589,-1,114
2019_Nov_01,215,001,0,recog,54,HYACINTHS,LF,target,left,aqua,imageability,conservative,no,z,1,1.30654821914,1,115
2019_Nov_01,215,001,0,recog,55,FABLE,LF,lure,-,-,-,liberal,no,m,1,1.23986173139,1,116
2019_Nov_01,215,001,0,recog,56,IMMEDIACY,LF,lure,-,-,-,conservative,no,m,1,1.21321800439,3,119
2019_Nov_01,215,001,0,recog,57,NUMBER,HF,target,right,yellow,pleasantness,liberal,no,z,1,1.35988773099,3,122
2019_Nov_01,215,001,0,recog,58,ZIPPED,LF,target,right,yellow,pleasantness,liberal,no,z,1,1.27987076452,3,125
2019_Nov_01,215,001,0,recog,59,RANGE,HF,lure,-,-,-,liberal,no,m,1,0.706833950818,1,126
2019_Nov_01,215,001,0,recog,60,ROCKER,LF,lure,-,-,-,conservative,no,m,1,1.23989875846,3,129
2019_Nov_01,215,001,0,recog,61,OLDER,HF,lure,-,-,-,liberal,no,m,1,0.880053920214,1,130
2019_Nov_01,215,001,0,recog,62,NURTURING,LF,lure,-,-,-,liberal,no,m,1,1.14658174147,1,131
2019_Nov_01,215,001,0,recog,63,PUTTS,LF,lure,-,-,-,liberal,no,m,1,0.920036191212,1,132
2019_Nov_01,215,001,0,recog,64,REPORT,HF,target,right,yellow,pleasantness,liberal,no,z,1,0.999956007441,3,135
2019_Nov_01,215,001,0,recog,65,SIPHON,LF,lure,-,-,-,liberal,no,m,1,0.87998756477,1,136
2019_Nov_01,215,001,0,recog,66,WHETHER,HF,target,right,yellow,pleasantness,liberal,no,z,1,1.55993839575,3,139
2019_Nov_01,215,001,0,recog,67,EDUCATION,HF,lure,-,-,-,liberal,no,m,1,0.733410222551,1,140
2019_Nov_01,215,001,0,recog,68,FORCE,HF,target,right,yellow,pleasantness,liberal,no,z,1,0.760057615589,3,143
2019_Nov_01,215,001,0,recog,69,PUBLIC,HF,target,right,yellow,pleasantness,conservative,no,z,1,0.853460784666,1,144
2019_Nov_01,215,001,0,recog,70,EMOTIVE,LF,lure,-,-,-,conservative,no,m,1,0.720116404312,3,147
2019_Nov_01,215,001,0,recog,71,EXUDED,LF,target,right,yellow,pleasantness,liberal,no,z,1,0.786727004906,3,150
2019_Nov_01,215,001,0,recog,72,TASSELS,LF,target,left,aqua,imageability,conservative,no,z,1,0.720126302638,1,151
2019_Nov_01,215,001,0,recog,73,DOUBT,HF,lure,-,-,-,liberal,no,m,1,1.12003223188,1,152
2019_Nov_01,215,001,0,recog,74,BUCKED,LF,target,right,yellow,pleasantness,conservative,no,z,1,0.720103573149,1,153
2019_Nov_01,215,001,0,recog,75,FLYWHEEL,LF,target,left,aqua,imageability,liberal,no,z,1,0.826490412921,3,156
2019_Nov_01,215,001,0,recog,76,NARRATOR,LF,target,left,aqua,imageability,conservative,no,z,1,0.733467779483,1,157
2019_Nov_01,215,001,0,recog,77,BLOOD,HF,lure,-,-,-,liberal,no,m,1,0.666841414889,1,158
2019_Nov_01,215,001,0,recog,78,UNJUSTLY,LF,lure,-,-,-,conservative,no,m,1,0.813717173302,3,161
2019_Nov_01,215,001,0,recog,79,MALIGNED,LF,lure,-,-,-,liberal,no,m,1,0.61359905328,1,162
2019_Nov_01,215,001,0,recog,80,LANGUAGE,HF,lure,-,-,-,liberal,yes,z,0,1.46645787309,-1,161
2019_Nov_01,215,001,0,recog,81,NEBULOUS,LF,target,right,yellow,pleasantness,liberal,no,z,1,0.840056985028,3,164
2019_Nov_01,215,001,0,recog,82,AWAITS,LF,lure,-,-,-,liberal,no,m,1,0.693423552297,1,165
2019_Nov_01,215,001,0,recog,83,VEXED,LF,lure,-,-,-,conservative,yes,m,1,1.34627863274,3,168
2019_Nov_01,215,001,0,recog,84,FACILE,LF,target,left,aqua,imageability,conservative,no,z,1,1.59974103047,1,169
2019_Nov_01,215,001,0,recog,85,AMONG,HF,lure,-,-,-,conservative,no,m,1,0.653470243066,3,172
2019_Nov_01,215,001,0,recog,86,JOWLS,LF,target,left,aqua,imageability,conservative,no,z,1,0.773424388155,1,173
2019_Nov_01,215,001,0,recog,87,THOUSAND,HF,lure,-,-,-,conservative,no,m,1,0.586814183494,3,176
2019_Nov_01,215,001,0,recog,88,TALKING,HF,target,right,yellow,pleasantness,conservative,no,z,1,1.3331578519,1,177
2019_Nov_01,215,001,0,recog,89,SPEAK,HF,lure,-,-,-,liberal,no,m,1,0.613530864813,1,178
2019_Nov_01,215,001,0,recog,90,GIBBERISH,LF,lure,-,-,-,conservative,no,m,1,1.23988592729,3,181
2019_Nov_01,215,001,0,recog,91,TAUNTED,LF,target,left,aqua,imageability,conservative,no,z,1,1.53321291592,1,182
2019_Nov_01,215,001,0,recog,92,WHOLE,HF,target,left,aqua,imageability,conservative,no,z,1,0.760107473822,1,183
2019_Nov_01,215,001,0,recog,93,FEVERS,LF,lure,-,-,-,conservative,no,m,1,0.60015016127,3,186
2019_Nov_01,215,001,0,recog,94,VOICE,HF,lure,-,-,-,liberal,no,m,1,0.760074846008,1,187
2019_Nov_01,215,001,0,recog,95,TRADE,HF,target,left,aqua,imageability,conservative,no,m,0,0.6802353162,-1,186
2019_Nov_01,215,001,1,source,0,ASKED,HF,target,left,aqua,imageability,liberal,yes,3,1,1.91939536626,-,-
2019_Nov_01,215,001,1,source,1,JADED,LF,target,left,aqua,imageability,liberal,no,1,1,4.94515044356,-,-
2019_Nov_01,215,001,1,source,2,GIMMICKS,LF,target,right,yellow,pleasantness,liberal,no,9,1,2.21287486243,-,-
2019_Nov_01,215,001,1,source,3,PREPARED,HF,target,left,aqua,imageability,liberal,no,2,1,2.38583637554,-,-
2019_Nov_01,215,001,1,source,4,SEEMED,HF,target,left,aqua,imageability,conservative,no,1,1,2.45282861159,-,-
2019_Nov_01,215,001,1,source,5,AHEAD,HF,target,left,aqua,imageability,conservative,no,3,1,2.99921876547,-,-
2019_Nov_01,215,001,1,source,6,INTEREST,HF,target,right,yellow,pleasantness,liberal,no,9,1,1.23989289278,-,-
2019_Nov_01,215,001,1,source,7,LAVISHED,LF,target,left,aqua,imageability,liberal,no,1,1,0.906695814181,-,-
2019_Nov_01,215,001,1,source,8,WHATEVER,HF,target,right,yellow,pleasantness,conservative,no,9,1,0.866773666347,-,-
2019_Nov_01,215,001,1,source,9,POWER,HF,target,left,aqua,imageability,conservative,no,1,1,0.973421895243,-,-
2019_Nov_01,215,001,1,source,10,FISHY,LF,target,left,aqua,imageability,conservative,no,1,1,0.626972058126,-,-
2019_Nov_01,215,001,1,source,11,DRYER,LF,target,left,aqua,imageability,conservative,no,1,1,1.04009078598,-,-
2019_Nov_01,215,001,1,source,12,TOADS,LF,target,left,aqua,imageability,conservative,no,1,1,0.746737768419,-,-
2019_Nov_01,215,001,1,source,13,BEHIND,HF,target,left,aqua,imageability,liberal,no,1,1,0.906358171288,-,-
2019_Nov_01,215,001,1,source,14,AMBIENCE,LF,target,right,yellow,pleasantness,conservative,yes,7,1,1.59943088292,-,-
2019_Nov_01,215,001,1,source,15,HEDGED,LF,target,left,aqua,imageability,liberal,no,8,0,4.50537479094,-,-
2019_Nov_01,215,001,1,source,16,REFECTORY,LF,target,right,yellow,pleasantness,conservative,no,9,1,1.05332924691,-,-
2019_Nov_01,215,001,1,source,17,USING,HF,target,right,yellow,pleasantness,liberal,no,9,1,0.986521046407,-,-
2019_Nov_01,215,001,1,source,18,ALIAS,LF,target,left,aqua,imageability,conservative,yes,7,0,1.34651875879,-,-
2019_Nov_01,215,001,1,source,19,MEANS,HF,target,left,aqua,imageability,liberal,no,3,1,2.11954501429,-,-
2019_Nov_01,215,001,1,source,20,PIZZA,LF,target,left,aqua,imageability,liberal,no,1,1,1.94625612321,-,-
2019_Nov_01,215,001,1,source,21,BIBLES,LF,target,right,yellow,pleasantness,conservative,no,9,1,0.919972402001,-,-
2019_Nov_01,215,001,1,source,22,BEYOND,HF,target,right,yellow,pleasantness,conservative,no,9,1,0.893353970732,-,-
2019_Nov_01,215,001,1,source,23,APOSTLE,LF,target,left,aqua,imageability,conservative,yes,7,0,1.09335147782,-,-
2019_Nov_01,215,001,1,source,24,WOODCOCK,LF,target,left,aqua,imageability,liberal,no,1,1,1.0000153974,-,-
2019_Nov_01,215,001,1,source,25,ESTRANGED,LF,target,right,yellow,pleasantness,conservative,no,9,1,0.853356302337,-,-
2019_Nov_01,215,001,1,source,26,BOGEY,LF,target,right,yellow,pleasantness,conservative,no,9,1,2.01290008483,-,-
2019_Nov_01,215,001,1,source,27,IDYLL,LF,target,left,aqua,imageability,conservative,no,9,0,2.10633111586,-,-
2019_Nov_01,215,001,1,source,28,FUTURE,HF,target,right,yellow,pleasantness,liberal,no,9,1,0.706757697048,-,-
2019_Nov_01,215,001,1,source,29,HUMAN,HF,target,left,aqua,imageability,liberal,no,1,1,0.786539303319,-,-
2019_Nov_01,215,001,1,source,30,LOUDEST,LF,target,left,aqua,imageability,liberal,no,1,1,3.01251368352,-,-
2019_Nov_01,215,001,1,source,31,CONCERNED,HF,target,right,yellow,pleasantness,conservative,no,9,1,0.946672219505,-,-
2019_Nov_01,215,001,1,source,32,WEEKS,HF,target,right,yellow,pleasantness,conservative,no,9,1,1.26628476237,-,-
2019_Nov_01,215,001,1,source,33,OFFER,HF,target,left,aqua,imageability,liberal,no,1,1,4.78508058337,-,-
2019_Nov_01,215,001,1,source,34,ITSELF,HF,target,right,yellow,pleasantness,liberal,no,9,1,1.37293629071,-,-
2019_Nov_01,215,001,1,source,35,CAPITAL,HF,target,right,yellow,pleasantness,liberal,no,9,1,1.17325809628,-,-
2019_Nov_01,215,001,1,source,36,PLUGGING,LF,target,right,yellow,pleasantness,liberal,no,9,1,0.733179994824,-,-
2019_Nov_01,215,001,1,source,37,DURING,HF,target,left,aqua,imageability,conservative,no,1,1,1.03996577379,-,-
2019_Nov_01,215,001,1,source,38,ADDED,HF,target,right,yellow,pleasantness,liberal,no,9,1,1.21322863593,-,-
2019_Nov_01,215,001,1,source,39,STRAIGHT,HF,target,left,aqua,imageability,conservative,no,1,1,1.65313003394,-,-
2019_Nov_01,215,001,1,source,40,LUMBER,LF,target,right,yellow,pleasantness,liberal,no,9,1,1.19960597331,-,-
2019_Nov_01,215,001,1,source,41,NECESSARY,HF,target,right,yellow,pleasantness,conservative,no,9,1,1.13339607161,-,-
2019_Nov_01,215,001,1,source,42,THANK,HF,target,right,yellow,pleasantness,conservative,no,9,1,0.546569423558,-,-
2019_Nov_01,215,001,1,source,43,MOUTH,HF,target,left,aqua,imageability,conservative,no,1,1,0.693490274345,-,-
2019_Nov_01,215,001,1,source,44,SEPULCHRE,LF,target,right,yellow,pleasantness,conservative,no,9,1,2.99911501635,-,-
2019_Nov_01,215,001,1,source,45,DULLED,LF,target,right,yellow,pleasantness,liberal,no,3,0,4.57189374037,-,-
2019_Nov_01,215,001,1,source,46,OVENS,LF,target,right,yellow,pleasantness,liberal,no,9,1,1.35982320857,-,-
2019_Nov_01,215,001,1,source,47,NEPHEWS,LF,target,right,yellow,pleasantness,liberal,no,9,1,1.21337051193,-,-
2019_Nov_01,215,001,1,recog,0,BEHIND,HF,target,left,aqua,imageability,liberal,no,z,1,1.75967707995,3,189
2019_Nov_01,215,001,1,recog,1,VOWEL,LF,lure,-,-,-,liberal,no,m,1,1.49315915701,1,190
2019_Nov_01,215,001,1,recog,2,ADDED,HF,target,right,yellow,pleasantness,liberal,no,z,1,1.05332448105,3,193
2019_Nov_01,215,001,1,recog,3,CAPITAL,HF,target,right,yellow,pleasantness,liberal,no,z,1,0.813383196455,3,196
2019_Nov_01,215,001,1,recog,4,NAGGED,LF,lure,-,-,-,liberal,no,m,1,0.706758796862,1,197
2019_Nov_01,215,001,1,recog,5,FRIEND,HF,lure,-,-,-,liberal,no,m,1,0.773478645645,1,198
2019_Nov_01,215,001,1,recog,6,WEEKS,HF,target,right,yellow,pleasantness,conservative,no,z,1,2.62588140926,1,199
2019_Nov_01,215,001,1,recog,7,RAKING,LF,lure,-,-,-,liberal,no,m,1,0.920079083957,1,200
2019_Nov_01,215,001,1,recog,8,MUSIC,HF,lure,-,-,-,conservative,no,m,1,0.960099848445,3,203
2019_Nov_01,215,001,1,recog,9,SEEMED,HF,target,left,aqua,imageability,conservative,yes,m,0,1.13324319747,-1,202
2019_Nov_01,215,001,1,recog,10,ITSELF,HF,target,right,yellow,pleasantness,liberal,no,z,1,1.41313119241,3,205
2019_Nov_01,215,001,1,recog,11,JADED,LF,target,left,aqua,imageability,liberal,no,z,1,2.17285299813,3,208
2019_Nov_01,215,001,1,recog,12,INVOLVED,HF,lure,-,-,-,conservative,no,m,1,1.00002089647,3,211
2019_Nov_01,215,001,1,recog,13,OSTRACISM,LF,lure,-,-,-,conservative,no,m,1,0.760212322756,3,214
2019_Nov_01,215,001,1,recog,14,SLIGHTLY,HF,lure,-,-,-,conservative,no,m,1,0.959784568437,3,217
2019_Nov_01,215,001,1,recog,15,TUMBLER,LF,lure,-,-,-,liberal,no,m,1,0.759839485815,1,218
2019_Nov_01,215,001,1,recog,16,ASKED,HF,target,left,aqua,imageability,liberal,no,m,0,1.31964040482,-3,215
2019_Nov_01,215,001,1,recog,17,BIBLES,LF,target,right,yellow,pleasantness,conservative,no,z,1,2.38608933276,1,216
2019_Nov_01,215,001,1,recog,18,BEYOND,HF,target,right,yellow,pleasantness,conservative,no,z,1,0.82671440837,1,217
2019_Nov_01,215,001,1,recog,19,DULLED,LF,target,right,yellow,pleasantness,liberal,no,z,1,1.61218982496,3,220
2019_Nov_01,215,001,1,recog,20,GIMMICKS,LF,target,right,yellow,pleasantness,liberal,no,z,1,1.07970645232,3,223
2019_Nov_01,215,001,1,recog,21,SKIDDED,LF,lure,-,-,-,liberal,no,m,1,0.800140336264,1,224
2019_Nov_01,215,001,1,recog,22,PIZZA,LF,target,left,aqua,imageability,liberal,no,z,1,1.03995954151,3,227
2019_Nov_01,215,001,1,recog,23,TOADS,LF,target,left,aqua,imageability,conservative,no,z,1,0.840067983168,1,228
2019_Nov_01,215,001,1,recog,24,POWER,HF,target,left,aqua,imageability,conservative,yes,m,0,1.15989095711,-1,227
2019_Nov_01,215,001,1,recog,25,INNATELY,LF,lure,-,-,-,conservative,no,z,0,1.66639855646,-3,224
2019_Nov_01,215,001,1,recog,26,AHEAD,HF,target,left,aqua,imageability,conservative,no,z,1,4.198701193,1,225
2019_Nov_01,215,001,1,recog,27,STRAIGHT,HF,target,left,aqua,imageability,conservative,yes,m,0,1.91963475911,-1,224
2019_Nov_01,215,001,1,recog,28,INTEREST,HF,target,right,yellow,pleasantness,liberal,no,z,1,1.78630467634,3,227
2019_Nov_01,215,001,1,recog,29,BUDDIES,LF,lure,-,-,-,conservative,no,m,1,0.986402266496,3,230
2019_Nov_01,215,001,1,recog,30,WHATEVER,HF,target,right,yellow,pleasantness,conservative,no,z,1,0.919776635112,1,231
2019_Nov_01,215,001,1,recog,31,MOUTH,HF,target,left,aqua,imageability,conservative,no,z,1,0.960017729001,1,232
2019_Nov_01,215,001,1,recog,32,LABOUR,HF,lure,-,-,-,liberal,no,m,1,0.746770029629,1,233
2019_Nov_01,215,001,1,recog,33,REFECTORY,LF,target,right,yellow,pleasantness,conservative,no,z,1,1.01332424643,1,234
2019_Nov_01,215,001,1,recog,34,NATIONAL,HF,lure,-,-,-,conservative,no,m,1,1.6930778441,3,237
2019_Nov_01,215,001,1,recog,35,OFFER,HF,target,left,aqua,imageability,liberal,no,z,1,1.49310599934,3,240
2019_Nov_01,215,001,1,recog,36,MERELY,HF,lure,-,-,-,liberal,no,m,1,0.640133165477,1,241
2019_Nov_01,215,001,1,recog,37,EVIDENCE,HF,lure,-,-,-,liberal,no,m,1,0.707181125432,1,242
2019_Nov_01,215,001,1,recog,38,HUMAN,HF,target,left,aqua,imageability,liberal,no,z,1,0.693442615739,3,245
2019_Nov_01,215,001,1,recog,39,MEMBERS,HF,lure,-,-,-,liberal,no,m,1,0.78651107476,1,246
2019_Nov_01,215,001,1,recog,40,PAWNS,LF,lure,-,-,-,conservative,no,m,1,0.960016629187,3,249
2019_Nov_01,215,001,1,recog,41,HEDGED,LF,target,left,aqua,imageability,liberal,no,z,1,0.773487444157,3,252
2019_Nov_01,215,001,1,recog,42,ALLOWED,HF,lure,-,-,-,liberal,no,m,1,0.653438348461,1,253
2019_Nov_01,215,001,1,recog,43,CEMENTED,LF,lure,-,-,-,conservative,no,z,0,1.03962776429,-3,250
2019_Nov_01,215,001,1,recog,44,DURING,HF,target,left,aqua,imageability,conservative,no,z,1,3.67892397133,1,251
2019_Nov_01,215,001,1,recog,45,RETURN,HF,lure,-,-,-,conservative,no,m,1,1.27988616192,3,254
2019_Nov_01,215,001,1,recog,46,TRIED,HF,lure,-,-,-,liberal,no,m,1,2.02602819776,1,255
2019_Nov_01,215,001,1,recog,47,FISHY,LF,target,left,aqua,imageability,conservative,no,z,1,0.933404796802,1,256
2019_Nov_01,215,001,1,recog,48,DRYER,LF,target,left,aqua,imageability,conservative,no,z,1,0.693493207182,1,257
2019_Nov_01,215,001,1,recog,49,NIBBLE,LF,lure,-,-,-,conservative,no,m,1,1.63972696751,3,260
2019_Nov_01,215,001,1,recog,50,THANK,HF,target,right,yellow,pleasantness,conservative,no,z,1,0.893343339196,1,261
2019_Nov_01,215,001,1,recog,51,REOPEN,LF,lure,-,-,-,conservative,no,m,1,0.786842485374,3,264
2019_Nov_01,215,001,1,recog,52,EXPECT,HF,lure,-,-,-,liberal,no,m,1,0.679947164936,1,265
2019_Nov_01,215,001,1,recog,53,CONCERNED,HF,target,right,yellow,pleasantness,conservative,no,z,1,0.666755996003,1,266
2019_Nov_01,215,001,1,recog,54,BAWLED,LF,lure,-,-,-,conservative,no,m,1,0.666762228282,3,269
2019_Nov_01,215,001,1,recog,55,REQUIRED,HF,lure,-,-,-,conservative,no,m,1,1.14655644575,3,272
2019_Nov_01,215,001,1,recog,56,LUMBER,LF,target,right,yellow,pleasantness,liberal,no,z,1,0.666562428741,3,275
2019_Nov_01,215,001,1,recog,57,SLEEP,HF,lure,-,-,-,conservative,no,m,1,1.35983493992,3,278
2019_Nov_01,215,001,1,recog,58,SEPULCHRE,LF,target,right,yellow,pleasantness,conservative,no,z,1,0.973335009939,1,279
2019_Nov_01,215,001,1,recog,59,TOXICITY,LF,lure,-,-,-,liberal,no,m,1,0.933536041271,1,280
2019_Nov_01,215,001,1,recog,60,VEGAN,LF,lure,-,-,-,liberal,no,m,1,0.840004193957,1,281
2019_Nov_01,215,001,1,recog,61,AEONS,LF,lure,-,-,-,liberal,no,m,1,0.413557920237,1,282
2019_Nov_01,215,001,1,recog,62,BUILDING,HF,lure,-,-,-,liberal,no,m,1,1.03996320756,1,283
2019_Nov_01,215,001,1,recog,63,PIGLETS,LF,lure,-,-,-,liberal,no,m,1,0.613232448618,1,284
2019_Nov_01,215,001,1,recog,64,INSIDE,HF,lure,-,-,-,liberal,no,m,1,0.706780426537,1,285
2019_Nov_01,215,001,1,recog,65,POINT,HF,lure,-,-,-,conservative,no,m,1,1.22657561184,3,288
2019_Nov_01,215,001,1,recog,66,OVENS,LF,target,right,yellow,pleasantness,liberal,no,z,1,0.706773827653,3,291
2019_Nov_01,215,001,1,recog,67,PLUGGING,LF,target,right,yellow,pleasantness,liberal,no,z,1,0.813387962316,3,294
2019_Nov_01,215,001,1,recog,68,PREPARED,HF,target,left,aqua,imageability,liberal,no,m,0,0.786757433093,-3,291
2019_Nov_01,215,001,1,recog,69,CANNOT,HF,lure,-,-,-,conservative,no,m,1,1.62632463429,3,294
2019_Nov_01,215,001,1,recog,70,LOUDEST,LF,target,left,aqua,imageability,liberal,no,z,1,1.91630562218,3,297
2019_Nov_01,215,001,1,recog,71,APOSTLE,LF,target,left,aqua,imageability,conservative,no,z,1,0.919986699583,1,298
2019_Nov_01,215,001,1,recog,72,FUTURE,HF,target,right,yellow,pleasantness,liberal,no,z,1,0.613466708997,3,301
2019_Nov_01,215,001,1,recog,73,LASER,LF,lure,-,-,-,liberal,no,m,1,0.733185127289,1,302
2019_Nov_01,215,001,1,recog,74,AMBIENCE,LF,target,right,yellow,pleasantness,conservative,no,z,1,0.946745173833,1,303
2019_Nov_01,215,001,1,recog,75,BOGEY,LF,target,right,yellow,pleasantness,conservative,no,z,1,0.826748869208,1,304
2019_Nov_01,215,001,1,recog,76,PLEASE,HF,lure,-,-,-,liberal,no,m,1,2.21287192959,1,305
2019_Nov_01,215,001,1,recog,77,FINAL,HF,lure,-,-,-,conservative,no,m,1,0.893391364407,3,308
2019_Nov_01,215,001,1,recog,78,WOODCOCK,LF,target,left,aqua,imageability,liberal,no,z,1,0.640134265291,3,311
2019_Nov_01,215,001,1,recog,79,ALIAS,LF,target,left,aqua,imageability,conservative,no,z,1,0.720061413613,1,312
2019_Nov_01,215,001,1,recog,80,ESTRANGED,LF,target,right,yellow,pleasantness,conservative,no,z,1,1.0933261821,1,313
2019_Nov_01,215,001,1,recog,81,NEPHEWS,LF,target,right,yellow,pleasantness,liberal,no,z,1,0.999995967349,3,316
2019_Nov_01,215,001,1,recog,82,SECOND,HF,lure,-,-,-,conservative,no,m,1,0.73341095576,3,319
2019_Nov_01,215,001,1,recog,83,USING,HF,target,right,yellow,pleasantness,liberal,no,z,1,1.27992025615,3,322
2019_Nov_01,215,001,1,recog,84,FOAMING,LF,lure,-,-,-,conservative,no,z,0,1.23986576404,-3,319
2019_Nov_01,215,001,1,recog,85,CRYPT,LF,lure,-,-,-,liberal,no,m,1,2.37257005265,1,320
2019_Nov_01,215,001,1,recog,86,DIETING,LF,lure,-,-,-,liberal,no,m,1,0.73342268711,1,321
2019_Nov_01,215,001,1,recog,87,NECESSARY,HF,target,right,yellow,pleasantness,conservative,no,z,1,1.31983067264,1,322
2019_Nov_01,215,001,1,recog,88,DOCTOR,HF,lure,-,-,-,conservative,no,z,0,1.15991845246,-3,319
2019_Nov_01,215,001,1,recog,89,EMIGRATED,LF,lure,-,-,-,conservative,no,z,0,2.70598086177,-3,316
2019_Nov_01,215,001,1,recog,90,ALONE,HF,lure,-,-,-,liberal,no,z,0,2.82570367932,-1,315
2019_Nov_01,215,001,1,recog,91,FUSELAGE,LF,lure,-,-,-,conservative,no,m,1,3.30539744711,3,318
2019_Nov_01,215,001,1,recog,92,LAVISHED,LF,target,left,aqua,imageability,liberal,no,z,1,0.813392361572,3,321
2019_Nov_01,215,001,1,recog,93,MEANS,HF,target,left,aqua,imageability,liberal,yes,z,1,1.71968747686,3,324
2019_Nov_01,215,001,1,recog,94,POETICAL,LF,lure,-,-,-,conservative,no,m,1,0.97319276733,3,327
2019_Nov_01,215,001,1,recog,95,IDYLL,LF,target,left,aqua,imageability,conservative,no,z,1,0.906689215298,1,328
2019_Nov_01,215,001,2,source,0,THEORY,HF,target,left,aqua,imageability,liberal,no,7,0,5.03843886537,-,-
2019_Nov_01,215,001,2,source,1,WINDOW,HF,target,right,yellow,pleasantness,conservative,no,9,1,2.71930437499,-,-
2019_Nov_01,215,001,2,source,2,GUESSWORK,LF,target,left,aqua,imageability,conservative,no,1,1,2.77263288869,-,-
2019_Nov_01,215,001,2,source,3,SOVIET,HF,target,right,yellow,pleasantness,liberal,no,9,1,2.30587989885,-,-
2019_Nov_01,215,001,2,source,4,JELLIES,LF,target,left,aqua,imageability,conservative,yes,7,0,1.3732662349,-,-
2019_Nov_01,215,001,2,source,5,ERUDITE,LF,target,right,yellow,pleasantness,conservative,no,9,1,1.59973846423,-,-
2019_Nov_01,215,001,2,source,6,TIRADE,LF,target,left,aqua,imageability,liberal,no,7,0,3.02583573032,-,-
2019_Nov_01,215,001,2,source,7,MIDDLE,HF,target,right,yellow,pleasantness,conservative,no,9,1,1.29318364621,-,-
2019_Nov_01,215,001,2,source,8,AMALGAM,LF,target,right,yellow,pleasantness,liberal,no,2,0,3.57231680215,-,-
2019_Nov_01,215,001,2,source,9,AREAS,HF,target,left,aqua,imageability,liberal,yes,3,1,2.30586230182,-,-
2019_Nov_01,215,001,2,source,10,KRONOR,LF,target,right,yellow,pleasantness,conservative,no,7,1,1.82632617403,-,-
2019_Nov_01,215,001,2,source,11,TWAIN,LF,target,left,aqua,imageability,conservative,no,1,1,2.19947326242,-,-
2019_Nov_01,215,001,2,source,12,BUBBLED,LF,target,left,aqua,imageability,liberal,yes,3,1,1.47980558222,-,-
2019_Nov_01,215,001,2,source,13,MOGUL,LF,target,right,yellow,pleasantness,liberal,no,9,1,1.11959193968,-,-
2019_Nov_01,215,001,2,source,14,LOANED,LF,target,right,yellow,pleasantness,conservative,no,9,1,1.05335050998,-,-
2019_Nov_01,215,001,2,source,15,FUELLED,LF,target,right,yellow,pleasantness,conservative,no,9,1,1.74610464217,-,-
2019_Nov_01,215,001,2,source,16,SLOWLY,HF,target,left,aqua,imageability,liberal,no,7,0,1.9459958339,-,-
2019_Nov_01,215,001,2,source,17,TOFFEE,LF,target,left,aqua,imageability,liberal,no,1,1,1.26661030731,-,-
2019_Nov_01,215,001,2,source,18,TRYING,HF,target,left,aqua,imageability,conservative,no,1,1,1.19970642299,-,-
2019_Nov_01,215,001,2,source,19,ABUSING,LF,target,right,yellow,pleasantness,liberal,no,9,1,0.733416454831,-,-
2019_Nov_01,215,001,2,source,20,EARLIER,HF,target,right,yellow,pleasantness,liberal,no,9,1,1.37319658002,-,-
2019_Nov_01,215,001,2,source,21,CLASS,HF,target,left,aqua,imageability,liberal,no,1,1,1.33315491906,-,-
2019_Nov_01,215,001,2,source,22,FATHER,HF,target,right,yellow,pleasantness,liberal,no,9,1,0.839998328283,-,-
2019_Nov_01,215,001,2,source,23,FAMILY,HF,target,left,aqua,imageability,conservative,no,1,1,0.866469384478,-,-
2019_Nov_01,215,001,2,source,24,KIDNAP,LF,target,left,aqua,imageability,conservative,no,1,1,0.786719306208,-,-
2019_Nov_01,215,001,2,source,25,ANYONE,HF,target,right,yellow,pleasantness,liberal,no,9,1,0.826799460651,-,-
2019_Nov_01,215,001,2,source,26,ARCADES,LF,target,left,aqua,imageability,liberal,no,1,1,1.09329868675,-,-
2019_Nov_01,215,001,2,source,27,LULLED,LF,target,right,yellow,pleasantness,liberal,no,9,1,2.85255380473,-,-
2019_Nov_01,215,001,2,source,28,WOBBLE,LF,target,left,aqua,imageability,liberal,yes,7,0,1.27986966471,-,-
2019_Nov_01,215,001,2,source,29,CHAIR,HF,target,left,aqua,imageability,conservative,no,1,1,1.34655175321,-,-
2019_Nov_01,215,001,2,source,30,TOPICAL,LF,target,right,yellow,pleasantness,conservative,no,9,1,1.02640433415,-,-
2019_Nov_01,215,001,2,source,31,DECIDED,HF,target,left,aqua,imageability,conservative,no,1,1,1.73284051891,-,-
2019_Nov_01,215,001,2,source,32,OTHERS,HF,target,left,aqua,imageability,conservative,no,1,1,2.18595324911,-,-
2019_Nov_01,215,001,2,source,33,FRONT,HF,target,right,yellow,pleasantness,conservative,no,7,1,2.7725786312,-,-
2019_Nov_01,215,001,2,source,34,AFIELD,LF,target,right,yellow,pleasantness,liberal,no,3,0,3.73221399154,-,-
2019_Nov_01,215,001,2,source,35,KNOWLEDGE,HF,target,right,yellow,pleasantness,conservative,no,9,1,1.14660337115,-,-
2019_Nov_01,215,001,2,source,36,ICILY,LF,target,left,aqua,imageability,liberal,no,1,1,1.0533046844,-,-
2019_Nov_01,215,001,2,source,37,HOURS,HF,target,left,aqua,imageability,conservative,no,1,1,3.18573878538,-,-
2019_Nov_01,215,001,2,source,38,DEDICATE,LF,target,right,yellow,pleasantness,conservative,no,3,0,4.07883759927,-,-
2019_Nov_01,215,001,2,source,39,MARKET,HF,target,right,yellow,pleasantness,liberal,no,9,1,2.13281683625,-,-
2019_Nov_01,215,001,2,source,40,RELAXES,LF,target,right,yellow,pleasantness,liberal,no,9,1,0.719865280119,-,-
2019_Nov_01,215,001,2,source,41,CINDER,LF,target,left,aqua,imageability,conservative,no,1,1,0.839841054883,-,-
2019_Nov_01,215,001,2,source,42,OUTSIDE,HF,target,left,aqua,imageability,liberal,no,1,1,0.840067616564,-,-
2019_Nov_01,215,001,2,source,43,TIMES,HF,target,left,aqua,imageability,liberal,no,1,1,0.626831281936,-,-
2019_Nov_01,215,001,2,source,44,DIFFERENT,HF,target,right,yellow,pleasantness,conservative,no,9,1,1.546399319,-,-
2019_Nov_01,215,001,2,source,45,PAYOFF,LF,target,left,aqua,imageability,conservative,no,7,0,2.90589294997,-,-
2019_Nov_01,215,001,2,source,46,IMPORTANT,HF,target,right,yellow,pleasantness,liberal,no,None,-1,-1,-,-
2019_Nov_01,215,001,2,source,47,SMALL,HF,target,right,yellow,pleasantness,conservative,no,9,1,1.15969738985,-,-
2019_Nov_01,215,001,2,recog,0,FUELLED,LF,target,right,yellow,pleasantness,conservative,no,m,0,1.87973644058,-1,327
2019_Nov_01,215,001,2,recog,1,VOUCH,LF,lure,-,-,-,conservative,no,z,0,1.94625062414,-3,324
2019_Nov_01,215,001,2,recog,2,GLIDED,LF,lure,-,-,-,conservative,no,m,1,1.25319880897,3,327
2019_Nov_01,215,001,2,recog,3,MOGUL,LF,target,right,yellow,pleasantness,liberal,no,z,1,0.933400030941,3,330
2019_Nov_01,215,001,2,recog,4,OUTSIDE,HF,target,left,aqua,imageability,liberal,no,z,1,1.03994744356,3,333
2019_Nov_01,215,001,2,recog,5,FATHER,HF,target,right,yellow,pleasantness,liberal,no,z,1,0.813161034031,3,336
2019_Nov_01,215,001,2,recog,6,COILING,LF,lure,-,-,-,conservative,yes,z,0,1.79944525383,-3,333
2019_Nov_01,215,001,2,recog,7,SINCE,HF,lure,-,-,-,liberal,no,z,0,1.89296133714,-1,332
2019_Nov_01,215,001,2,recog,8,ERUDITE,LF,target,right,yellow,pleasantness,conservative,no,z,1,2.05289042113,1,333
2019_Nov_01,215,001,2,recog,9,DEDICATE,LF,target,right,yellow,pleasantness,conservative,no,z,1,0.733447249622,1,334
2019_Nov_01,215,001,2,recog,10,RECENT,HF,lure,-,-,-,liberal,no,m,1,0.746502774831,1,335
2019_Nov_01,215,001,2,recog,11,FRONT,HF,target,right,yellow,pleasantness,conservative,no,z,1,0.786773930303,1,336
2019_Nov_01,215,001,2,recog,12,TOFFEE,LF,target,left,aqua,imageability,liberal,yes,z,1,1.21321800439,3,339
2019_Nov_01,215,001,2,recog,13,CITES,LF,lure,-,-,-,liberal,no,m,1,2.21283380271,1,340
2019_Nov_01,215,001,2,recog,14,BELIEVE,HF,lure,-,-,-,conservative,no,m,1,1.29300767597,3,343
2019_Nov_01,215,001,2,recog,15,PULSAR,LF,lure,-,-,-,liberal,no,m,1,2.15958594203,1,344
2019_Nov_01,215,001,2,recog,16,WINDOW,HF,target,right,yellow,pleasantness,conservative,no,z,1,2.03947855619,1,345
2019_Nov_01,215,001,2,recog,17,AMULETS,LF,lure,-,-,-,liberal,no,m,1,0.920018960793,1,346
2019_Nov_01,215,001,2,recog,18,CHAIR,HF,target,left,aqua,imageability,conservative,no,z,1,0.920033991584,1,347
2019_Nov_01,215,001,2,recog,19,TOTAL,HF,lure,-,-,-,liberal,no,m,1,2.42613246013,1,348
2019_Nov_01,215,001,2,recog,20,SHALL,HF,lure,-,-,-,conservative,no,m,1,0.733455314924,3,351
2019_Nov_01,215,001,2,recog,21,HOURS,HF,target,left,aqua,imageability,conservative,no,z,1,0.69352216895,1,352
2019_Nov_01,215,001,2,recog,22,AFIELD,LF,target,right,yellow,pleasantness,liberal,no,z,1,0.853498911551,3,355
2019_Nov_01,215,001,2,recog,23,AGILITY,LF,lure,-,-,-,liberal,no,m,1,0.826694611718,1,356
2019_Nov_01,215,001,2,recog,24,GETTING,HF,lure,-,-,-,conservative,no,m,1,1.19991245481,3,359
2019_Nov_01,215,001,2,recog,25,ACCORDING,HF,lure,-,-,-,conservative,no,m,1,1.26658024573,3,362
2019_Nov_01,215,001,2,recog,26,ABUSING,LF,target,right,yellow,pleasantness,liberal,no,z,1,0.693389458063,3,365
2019_Nov_01,215,001,2,recog,27,KRONOR,LF,target,right,yellow,pleasantness,conservative,no,z,1,1.66640258911,1,366
2019_Nov_01,215,001,2,recog,28,JABBED,LF,lure,-,-,-,liberal,no,m,1,0.853386730524,1,367
2019_Nov_01,215,001,2,recog,29,SCRABBLE,LF,lure,-,-,-,conservative,no,m,1,0.986769237763,3,370
2019_Nov_01,215,001,2,recog,30,IMPORTANT,HF,target,right,yellow,pleasantness,liberal,no,m,0,2.06620366942,-3,367
2019_Nov_01,215,001,2,recog,31,GUESSWORK,LF,target,left,aqua,imageability,conservative,no,z,1,1.35987013396,1,368
2019_Nov_01,215,001,2,recog,32,ARCADES,LF,target,left,aqua,imageability,liberal,no,z,1,0.62680012054,3,371
2019_Nov_01,215,001,2,recog,33,AMALGAM,LF,target,right,yellow,pleasantness,liberal,yes,z,1,1.05321120021,3,374
2019_Nov_01,215,001,2,recog,34,JAUNDICE,LF,lure,-,-,-,conservative,no,m,1,2.86601992716,3,377
2019_Nov_01,215,001,2,recog,35,SPOKE,HF,lure,-,-,-,liberal,no,m,1,1.61307040936,1,378
2019_Nov_01,215,001,2,recog,36,PHANTOMS,LF,lure,-,-,-,liberal,no,m,1,0.706861812772,1,379
2019_Nov_01,215,001,2,recog,37,WEBBED,LF,lure,-,-,-,conservative,no,m,1,0.573492136697,3,382
2019_Nov_01,215,001,2,recog,38,TIRADE,LF,target,left,aqua,imageability,liberal,no,z,1,0.813371098502,3,385
2019_Nov_01,215,001,2,recog,39,BUBBLED,LF,target,left,aqua,imageability,liberal,no,z,1,0.680270876852,3,388
2019_Nov_01,215,001,2,recog,40,MAYBE,HF,lure,-,-,-,conservative,no,z,0,3.1058149365,-3,385
2019_Nov_01,215,001,2,recog,41,JELLIES,LF,target,left,aqua,imageability,conservative,no,z,1,4.39861804707,1,386
2019_Nov_01,215,001,2,recog,42,EARLIER,HF,target,right,yellow,pleasantness,liberal,no,m,0,1.59957532516,-3,383
2019_Nov_01,215,001,2,recog,43,TIMES,HF,target,left,aqua,imageability,liberal,no,z,1,0.773418889085,3,386
2019_Nov_01,215,001,2,recog,44,MOVED,HF,lure,-,-,-,conservative,no,m,1,2.87941162885,3,389
2019_Nov_01,215,001,2,recog,45,GLEANED,LF,lure,-,-,-,conservative,no,m,1,0.62666411021,3,392
2019_Nov_01,215,001,2,recog,46,VILLAGE,HF,lure,-,-,-,conservative,no,m,1,0.57351523279,3,395
2019_Nov_01,215,001,2,recog,47,BOVINE,LF,lure,-,-,-,liberal,no,m,1,0.840036088563,1,396
2019_Nov_01,215,001,2,recog,48,LOANED,LF,target,right,yellow,pleasantness,conservative,no,z,1,1.02659643499,1,397
2019_Nov_01,215,001,2,recog,49,ANVIL,LF,lure,-,-,-,conservative,no,m,1,1.03994047807,3,400
2019_Nov_01,215,001,2,recog,50,TODAY,HF,lure,-,-,-,liberal,no,m,1,2.89257823527,1,401
2019_Nov_01,215,001,2,recog,51,AREAS,HF,target,left,aqua,imageability,liberal,no,z,1,0.706817087003,3,404
2019_Nov_01,215,001,2,recog,52,NEARLY,HF,lure,-,-,-,conservative,no,m,1,3.19908906074,3,407
2019_Nov_01,215,001,2,recog,53,COVER,HF,lure,-,-,-,liberal,no,m,1,1.46660891421,1,408
2019_Nov_01,215,001,2,recog,54,MORNING,HF,lure,-,-,-,conservative,no,m,1,0.613500436626,3,411
2019_Nov_01,215,001,2,recog,55,BANALITY,LF,lure,-,-,-,liberal,no,m,1,0.60018792155,1,412
2019_Nov_01,215,001,2,recog,56,DECIDED,HF,target,left,aqua,imageability,conservative,no,m,0,1.19965876438,-1,411
2019_Nov_01,215,001,2,recog,57,SMALL,HF,target,right,yellow,pleasantness,conservative,no,z,1,0.8666834816,1,412
2019_Nov_01,215,001,2,recog,58,MARKET,HF,target,right,yellow,pleasantness,liberal,no,z,1,0.586830680704,3,415
2019_Nov_01,215,001,2,recog,59,EVENING,HF,lure,-,-,-,liberal,no,m,1,0.946658288528,1,416
2019_Nov_01,215,001,2,recog,60,CENTRAL,HF,lure,-,-,-,liberal,no,m,1,0.666754896189,1,417
2019_Nov_01,215,001,2,recog,61,CINDER,LF,target,left,aqua,imageability,conservative,no,z,1,1.06666302506,1,418
2019_Nov_01,215,001,2,recog,62,INDEED,HF,lure,-,-,-,liberal,no,m,1,0.813267349382,1,419
2019_Nov_01,215,001,2,recog,63,AVUNCULAR,LF,lure,-,-,-,liberal,no,m,1,0.693731133607,1,420
2019_Nov_01,215,001,2,recog,64,ABLAZE,LF,lure,-,-,-,liberal,no,m,1,0.53350839928,1,421
2019_Nov_01,215,001,2,recog,65,ANYONE,HF,target,right,yellow,pleasantness,liberal,no,z,1,0.840063950517,3,424
2019_Nov_01,215,001,2,recog,66,TOOTHACHE,LF,lure,-,-,-,liberal,no,m,1,0.85337463257,1,425
2019_Nov_01,215,001,2,recog,67,HOSPITAL,HF,lure,-,-,-,liberal,no,m,1,1.22654518366,1,426
2019_Nov_01,215,001,2,recog,68,TOPICAL,LF,target,right,yellow,pleasantness,conservative,no,z,1,1.21334961547,1,427
2019_Nov_01,215,001,2,recog,69,ICILY,LF,target,left,aqua,imageability,liberal,no,z,1,0.773373430107,3,430
2019_Nov_01,215,001,2,recog,70,TRYING,HF,target,left,aqua,imageability,conservative,no,z,1,0.973219162865,1,431
2019_Nov_01,215,001,2,recog,71,SLOWLY,HF,target,left,aqua,imageability,liberal,no,z,1,1.31990362697,3,434
2019_Nov_01,215,001,2,recog,72,LULLED,LF,target,right,yellow,pleasantness,liberal,no,z,1,0.586579556511,3,437
2019_Nov_01,215,001,2,recog,73,PUNCTUAL,LF,lure,-,-,-,conservative,no,m,1,1.41312899278,3,440
2019_Nov_01,215,001,2,recog,74,HYPNOSIS,LF,lure,-,-,-,conservative,no,m,1,2.37274638949,3,443
2019_Nov_01,215,001,2,recog,75,SCOFFED,LF,lure,-,-,-,conservative,no,m,1,0.63994546389,3,446
2019_Nov_01,215,001,2,recog,76,DIFFERENT,HF,target,right,yellow,pleasantness,conservative,no,z,1,0.759765431673,1,447
2019_Nov_01,215,001,2,recog,77,KNOWLEDGE,HF,target,right,yellow,pleasantness,conservative,no,z,1,0.919774435484,1,448
2019_Nov_01,215,001,2,recog,78,PERHAPS,HF,lure,-,-,-,conservative,no,m,1,1.22630542421,3,451
2019_Nov_01,215,001,2,recog,79,HIGHER,HF,lure,-,-,-,conservative,no,m,1,2.09299330507,3,454
2019_Nov_01,215,001,2,recog,80,SOVIET,HF,target,right,yellow,pleasantness,liberal,no,z,1,0.706549098996,3,457
2019_Nov_01,215,001,2,recog,81,OTHERS,HF,target,left,aqua,imageability,conservative,no,z,1,0.72010833901,1,458
2019_Nov_01,215,001,2,recog,82,TWAIN,LF,target,left,aqua,imageability,conservative,no,z,1,0.733386026643,1,459
2019_Nov_01,215,001,2,recog,83,PAYOFF,LF,target,left,aqua,imageability,conservative,no,z,1,1.34650886047,1,460
2019_Nov_01,215,001,2,recog,84,REACHED,HF,lure,-,-,-,liberal,no,m,1,1.02633834531,1,461
2019_Nov_01,215,001,2,recog,85,RELAXES,LF,target,right,yellow,pleasantness,liberal,no,z,1,1.73300402459,3,464
2019_Nov_01,215,001,2,recog,86,FAMILY,HF,target,left,aqua,imageability,conservative,no,z,1,1.22655838143,1,465
2019_Nov_01,215,001,2,recog,87,MIDDLE,HF,target,right,yellow,pleasantness,conservative,no,z,1,1.9196259606,1,466
2019_Nov_01,215,001,2,recog,88,WOBBLE,LF,target,left,aqua,imageability,liberal,no,z,1,1.31986403366,3,469
2019_Nov_01,215,001,2,recog,89,PEWTER,LF,lure,-,-,-,conservative,no,m,1,1.43983357615,3,472
2019_Nov_01,215,001,2,recog,90,CERTAIN,HF,lure,-,-,-,conservative,no,m,1,1.89304528961,3,475
2019_Nov_01,215,001,2,recog,91,KIDNAP,LF,target,left,aqua,imageability,conservative,yes,m,0,0.999977637116,-1,474
2019_Nov_01,215,001,2,recog,92,CLASS,HF,target,left,aqua,imageability,liberal,no,z,1,1.07994327893,3,477
2019_Nov_01,215,001,2,recog,93,THEORY,HF,target,left,aqua,imageability,liberal,no,z,1,1.61307077596,3,480
2019_Nov_01,215,001,2,recog,94,GADGET,LF,lure,-,-,-,liberal,no,z,0,0.493296633763,-1,479
2019_Nov_01,215,001,2,recog,95,DEVELOPED,HF,lure,-,-,-,liberal,no,z,0,0.546821280961,-1,478
2019_Nov_01,215,001,3,source,0,SANDAL,LF,target,right,yellow,pleasantness,conservative,no,9,1,2.30609399597,-,-
2019_Nov_01,215,001,3,source,1,ANTELOPES,LF,target,right,yellow,pleasantness,liberal,yes,7,1,1.01332937889,-,-
2019_Nov_01,215,001,3,source,2,GROUND,HF,target,right,yellow,pleasantness,conservative,no,9,1,2.03957167378,-,-
2019_Nov_01,215,001,3,source,3,BREAK,HF,target,left,aqua,imageability,liberal,no,1,1,1.91940123194,-,-
2019_Nov_01,215,001,3,source,4,ACROSS,HF,target,left,aqua,imageability,liberal,no,3,1,1.23960694115,-,-
2019_Nov_01,215,001,3,source,5,UNVEILED,LF,target,left,aqua,imageability,liberal,no,1,1,1.27998477857,-,-
2019_Nov_01,215,001,3,source,6,COMES,HF,target,left,aqua,imageability,conservative,no,1,1,1.90600366458,-,-
2019_Nov_01,215,001,3,source,7,WRANGLING,LF,target,right,yellow,pleasantness,conservative,no,9,1,1.03996540718,-,-
2019_Nov_01,215,001,3,source,8,SHORT,HF,target,right,yellow,pleasantness,conservative,yes,3,0,0.906662453157,-,-
2019_Nov_01,215,001,3,source,9,FUNNILY,LF,target,right,yellow,pleasantness,liberal,no,9,1,5.46491226784,-,-
2019_Nov_01,215,001,3,source,10,PRIVATE,HF,target,left,aqua,imageability,conservative,yes,7,0,0.893080850259,-,-
2019_Nov_01,215,001,3,source,11,APTLY,LF,target,right,yellow,pleasantness,liberal,no,9,1,0.880052453795,-,-
2019_Nov_01,215,001,3,source,12,FURTHER,HF,target,left,aqua,imageability,liberal,no,3,1,3.42553012867,-,-
2019_Nov_01,215,001,3,source,13,CHOICE,HF,target,right,yellow,pleasantness,conservative,yes,3,0,0.879997463096,-,-
2019_Nov_01,215,001,3,source,14,STYLED,LF,target,left,aqua,imageability,liberal,no,1,1,3.43888883593,-,-
2019_Nov_01,215,001,3,source,15,BECAME,HF,target,right,yellow,pleasantness,conservative,no,9,1,1.0133381774,-,-
2019_Nov_01,215,001,3,source,16,TWENTY,HF,target,right,yellow,pleasantness,liberal,no,9,1,1.37297551741,-,-
2019_Nov_01,215,001,3,source,17,EXCEPT,HF,target,right,yellow,pleasantness,liberal,no,9,1,1.41302561027,-,-
2019_Nov_01,215,001,3,source,18,SOFTENING,LF,target,left,aqua,imageability,conservative,no,1,1,1.74635173371,-,-
2019_Nov_01,215,001,3,source,19,HYDRAULIC,LF,target,left,aqua,imageability,conservative,no,1,1,1.87959199834,-,-
2019_Nov_01,215,001,3,source,20,PLACE,HF,target,right,yellow,pleasantness,liberal,no,9,1,0.826731638789,-,-
2019_Nov_01,215,001,3,source,21,GREATER,HF,target,left,aqua,imageability,conservative,no,1,1,1.43957548647,-,-
2019_Nov_01,215,001,3,source,22,MOTHER,HF,target,left,aqua,imageability,conservative,no,1,1,0.880028257887,-,-
2019_Nov_01,215,001,3,source,23,EIGHT,HF,target,left,aqua,imageability,liberal,no,1,1,1.94638260182,-,-
2019_Nov_01,215,001,3,source,24,SEQUEL,LF,target,left,aqua,imageability,conservative,no,1,1,0.933408096244,-,-
2019_Nov_01,215,001,3,source,25,HIMSELF,HF,target,right,yellow,pleasantness,conservative,no,9,1,1.02640360094,-,-
2019_Nov_01,215,001,3,source,26,SUDDENLY,HF,target,left,aqua,imageability,conservative,no,3,1,1.67971693721,-,-
2019_Nov_01,215,001,3,source,27,SUFFERER,LF,target,right,yellow,pleasantness,liberal,no,9,1,1.03997053965,-,-
2019_Nov_01,215,001,3,source,28,OATHS,LF,target,right,yellow,pleasantness,liberal,no,9,1,0.586581756139,-,-
2019_Nov_01,215,001,3,source,29,YARDSTICK,LF,target,right,yellow,pleasantness,conservative,no,9,1,0.600042012894,-,-
2019_Nov_01,215,001,3,source,30,DUMMIES,LF,target,left,aqua,imageability,conservative,no,9,0,5.55818419245,-,-
2019_Nov_01,215,001,3,source,31,PHYSICAL,HF,target,left,aqua,imageability,liberal,no,1,1,2.91922892775,-,-
2019_Nov_01,215,001,3,source,32,DETACH,LF,target,left,aqua,imageability,liberal,no,1,1,1.23992845343,-,-
2019_Nov_01,215,001,3,source,33,CAUGHT,HF,target,right,yellow,pleasantness,liberal,no,1,0,1.3198984945,-,-
2019_Nov_01,215,001,3,source,34,TAVERNS,LF,target,left,aqua,imageability,liberal,no,1,1,0.840022157586,-,-
2019_Nov_01,215,001,3,source,35,INJECT,LF,target,left,aqua,imageability,liberal,no,1,1,1.0666344299,-,-
2019_Nov_01,215,001,3,source,36,LAXATIVE,LF,target,right,yellow,pleasantness,conservative,no,1,0,0.906654754459,-,-
2019_Nov_01,215,001,3,source,37,MONEY,HF,target,right,yellow,pleasantness,liberal,no,9,1,1.35982944085,-,-
2019_Nov_01,215,001,3,source,38,HONKING,LF,target,left,aqua,imageability,conservative,no,2,1,1.59974249689,-,-
2019_Nov_01,215,001,3,source,39,DEEPEN,LF,target,right,yellow,pleasantness,conservative,no,9,1,0.759973663121,-,-
2019_Nov_01,215,001,3,source,40,FLAGGED,LF,target,right,yellow,pleasantness,liberal,no,9,1,3.9057771029,-,-
2019_Nov_01,215,001,3,source,41,BETTER,HF,target,left,aqua,imageability,liberal,no,7,0,5.75807795042,-,-
2019_Nov_01,215,001,3,source,42,PARENTS,HF,target,left,aqua,imageability,conservative,no,1,1,0.986633960643,-,-
2019_Nov_01,215,001,3,source,43,SEVEN,HF,target,right,yellow,pleasantness,conservative,no,3,0,1.78609937772,-,-
2019_Nov_01,215,001,3,source,44,SONAR,LF,target,left,aqua,imageability,liberal,no,3,1,1.19986296318,-,-
2019_Nov_01,215,001,3,source,45,UNTIL,HF,target,right,yellow,pleasantness,liberal,no,7,1,3.42547183853,-,-
2019_Nov_01,215,001,3,source,46,MURPHY,LF,target,left,aqua,imageability,conservative,no,1,1,0.760102707962,-,-
2019_Nov_01,215,001,3,source,47,GUILDHALL,LF,target,right,yellow,pleasantness,conservative,no,7,1,3.50567504016,-,-
2019_Nov_01,215,001,3,recog,0,MONEY,HF,target,right,yellow,pleasantness,liberal,no,z,1,1.19991282141,3,481
2019_Nov_01,215,001,3,recog,1,FLICKS,LF,lure,-,-,-,conservative,no,m,1,0.786821955513,3,484
2019_Nov_01,215,001,3,recog,2,NINETIES,LF,lure,-,-,-,liberal,yes,z,0,1.10635934442,-1,483
2019_Nov_01,215,001,3,recog,3,YARDSTICK,LF,target,right,yellow,pleasantness,conservative,no,z,1,0.919701847761,1,484
2019_Nov_01,215,001,3,recog,4,QUESTION,HF,lure,-,-,-,conservative,no,z,0,0.75983362014,-3,481
2019_Nov_01,215,001,3,recog,5,RIGGING,LF,lure,-,-,-,conservative,no,z,0,1.27987369736,-3,478
2019_Nov_01,215,001,3,recog,6,APTLY,LF,target,right,yellow,pleasantness,liberal,no,m,0,0.826762800185,-3,475
2019_Nov_01,215,001,3,recog,7,HYDRAULIC,LF,target,left,aqua,imageability,conservative,no,z,1,1.1599136866,1,476
2019_Nov_01,215,001,3,recog,8,DEFEATING,LF,lure,-,-,-,conservative,no,m,1,1.70633976773,3,479
2019_Nov_01,215,001,3,recog,9,LOBBIES,LF,lure,-,-,-,liberal,no,m,1,0.893119343748,1,480
2019_Nov_01,215,001,3,recog,10,BEAUTIFUL,HF,lure,-,-,-,conservative,no,m,1,1.04005852477,3,483
2019_Nov_01,215,001,3,recog,11,PHYSICAL,HF,target,left,aqua,imageability,liberal,no,z,1,0.6401192345,3,486
2019_Nov_01,215,001,3,recog,12,MOMENT,HF,lure,-,-,-,liberal,no,m,1,0.680128267639,1,487
2019_Nov_01,215,001,3,recog,13,WRANGLING,LF,target,right,yellow,pleasantness,conservative,no,z,1,0.666561695532,1,488
2019_Nov_01,215,001,3,recog,14,BEGAN,HF,lure,-,-,-,conservative,no,m,1,1.213186843,3,491
2019_Nov_01,215,001,3,recog,15,ERODE,LF,lure,-,-,-,conservative,no,m,1,0.680131933686,3,494
2019_Nov_01,215,001,3,recog,16,LEOPARDS,LF,lure,-,-,-,liberal,yes,z,0,1.4531600222,-1,493
2019_Nov_01,215,001,3,recog,17,UNVEILED,LF,target,left,aqua,imageability,liberal,yes,z,1,0.613582189466,3,496
2019_Nov_01,215,001,3,recog,18,AUDACIOUS,LF,lure,-,-,-,liberal,no,m,1,1.37313938969,1,497
2019_Nov_01,215,001,3,recog,19,MURPHY,LF,target,left,aqua,imageability,conservative,no,z,1,0.773357299502,1,498
2019_Nov_01,215,001,3,recog,20,DETACH,LF,target,left,aqua,imageability,liberal,no,z,1,1.23989985827,3,501
2019_Nov_01,215,001,3,recog,21,WRITE,HF,lure,-,-,-,liberal,no,m,1,1.29316311635,1,502
2019_Nov_01,215,001,3,recog,22,VARIOUS,HF,lure,-,-,-,liberal,no,m,1,0.573202519014,1,503
2019_Nov_01,215,001,3,recog,23,SONAR,LF,target,left,aqua,imageability,liberal,no,z,1,0.853389296757,3,506
2019_Nov_01,215,001,3,recog,24,CHOICE,HF,target,right,yellow,pleasantness,conservative,no,m,0,2.27947923075,-1,505
2019_Nov_01,215,001,3,recog,25,SOUND,HF,lure,-,-,-,liberal,no,m,1,1.93270348208,1,506
2019_Nov_01,215,001,3,recog,26,EIGHT,HF,target,left,aqua,imageability,liberal,no,z,1,0.786735803418,3,509
2019_Nov_01,215,001,3,recog,27,NICETIES,LF,lure,-,-,-,liberal,no,m,1,1.09320960182,1,510
2019_Nov_01,215,001,3,recog,28,CHURCH,HF,lure,-,-,-,conservative,no,m,1,1.85289877972,3,513
2019_Nov_01,215,001,3,recog,29,SEQUEL,LF,target,left,aqua,imageability,conservative,no,z,1,0.893121543376,1,514
2019_Nov_01,215,001,3,recog,30,PLACE,HF,target,right,yellow,pleasantness,liberal,no,z,1,1.39959358207,3,517
2019_Nov_01,215,001,3,recog,31,SNIGGERED,LF,lure,-,-,-,conservative,no,m,1,2.53271103414,3,520
2019_Nov_01,215,001,3,recog,32,TAVERNS,LF,target,left,aqua,imageability,liberal,no,z,1,0.680108104382,3,523
2019_Nov_01,215,001,3,recog,33,MILES,HF,lure,-,-,-,conservative,no,z,0,1.39985753743,-3,520
2019_Nov_01,215,001,3,recog,34,DEEPEN,LF,target,right,yellow,pleasantness,conservative,no,z,1,1.89299653119,1,521
2019_Nov_01,215,001,3,recog,35,CAUGHT,HF,target,right,yellow,pleasantness,liberal,no,z,1,0.959996099326,3,524
2019_Nov_01,215,001,3,recog,36,SANDAL,LF,target,right,yellow,pleasantness,conservative,no,z,1,2.46607367141,1,525
2019_Nov_01,215,001,3,recog,37,WHITE,HF,lure,-,-,-,liberal,no,m,1,0.813367432455,1,526
2019_Nov_01,215,001,3,recog,38,LAXATIVE,LF,target,right,yellow,pleasantness,conservative,no,z,1,0.560153959294,1,527
2019_Nov_01,215,001,3,recog,39,COMES,HF,target,left,aqua,imageability,conservative,no,z,1,1.42652875977,1,528
2019_Nov_01,215,001,3,recog,40,GASEOUS,LF,lure,-,-,-,liberal,no,m,1,1.26653551996,1,529
2019_Nov_01,215,001,3,recog,41,SERIOUS,HF,lure,-,-,-,liberal,no,m,1,0.813475214225,1,530
2019_Nov_01,215,001,3,recog,42,ACTION,HF,lure,-,-,-,conservative,no,m,1,1.51982194745,3,533
2019_Nov_01,215,001,3,recog,43,DUMMIES,LF,target,left,aqua,imageability,conservative,no,z,1,1.43993035978,1,534
2019_Nov_01,215,001,3,recog,44,LIGHT,HF,lure,-,-,-,liberal,no,m,1,3.39904074224,1,535
2019_Nov_01,215,001,3,recog,45,SYRINGE,LF,lure,-,-,-,conservative,no,m,1,0.746893208795,3,538
2019_Nov_01,215,001,3,recog,46,SEVEN,HF,target,right,yellow,pleasantness,conservative,no,z,1,0.813143437007,1,539
2019_Nov_01,215,001,3,recog,47,SUFFERER,LF,target,right,yellow,pleasantness,liberal,no,z,1,1.00010741517,3,542
2019_Nov_01,215,001,3,recog,48,ANTELOPES,LF,target,right,yellow,pleasantness,liberal,no,m,0,2.07956750915,-3,539
2019_Nov_01,215,001,3,recog,49,STYLED,LF,target,left,aqua,imageability,liberal,no,z,1,1.33327223256,3,542
2019_Nov_01,215,001,3,recog,50,DOWDY,LF,lure,-,-,-,liberal,no,m,1,0.653495905392,1,543
2019_Nov_01,215,001,3,recog,51,EMPATHY,LF,lure,-,-,-,liberal,no,m,1,0.773279579314,1,544
2019_Nov_01,215,001,3,recog,52,GUILDHALL,LF,target,right,yellow,pleasantness,conservative,no,z,1,1.61305464536,1,545
2019_Nov_01,215,001,3,recog,53,SHORT,HF,target,right,yellow,pleasantness,conservative,no,z,1,1.22658404375,1,546
2019_Nov_01,215,001,3,recog,54,PRIVATE,HF,target,left,aqua,imageability,conservative,no,z,1,0.733376128318,1,547
2019_Nov_01,215,001,3,recog,55,FUNNILY,LF,target,right,yellow,pleasantness,liberal,no,z,1,0.613439580252,3,550
2019_Nov_01,215,001,3,recog,56,ECONOMIC,HF,lure,-,-,-,conservative,no,m,1,1.7463433018,3,553
2019_Nov_01,215,001,3,recog,57,TYCOONS,LF,lure,-,-,-,liberal,no,z,0,2.01296607367,-1,552
2019_Nov_01,215,001,3,recog,58,LUNACY,LF,lure,-,-,-,conservative,no,m,1,1.09333571382,3,555
2019_Nov_01,215,001,3,recog,59,GROUND,HF,target,right,yellow,pleasantness,conservative,no,z,1,0.826713308556,1,556
2019_Nov_01,215,001,3,recog,60,SUPPORT,HF,lure,-,-,-,liberal,no,m,1,1.08103832705,1,557
2019_Nov_01,215,001,3,recog,61,HUNDRED,HF,lure,-,-,-,conservative,no,m,1,0.520170588481,3,560
2019_Nov_01,215,001,3,recog,62,ACROSS,HF,target,left,aqua,imageability,liberal,no,z,1,0.720107239196,3,563
2019_Nov_01,215,001,3,recog,63,EFFECT,HF,lure,-,-,-,liberal,no,m,1,0.78679336035,1,564
2019_Nov_01,215,001,3,recog,64,ENERGY,HF,lure,-,-,-,liberal,no,m,1,0.666779458701,1,565
2019_Nov_01,215,001,3,recog,65,BECAME,HF,target,right,yellow,pleasantness,conservative,no,m,0,1.01329125201,-1,564
2019_Nov_01,215,001,3,recog,66,DODGED,LF,lure,-,-,-,conservative,no,z,0,1.55974042924,-3,561
2019_Nov_01,215,001,3,recog,67,SUBJECT,HF,lure,-,-,-,liberal,no,m,1,1.00013087786,1,562
2019_Nov_01,215,001,3,recog,68,HONKING,LF,target,left,aqua,imageability,conservative,no,z,1,0.786551401273,1,563
2019_Nov_01,215,001,3,recog,69,REWRITE,LF,lure,-,-,-,conservative,no,m,1,1.37321344383,3,566
2019_Nov_01,215,001,3,recog,70,BETTER,HF,target,left,aqua,imageability,liberal,no,z,1,2.03971061694,3,569
2019_Nov_01,215,001,3,recog,71,FURTHER,HF,target,left,aqua,imageability,liberal,no,z,1,2.0262433947,3,572
2019_Nov_01,215,001,3,recog,72,SOFTENING,LF,target,left,aqua,imageability,conservative,no,z,1,0.706534068205,1,573
2019_Nov_01,215,001,3,recog,73,HIMSELF,HF,target,right,yellow,pleasantness,conservative,no,z,1,0.720103939754,1,574
2019_Nov_01,215,001,3,recog,74,UNTIL,HF,target,right,yellow,pleasantness,liberal,no,z,1,0.813388695525,3,577
2019_Nov_01,215,001,3,recog,75,EXACTLY,HF,lure,-,-,-,conservative,no,m,1,0.933319744521,3,580
2019_Nov_01,215,001,3,recog,76,OATHS,LF,target,right,yellow,pleasantness,liberal,no,z,1,0.719868212956,3,583
2019_Nov_01,215,001,3,recog,77,TOGETHER,HF,lure,-,-,-,liberal,yes,z,0,1.73302418784,-1,582
2019_Nov_01,215,001,3,recog,78,PARENTS,HF,target,left,aqua,imageability,conservative,no,z,1,2.0396050348,1,583
2019_Nov_01,215,001,3,recog,79,NEEDED,HF,lure,-,-,-,conservative,no,m,1,0.853459684852,3,586
2019_Nov_01,215,001,3,recog,80,BREAK,HF,target,left,aqua,imageability,liberal,no,z,1,1.93315623884,3,589
2019_Nov_01,215,001,3,recog,81,TWENTY,HF,target,right,yellow,pleasantness,liberal,no,z,1,0.6268048864,3,592
2019_Nov_01,215,001,3,recog,82,EXCEPT,HF,target,right,yellow,pleasantness,liberal,no,z,1,0.560144794177,3,595
2019_Nov_01,215,001,3,recog,83,TARIFF,LF,lure,-,-,-,conservative,no,m,1,2.70613153629,3,598
2019_Nov_01,215,001,3,recog,84,UPDATE,LF,lure,-,-,-,conservative,no,m,1,0.826815224652,3,601
2019_Nov_01,215,001,3,recog,85,INJECT,LF,target,left,aqua,imageability,liberal,no,None,-1,-1,-3,598
2019_Nov_01,215,001,3,recog,86,ADENOIDS,LF,lure,-,-,-,conservative,no,m,1,6.17028859852,3,601
2019_Nov_01,215,001,3,recog,87,FLAGGED,LF,target,right,yellow,pleasantness,liberal,no,z,1,2.58612899938,3,604
2019_Nov_01,215,001,3,recog,88,TACITLY,LF,lure,-,-,-,liberal,no,m,1,1.59973883084,1,605
2019_Nov_01,215,001,3,recog,89,MOTHER,HF,target,left,aqua,imageability,conservative,no,z,1,0.880020925794,1,606
2019_Nov_01,215,001,3,recog,90,BLACK,HF,lure,-,-,-,conservative,no,m,1,1.02681199853,3,609
2019_Nov_01,215,001,3,recog,91,THING,HF,lure,-,-,-,conservative,no,m,1,1.31982700659,3,612
2019_Nov_01,215,001,3,recog,92,GREATER,HF,target,left,aqua,imageability,conservative,no,z,1,0.866743971369,1,613
2019_Nov_01,215,001,3,recog,93,GRUBS,LF,lure,-,-,-,liberal,no,m,1,0.666767360747,1,614
2019_Nov_01,215,001,3,recog,94,SUDDENLY,HF,target,left,aqua,imageability,conservative,no,z,1,2.13290848741,1,615
2019_Nov_01,215,001,3,recog,95,YOGHURT,LF,lure,-,-,-,liberal,no,m,1,0.720104306358,1,616
2019_Nov_01,215,001,4,source,0,CHEEKBONE,LF,target,left,aqua,imageability,conservative,no,1,1,2.78564808739,-,-
2019_Nov_01,215,001,4,source,1,BAIZE,LF,target,left,aqua,imageability,liberal,no,3,1,3.51900295263,-,-
2019_Nov_01,215,001,4,source,2,WESTERN,HF,target,right,yellow,pleasantness,conservative,yes,3,0,1.26637311409,-,-
2019_Nov_01,215,001,4,source,3,CHIEF,HF,target,right,yellow,pleasantness,conservative,no,9,1,0.919981933722,-,-
2019_Nov_01,215,001,4,source,4,WITHIN,HF,target,left,aqua,imageability,liberal,no,7,0,1.17323683321,-,-
2019_Nov_01,215,001,4,source,5,AFTERNOON,HF,target,right,yellow,pleasantness,liberal,no,9,1,1.30641770788,-,-
2019_Nov_01,215,001,4,source,6,SQUADRONS,LF,target,left,aqua,imageability,liberal,no,1,1,1.15996684427,-,-
2019_Nov_01,215,001,4,source,7,LONGER,HF,target,left,aqua,imageability,conservative,no,3,1,3.03924246279,-,-
2019_Nov_01,215,001,4,source,8,ROYALS,LF,target,right,yellow,pleasantness,liberal,no,9,1,1.4398691368,-,-
2019_Nov_01,215,001,4,source,9,OTTOMAN,LF,target,right,yellow,pleasantness,conservative,no,9,1,0.746829786189,-,-
2019_Nov_01,215,001,4,source,10,REVERE,LF,target,left,aqua,imageability,liberal,no,7,0,3.34548640007,-,-
2019_Nov_01,215,001,4,source,11,SUMMER,HF,target,right,yellow,pleasantness,liberal,no,9,1,0.81336779906,-,-
2019_Nov_01,215,001,4,source,12,COBALT,LF,target,left,aqua,imageability,liberal,no,1,1,1.01311491516,-,-
2019_Nov_01,215,001,4,source,13,HAMLETS,LF,target,right,yellow,pleasantness,conservative,no,1,0,3.74552394038,-,-
2019_Nov_01,215,001,4,source,14,NAUGHT,LF,target,left,aqua,imageability,conservative,no,3,1,3.11889795706,-,-
2019_Nov_01,215,001,4,source,15,EBULLIENT,LF,target,right,yellow,pleasantness,conservative,no,9,1,1.41296255427,-,-
2019_Nov_01,215,001,4,source,16,DRINK,HF,target,left,aqua,imageability,liberal,no,1,1,0.906482450268,-,-
2019_Nov_01,215,001,4,source,17,GLASS,HF,target,right,yellow,pleasantness,liberal,yes,7,1,1.01335687424,-,-
2019_Nov_01,215,001,4,source,18,STOOD,HF,target,right,yellow,pleasantness,conservative,yes,3,0,1.31985706817,-,-
2019_Nov_01,215,001,4,source,19,UNNAMED,LF,target,right,yellow,pleasantness,conservative,no,9,1,1.01326778931,-,-
2019_Nov_01,215,001,4,source,20,URCHIN,LF,target,left,aqua,imageability,liberal,no,1,1,0.799843386489,-,-
2019_Nov_01,215,001,4,source,21,AFRAID,HF,target,left,aqua,imageability,liberal,no,1,1,1.87936543666,-,-
2019_Nov_01,215,001,4,source,22,POLICE,HF,target,right,yellow,pleasantness,conservative,no,9,1,0.946644357551,-,-
2019_Nov_01,215,001,4,source,23,TURNED,HF,target,right,yellow,pleasantness,conservative,no,9,1,1.71971093956,-,-
2019_Nov_01,215,001,4,source,24,QUALITY,HF,target,right,yellow,pleasantness,liberal,yes,7,1,0.973347107893,-,-
2019_Nov_01,215,001,4,source,25,DOING,HF,target,right,yellow,pleasantness,liberal,no,9,1,1.03997310588,-,-
2019_Nov_01,215,001,4,source,26,LARGE,HF,target,left,aqua,imageability,conservative,no,2,1,2.66612323636,-,-
2019_Nov_01,215,001,4,source,27,EITHER,HF,target,left,aqua,imageability,liberal,no,2,1,4.0121188503,-,-
2019_Nov_01,215,001,4,source,28,OMITTING,LF,target,left,aqua,imageability,conservative,no,2,1,4.51867484146,-,-
2019_Nov_01,215,001,4,source,29,WATCH,HF,target,left,aqua,imageability,conservative,no,1,1,1.08009175381,-,-
2019_Nov_01,215,001,4,source,30,OCCUPANCY,LF,target,right,yellow,pleasantness,liberal,no,8,1,3.18553128714,-,-
2019_Nov_01,215,001,4,source,31,REREAD,LF,target,right,yellow,pleasantness,liberal,no,9,1,0.786781262396,-,-
2019_Nov_01,215,001,4,source,32,NIGHT,HF,target,right,yellow,pleasantness,liberal,no,9,1,0.706739733419,-,-
2019_Nov_01,215,001,4,source,33,MYSELF,HF,target,left,aqua,imageability,conservative,no,1,1,1.38651862682,-,-
2019_Nov_01,215,001,4,source,34,UNDER,HF,target,left,aqua,imageability,conservative,no,2,1,2.8657079466,-,-
2019_Nov_01,215,001,4,source,35,DROLL,LF,target,left,aqua,imageability,conservative,no,3,1,3.75887678197,-,-
2019_Nov_01,215,001,4,source,36,SWIFTNESS,LF,target,left,aqua,imageability,conservative,no,1,1,1.95953894331,-,-
2019_Nov_01,215,001,4,source,37,DOTTY,LF,target,left,aqua,imageability,liberal,no,1,1,0.96006245477,-,-
2019_Nov_01,215,001,4,source,38,MAGGOT,LF,target,left,aqua,imageability,conservative,no,1,1,0.746547133995,-,-
2019_Nov_01,215,001,4,source,39,NOTHING,HF,target,right,yellow,pleasantness,conservative,no,9,1,0.693538299556,-,-
2019_Nov_01,215,001,4,source,40,MADDENED,LF,target,right,yellow,pleasantness,liberal,no,9,1,0.626859510495,-,-
2019_Nov_01,215,001,4,source,41,PSEUDONYM,LF,target,right,yellow,pleasantness,liberal,no,9,1,0.68012753443,-,-
2019_Nov_01,215,001,4,source,42,GUMMED,LF,target,right,yellow,pleasantness,conservative,no,9,1,0.586933696614,-,-
2019_Nov_01,215,001,4,source,43,BOXCAR,LF,target,right,yellow,pleasantness,conservative,no,9,1,0.906638990459,-,-
2019_Nov_01,215,001,4,source,44,NORTH,HF,target,left,aqua,imageability,liberal,no,1,1,2.55909813787,-,-
2019_Nov_01,215,001,4,source,45,MINISTER,HF,target,left,aqua,imageability,conservative,no,1,1,0.853401761315,-,-
2019_Nov_01,215,001,4,source,46,LIKELY,HF,target,left,aqua,imageability,liberal,no,7,0,1.58643584748,-,-
2019_Nov_01,215,001,4,source,47,SNOBBISH,LF,target,right,yellow,pleasantness,liberal,no,9,1,0.693649747373,-,-
2019_Nov_01,215,001,4,recog,0,WESTERN,HF,target,right,yellow,pleasantness,conservative,no,m,0,1.87939769787,-1,615
2019_Nov_01,215,001,4,recog,1,CYANIDE,LF,lure,-,-,-,conservative,no,m,1,1.62617285996,3,618
2019_Nov_01,215,001,4,recog,2,NUCLEAR,HF,lure,-,-,-,conservative,yes,m,1,1.47957388807,3,621
2019_Nov_01,215,001,4,recog,3,ADJOURNED,LF,lure,-,-,-,liberal,no,m,1,0.960065754212,1,622
2019_Nov_01,215,001,4,recog,4,SWIFTNESS,LF,target,left,aqua,imageability,conservative,no,z,1,0.813379163804,1,623
2019_Nov_01,215,001,4,recog,5,NOTHING,HF,target,right,yellow,pleasantness,conservative,no,z,1,1.12006302667,1,624
2019_Nov_01,215,001,4,recog,6,OBVIOUSLY,HF,lure,-,-,-,liberal,no,m,1,0.773168864706,1,625
2019_Nov_01,215,001,4,recog,7,HEEDED,LF,lure,-,-,-,conservative,no,m,1,0.573471606835,3,628
2019_Nov_01,215,001,4,recog,8,GARDEN,HF,lure,-,-,-,conservative,no,m,1,0.573695968889,3,631
2019_Nov_01,215,001,4,recog,9,ALKALINE,LF,lure,-,-,-,liberal,no,m,1,0.533538460862,1,632
2019_Nov_01,215,001,4,recog,10,ANIMAL,HF,lure,-,-,-,liberal,no,m,1,0.479940492731,1,633
2019_Nov_01,215,001,4,recog,11,PUFFS,LF,lure,-,-,-,liberal,no,m,1,0.560189886551,1,634
2019_Nov_01,215,001,4,recog,12,EITHER,HF,target,left,aqua,imageability,liberal,no,z,1,0.786493844341,3,637
2019_Nov_01,215,001,4,recog,13,ELECTING,LF,lure,-,-,-,liberal,no,m,1,0.613522066301,1,638
2019_Nov_01,215,001,4,recog,14,WITHIN,HF,target,left,aqua,imageability,liberal,no,z,1,1.97292697895,3,641
2019_Nov_01,215,001,4,recog,15,HAPPEN,HF,lure,-,-,-,conservative,no,m,1,0.733219588127,3,644
2019_Nov_01,215,001,4,recog,16,HISTORY,HF,lure,-,-,-,conservative,no,m,1,0.546965356592,3,647
2019_Nov_01,215,001,4,recog,17,AVOCADO,LF,lure,-,-,-,conservative,no,m,1,0.586844978286,3,650
2019_Nov_01,215,001,4,recog,18,SNOBBISH,LF,target,right,yellow,pleasantness,liberal,no,z,1,0.746650516509,3,653
2019_Nov_01,215,001,4,recog,19,GENERAL,HF,lure,-,-,-,liberal,no,m,1,0.760098675311,1,654
2019_Nov_01,215,001,4,recog,20,DOTTY,LF,target,left,aqua,imageability,liberal,no,z,1,0.786757433093,3,657
2019_Nov_01,215,001,4,recog,21,PSEUDONYM,LF,target,right,yellow,pleasantness,liberal,yes,z,1,1.13323953142,3,660
2019_Nov_01,215,001,4,recog,22,SQUADRONS,LF,target,left,aqua,imageability,liberal,no,z,1,0.760107473823,3,663
2019_Nov_01,215,001,4,recog,23,NIGHT,HF,target,right,yellow,pleasantness,liberal,no,z,1,0.786702075789,3,666
2019_Nov_01,215,001,4,recog,24,QUALITY,HF,target,right,yellow,pleasantness,liberal,no,z,1,0.826688012834,3,669
2019_Nov_01,215,001,4,recog,25,TROUBLE,HF,lure,-,-,-,liberal,no,m,1,0.639893772633,1,670
2019_Nov_01,215,001,4,recog,26,VANDALS,LF,lure,-,-,-,liberal,no,m,1,0.600194153829,1,671
2019_Nov_01,215,001,4,recog,27,DRINK,HF,target,left,aqua,imageability,liberal,no,z,1,0.693439316297,3,674
2019_Nov_01,215,001,4,recog,28,AROUND,HF,lure,-,-,-,conservative,no,z,0,1.01334257666,-3,671
2019_Nov_01,215,001,4,recog,29,POLICE,HF,target,right,yellow,pleasantness,conservative,no,z,1,1.37324570504,1,672
2019_Nov_01,215,001,4,recog,30,SAYING,HF,lure,-,-,-,liberal,no,m,1,1.27987846322,1,673
2019_Nov_01,215,001,4,recog,31,HANDS,HF,lure,-,-,-,liberal,no,m,1,0.706825518911,1,674
2019_Nov_01,215,001,4,recog,32,FIGURE,HF,lure,-,-,-,liberal,no,m,1,0.680112870243,1,675
2019_Nov_01,215,001,4,recog,33,JUDICIOUS,LF,lure,-,-,-,liberal,no,m,1,0.600443811603,1,676
2019_Nov_01,215,001,4,recog,34,WATCH,HF,target,left,aqua,imageability,conservative,no,z,1,0.773400192247,1,677
2019_Nov_01,215,001,4,recog,35,SPICED,LF,lure,-,-,-,conservative,no,m,1,0.786735803418,3,680
2019_Nov_01,215,001,4,recog,36,LIKELY,HF,target,left,aqua,imageability,liberal,no,z,1,1.59977989056,3,683
2019_Nov_01,215,001,4,recog,37,REREAD,LF,target,right,yellow,pleasantness,liberal,no,z,1,0.693477076577,3,686
2019_Nov_01,215,001,4,recog,38,AFRAID,HF,target,left,aqua,imageability,liberal,yes,z,1,0.840073482238,3,689
2019_Nov_01,215,001,4,recog,39,CHEEKBONE,LF,target,left,aqua,imageability,conservative,no,z,1,0.90669178153,1,690
2019_Nov_01,215,001,4,recog,40,BRING,HF,lure,-,-,-,liberal,no,m,1,1.23989142636,1,691
2019_Nov_01,215,001,4,recog,41,REVERE,LF,target,left,aqua,imageability,liberal,no,z,1,0.680000322612,3,694
2019_Nov_01,215,001,4,recog,42,GLASS,HF,target,right,yellow,pleasantness,liberal,no,z,1,0.573291237342,3,697
2019_Nov_01,215,001,4,recog,43,BROUGHT,HF,lure,-,-,-,liberal,no,m,1,0.839813192928,1,698
2019_Nov_01,215,001,4,recog,44,DUELLING,LF,lure,-,-,-,conservative,no,m,1,0.786743502116,3,701
2019_Nov_01,215,001,4,recog,45,LONGER,HF,target,left,aqua,imageability,conservative,no,m,0,0.586836546378,-1,700
2019_Nov_01,215,001,4,recog,46,MAGGOT,LF,target,left,aqua,imageability,conservative,no,z,1,0.999997067163,1,701
2019_Nov_01,215,001,4,recog,47,OCCUPANCY,LF,target,right,yellow,pleasantness,liberal,no,z,1,0.893136574167,3,704
2019_Nov_01,215,001,4,recog,48,ALTHOUGH,HF,lure,-,-,-,conservative,no,m,1,0.880088747656,3,707
2019_Nov_01,215,001,4,recog,49,QUOTAS,LF,lure,-,-,-,conservative,no,m,1,0.506845608846,3,710
2019_Nov_01,215,001,4,recog,50,SITTING,HF,lure,-,-,-,conservative,no,m,1,0.626880040356,3,713
2019_Nov_01,215,001,4,recog,51,VERBALLY,LF,lure,-,-,-,liberal,no,m,1,0.666860111727,1,714
2019_Nov_01,215,001,4,recog,52,SUMMER,HF,target,right,yellow,pleasantness,liberal,no,z,1,0.693596223092,3,717
2019_Nov_01,215,001,4,recog,53,UNNAMED,LF,target,right,yellow,pleasantness,conservative,no,z,1,1.25294475194,1,718
2019_Nov_01,215,001,4,recog,54,FIELD,HF,lure,-,-,-,conservative,no,m,1,0.73336219734,3,721
2019_Nov_01,215,001,4,recog,55,GUMMED,LF,target,right,yellow,pleasantness,conservative,no,z,1,0.680097472848,1,722
2019_Nov_01,215,001,4,recog,56,DROLL,LF,target,left,aqua,imageability,conservative,no,z,1,0.786480279969,1,723
2019_Nov_01,215,001,4,recog,57,OOZED,LF,lure,-,-,-,conservative,no,m,1,0.706756597234,3,726
2019_Nov_01,215,001,4,recog,58,HARDLY,HF,lure,-,-,-,liberal,no,m,1,1.05329735231,1,727
2019_Nov_01,215,001,4,recog,59,OUGHT,HF,lure,-,-,-,conservative,no,m,1,0.640129866035,3,730
2019_Nov_01,215,001,4,recog,60,CARRIED,HF,lure,-,-,-,conservative,no,m,1,0.520144192945,3,733
2019_Nov_01,215,001,4,recog,61,GLUTINOUS,LF,lure,-,-,-,liberal,no,m,1,0.586778622842,1,734
2019_Nov_01,215,001,4,recog,62,DOING,HF,target,right,yellow,pleasantness,liberal,no,z,1,0.693566528114,3,737
2019_Nov_01,215,001,4,recog,63,NAUGHT,LF,target,left,aqua,imageability,conservative,no,z,1,0.986737343157,1,738
2019_Nov_01,215,001,4,recog,64,COBALT,LF,target,left,aqua,imageability,liberal,no,z,1,0.706719936768,3,741
2019_Nov_01,215,001,4,recog,65,STOOD,HF,target,right,yellow,pleasantness,conservative,no,z,1,1.71945175006,1,742
2019_Nov_01,215,001,4,recog,66,CHIEF,HF,target,right,yellow,pleasantness,conservative,no,z,1,0.613589521559,1,743
2019_Nov_01,215,001,4,recog,67,EVADING,LF,lure,-,-,-,conservative,no,m,1,0.58681308368,3,746
2019_Nov_01,215,001,4,recog,68,QUICKLY,HF,lure,-,-,-,conservative,no,m,1,0.640128766221,3,749
2019_Nov_01,215,001,4,recog,69,URCHIN,LF,target,left,aqua,imageability,liberal,no,z,1,0.626531032718,3,752
2019_Nov_01,215,001,4,recog,70,ELATION,LF,lure,-,-,-,conservative,no,m,1,0.946757638391,3,755
2019_Nov_01,215,001,4,recog,71,RUPTURE,LF,lure,-,-,-,liberal,no,m,1,0.546781321053,1,756
2019_Nov_01,215,001,4,recog,72,OTTOMAN,LF,target,right,yellow,pleasantness,conservative,no,z,1,0.680093073592,1,757
2019_Nov_01,215,001,4,recog,73,LOITERING,LF,lure,-,-,-,liberal,no,m,1,0.600175090387,1,758
2019_Nov_01,215,001,4,recog,74,HIPPY,LF,lure,-,-,-,conservative,no,m,1,0.560221414552,3,761
2019_Nov_01,215,001,4,recog,75,TURNED,HF,target,right,yellow,pleasantness,conservative,no,z,1,0.866710243741,1,762
2019_Nov_01,215,001,4,recog,76,OMITTING,LF,target,left,aqua,imageability,conservative,no,z,1,1.27988139606,1,763
2019_Nov_01,215,001,4,recog,77,BOXCAR,LF,target,right,yellow,pleasantness,conservative,no,z,1,0.626872341658,1,764
2019_Nov_01,215,001,4,recog,78,MYSELF,HF,target,left,aqua,imageability,conservative,no,z,1,0.906794430835,1,765
2019_Nov_01,215,001,4,recog,79,HAMLETS,LF,target,right,yellow,pleasantness,conservative,no,z,1,0.613478806951,1,766
2019_Nov_01,215,001,4,recog,80,SCHOOL,HF,lure,-,-,-,liberal,no,m,1,0.800108441659,1,767
2019_Nov_01,215,001,4,recog,81,EBULLIENT,LF,target,right,yellow,pleasantness,conservative,no,z,1,0.826513509015,1,768
2019_Nov_01,215,001,4,recog,82,DAILIES,LF,lure,-,-,-,liberal,no,m,1,0.919733009157,1,769
2019_Nov_01,215,001,4,recog,83,JOVIAL,LF,lure,-,-,-,liberal,no,m,1,1.0266440936,1,770
2019_Nov_01,215,001,4,recog,84,UNDER,HF,target,left,aqua,imageability,conservative,no,z,1,0.68011103722,1,771
2019_Nov_01,215,001,4,recog,85,MINISTER,HF,target,left,aqua,imageability,conservative,no,z,1,0.600177656619,1,772
2019_Nov_01,215,001,4,recog,86,SEGMENTED,LF,lure,-,-,-,conservative,no,m,1,0.559959658823,3,775
2019_Nov_01,215,001,4,recog,87,ROYALS,LF,target,right,yellow,pleasantness,liberal,no,z,1,0.720093674823,3,778
2019_Nov_01,215,001,4,recog,88,AFTERNOON,HF,target,right,yellow,pleasantness,liberal,no,z,1,0.600126331966,3,781
2019_Nov_01,215,001,4,recog,89,WANTED,HF,lure,-,-,-,liberal,no,z,0,0.760081078287,-1,780
2019_Nov_01,215,001,4,recog,90,GRACES,LF,lure,-,-,-,conservative,no,m,1,1.11994424676,3,783
2019_Nov_01,215,001,4,recog,91,MADDENED,LF,target,right,yellow,pleasantness,liberal,yes,z,1,0.920090448702,3,786
2019_Nov_01,215,001,4,recog,92,ABOVE,HF,lure,-,-,-,conservative,no,z,0,1.63985087989,-3,783
2019_Nov_01,215,001,4,recog,93,NORTH,HF,target,left,aqua,imageability,liberal,no,z,1,0.66656316195,3,786
2019_Nov_01,215,001,4,recog,94,BAIZE,LF,target,left,aqua,imageability,liberal,no,z,1,0.920002096979,3,789
2019_Nov_01,215,001,4,recog,95,LARGE,HF,target,left,aqua,imageability,conservative,no,m,0,1.18654824847,-1,788
