date,subj,session,cycle,task,trial,item,wf,type,source,colour,encoding,bias,null,response,corr,rt,points,total
2019_Nov_05,216,001,0,source,0,LESSENED,LF,target,right,aqua,pleasantness,conservative,no,8,1,5.05168373572,-,-
2019_Nov_05,216,001,0,source,1,SOPHISTS,LF,target,left,yellow,imageability,liberal,no,2,1,2.69236115999,-,-
2019_Nov_05,216,001,0,source,2,ENDEARING,LF,target,left,yellow,imageability,liberal,no,8,0,1.71948284003,-,-
2019_Nov_05,216,001,0,source,3,JEWELLED,LF,target,right,aqua,pleasantness,conservative,yes,8,1,1.23965518758,-,-
2019_Nov_05,216,001,0,source,4,CHIEF,HF,target,right,aqua,pleasantness,conservative,no,9,1,1.5594392289,-,-
2019_Nov_05,216,001,0,source,5,NUTSHELL,LF,target,left,yellow,imageability,liberal,no,1,1,1.33325048098,-,-
2019_Nov_05,216,001,0,source,6,MUSIC,HF,target,left,yellow,imageability,liberal,yes,1,1,0.906668660989,-,-
2019_Nov_05,216,001,0,source,7,OMITTING,LF,target,right,aqua,pleasantness,conservative,no,8,1,1.33317789353,-,-
2019_Nov_05,216,001,0,source,8,MEMBERS,HF,target,left,yellow,imageability,liberal,no,1,1,0.786728519978,-,-
2019_Nov_05,216,001,0,source,9,HOSPITAL,HF,target,left,yellow,imageability,conservative,no,1,1,0.666914490509,-,-
2019_Nov_05,216,001,0,source,10,USELESSLY,LF,target,right,aqua,pleasantness,conservative,no,7,1,1.8664137837,-,-
2019_Nov_05,216,001,0,source,11,ALREADY,HF,target,left,yellow,imageability,conservative,no,1,1,1.49318374452,-,-
2019_Nov_05,216,001,0,source,12,PHRASED,LF,target,right,aqua,pleasantness,liberal,no,3,0,1.54640244832,-,-
2019_Nov_05,216,001,0,source,13,WIZENED,LF,target,right,aqua,pleasantness,liberal,no,8,1,1.66615855447,-,-
2019_Nov_05,216,001,0,source,14,DOGMAS,LF,target,left,yellow,imageability,conservative,no,1,1,1.01326187501,-,-
2019_Nov_05,216,001,0,source,15,GYMKHANA,LF,target,left,yellow,imageability,liberal,no,1,1,0.613421200817,-,-
2019_Nov_05,216,001,0,source,16,BUILDING,HF,target,right,aqua,pleasantness,conservative,no,7,1,1.06659642547,-,-
2019_Nov_05,216,001,0,source,17,DAGGERS,LF,target,right,aqua,pleasantness,liberal,no,9,1,0.760066560498,-,-
2019_Nov_05,216,001,0,source,18,BEHIND,HF,target,right,aqua,pleasantness,conservative,no,9,1,0.78675858145,-,-
2019_Nov_05,216,001,0,source,19,SLIGHTLY,HF,target,left,yellow,imageability,liberal,no,7,0,1.79968648084,-,-
2019_Nov_05,216,001,0,source,20,PEGGED,LF,target,left,yellow,imageability,conservative,yes,7,0,0.706563739119,-,-
2019_Nov_05,216,001,0,source,21,MINISTER,HF,target,right,aqua,pleasantness,conservative,no,7,1,0.893477907018,-,-
2019_Nov_05,216,001,0,source,22,MONEY,HF,target,right,aqua,pleasantness,liberal,no,9,1,1.06659129302,-,-
2019_Nov_05,216,001,0,source,23,BOOKS,HF,target,left,yellow,imageability,conservative,no,1,1,1.15997872234,-,-
2019_Nov_05,216,001,0,source,24,GREATER,HF,target,left,yellow,imageability,liberal,no,1,1,1.26630284953,-,-
2019_Nov_05,216,001,0,source,25,JOWLS,LF,target,left,yellow,imageability,conservative,no,8,0,1.66637705005,-,-
2019_Nov_05,216,001,0,source,26,SPOKE,HF,target,left,yellow,imageability,conservative,yes,1,1,0.84010009737,-,-
2019_Nov_05,216,001,0,source,27,PRACTICE,HF,target,right,aqua,pleasantness,conservative,no,9,1,1.8129754845,-,-
2019_Nov_05,216,001,0,source,28,FAMILY,HF,target,left,yellow,imageability,liberal,no,1,1,0.813380581169,-,-
2019_Nov_05,216,001,0,source,29,CLUBBED,LF,target,left,yellow,imageability,conservative,no,1,1,1.55974204324,-,-
2019_Nov_05,216,001,0,source,30,BUCKED,LF,target,left,yellow,imageability,conservative,no,1,1,0.959777383801,-,-
2019_Nov_05,216,001,0,source,31,ENCLOSE,LF,target,right,aqua,pleasantness,liberal,no,9,1,0.773311938364,-,-
2019_Nov_05,216,001,0,source,32,STAFF,HF,target,right,aqua,pleasantness,liberal,no,9,1,0.746519101499,-,-
2019_Nov_05,216,001,0,source,33,YACHTING,LF,target,right,aqua,pleasantness,conservative,no,9,1,0.640114688182,-,-
2019_Nov_05,216,001,0,source,34,LIZARD,LF,target,left,yellow,imageability,conservative,no,1,1,0.813350519697,-,-
2019_Nov_05,216,001,0,source,35,GARDEN,HF,target,left,yellow,imageability,liberal,no,8,0,1.79968501443,-,-
2019_Nov_05,216,001,0,source,36,POUNDS,HF,target,right,aqua,pleasantness,liberal,no,9,1,0.853357573145,-,-
2019_Nov_05,216,001,0,source,37,HERSELF,HF,target,right,aqua,pleasantness,liberal,no,9,1,0.680086181108,-,-
2019_Nov_05,216,001,0,source,38,DEDICATE,LF,target,right,aqua,pleasantness,conservative,no,8,1,1.74611877068,-,-
2019_Nov_05,216,001,0,source,39,ANYONE,HF,target,right,aqua,pleasantness,liberal,no,9,1,0.773219920931,-,-
2019_Nov_05,216,001,0,source,40,LIVED,HF,target,right,aqua,pleasantness,conservative,no,9,1,0.746472176275,-,-
2019_Nov_05,216,001,0,source,41,NAGGED,LF,target,right,aqua,pleasantness,liberal,no,8,1,1.53311454447,-,-
2019_Nov_05,216,001,0,source,42,TELEPHONE,HF,target,left,yellow,imageability,conservative,no,1,1,1.02638260775,-,-
2019_Nov_05,216,001,0,source,43,MOLARS,LF,target,right,aqua,pleasantness,liberal,no,2,0,2.19923863823,-,-
2019_Nov_05,216,001,0,source,44,SHRED,LF,target,left,yellow,imageability,liberal,no,1,1,1.1731903727,-,-
2019_Nov_05,216,001,0,source,45,COUNCIL,HF,target,right,aqua,pleasantness,liberal,no,8,1,1.33316102977,-,-
2019_Nov_05,216,001,0,source,46,HOWEVER,HF,target,left,yellow,imageability,conservative,no,8,0,0.879777207832,-,-
2019_Nov_05,216,001,0,source,47,ACORNS,LF,target,left,yellow,imageability,liberal,no,1,1,1.07973402196,-,-
2019_Nov_05,216,001,0,recog,0,BEHIND,HF,target,right,aqua,pleasantness,conservative,no,m,0,3.58560077485,-1,-1
2019_Nov_05,216,001,0,recog,1,CUSTODIAN,LF,lure,-,-,-,conservative,no,z,0,2.14595431243,-3,-4
2019_Nov_05,216,001,0,recog,2,HOWEVER,HF,target,left,yellow,imageability,conservative,no,z,1,1.50647861383,1,-3
2019_Nov_05,216,001,0,recog,3,ZEBRA,LF,lure,-,-,-,liberal,no,m,1,0.933416772248,1,-2
2019_Nov_05,216,001,0,recog,4,SPOKE,HF,target,left,yellow,imageability,conservative,no,m,0,2.57270696957,-1,-3
2019_Nov_05,216,001,0,recog,5,DAWDLING,LF,lure,-,-,-,liberal,no,z,0,1.25328256611,-1,-4
2019_Nov_05,216,001,0,recog,6,FUNNILY,LF,lure,-,-,-,liberal,no,m,1,1.23988431466,1,-3
2019_Nov_05,216,001,0,recog,7,OMITTING,LF,target,right,aqua,pleasantness,conservative,yes,m,0,1.05326819526,-1,-4
2019_Nov_05,216,001,0,recog,8,PERHAPS,HF,lure,-,-,-,conservative,no,m,1,1.54646770371,3,-1
2019_Nov_05,216,001,0,recog,9,ONCOMING,LF,lure,-,-,-,liberal,no,m,1,0.946660317097,1,0
2019_Nov_05,216,001,0,recog,10,GYMKHANA,LF,target,left,yellow,imageability,liberal,no,z,1,1.14664169365,3,3
2019_Nov_05,216,001,0,recog,11,CLUBBED,LF,target,left,yellow,imageability,conservative,no,z,1,0.933321088783,1,4
2019_Nov_05,216,001,0,recog,12,DONATE,LF,lure,-,-,-,liberal,no,m,1,0.946434856057,1,5
2019_Nov_05,216,001,0,recog,13,GREATER,HF,target,left,yellow,imageability,liberal,no,z,1,3.23910674902,3,8
2019_Nov_05,216,001,0,recog,14,PEGGED,LF,target,left,yellow,imageability,conservative,no,z,1,2.07951992562,1,9
2019_Nov_05,216,001,0,recog,15,MEMBERS,HF,target,left,yellow,imageability,liberal,no,z,1,0.866364658854,3,12
2019_Nov_05,216,001,0,recog,16,BUILDING,HF,target,right,aqua,pleasantness,conservative,no,z,1,5.1982293793,1,13
2019_Nov_05,216,001,0,recog,17,EMULATION,LF,lure,-,-,-,liberal,no,m,1,1.31986616046,1,14
2019_Nov_05,216,001,0,recog,18,THANK,HF,lure,-,-,-,liberal,no,m,1,1.37315231928,1,15
2019_Nov_05,216,001,0,recog,19,PHOBIC,LF,lure,-,-,-,conservative,no,m,1,1.09323895498,3,18
2019_Nov_05,216,001,0,recog,20,YORKER,LF,lure,-,-,-,liberal,no,m,1,0.746737597077,1,19
2019_Nov_05,216,001,0,recog,21,DOGMAS,LF,target,left,yellow,imageability,conservative,no,z,1,0.773354830952,1,20
2019_Nov_05,216,001,0,recog,22,ALREADY,HF,target,left,yellow,imageability,conservative,no,z,1,1.43988182175,1,21
2019_Nov_05,216,001,0,recog,23,SERIOUS,HF,lure,-,-,-,liberal,no,m,1,0.760111286103,1,22
2019_Nov_05,216,001,0,recog,24,PRACTICE,HF,target,right,aqua,pleasantness,conservative,no,z,1,3.09249145081,1,23
2019_Nov_05,216,001,0,recog,25,BOOKS,HF,target,left,yellow,imageability,conservative,no,z,1,0.57346400542,1,24
2019_Nov_05,216,001,0,recog,26,JOWLS,LF,target,left,yellow,imageability,conservative,no,z,1,0.706742641538,1,25
2019_Nov_05,216,001,0,recog,27,USELESSLY,LF,target,right,aqua,pleasantness,conservative,no,m,0,1.04002611682,-1,24
2019_Nov_05,216,001,0,recog,28,HOSPITAL,HF,target,left,yellow,imageability,conservative,yes,m,0,0.840075168344,-1,23
2019_Nov_05,216,001,0,recog,29,FAMILY,HF,target,left,yellow,imageability,liberal,no,z,1,1.0799928439,3,26
2019_Nov_05,216,001,0,recog,30,OPENED,HF,lure,-,-,-,liberal,no,m,1,0.74673906349,1,27
2019_Nov_05,216,001,0,recog,31,ACORNS,LF,target,left,yellow,imageability,liberal,no,z,1,0.680105977687,3,30
2019_Nov_05,216,001,0,recog,32,MIGHTILY,LF,lure,-,-,-,conservative,no,m,1,0.773393690904,3,33
2019_Nov_05,216,001,0,recog,33,CENTRAL,HF,lure,-,-,-,conservative,no,m,1,0.813151454095,3,36
2019_Nov_05,216,001,0,recog,34,HAPPEN,HF,lure,-,-,-,conservative,no,m,1,1.23962769233,3,39
2019_Nov_05,216,001,0,recog,35,SHRED,LF,target,left,yellow,imageability,liberal,no,z,1,0.800018990052,3,42
2019_Nov_05,216,001,0,recog,36,ANYONE,HF,target,right,aqua,pleasantness,liberal,no,z,1,0.68010634429,3,45
2019_Nov_05,216,001,0,recog,37,COVER,HF,lure,-,-,-,liberal,no,m,1,0.65353273621,1,46
2019_Nov_05,216,001,0,recog,38,FESTERING,LF,lure,-,-,-,liberal,no,m,1,1.01333336266,1,47
2019_Nov_05,216,001,0,recog,39,LENGTHEN,LF,lure,-,-,-,conservative,no,m,1,0.653525770747,3,50
2019_Nov_05,216,001,0,recog,40,ITSELF,HF,lure,-,-,-,liberal,no,m,1,0.706757305671,1,51
2019_Nov_05,216,001,0,recog,41,APART,HF,lure,-,-,-,liberal,no,m,1,0.600121199057,1,52
2019_Nov_05,216,001,0,recog,42,GURGLE,LF,lure,-,-,-,conservative,no,m,1,0.626534968091,3,55
2019_Nov_05,216,001,0,recog,43,CHIEF,HF,target,right,aqua,pleasantness,conservative,no,z,1,0.653320839492,1,56
2019_Nov_05,216,001,0,recog,44,HOBBLE,LF,lure,-,-,-,conservative,yes,z,0,1.18631550468,-3,53
2019_Nov_05,216,001,0,recog,45,TUSKS,LF,lure,-,-,-,conservative,no,m,1,3.05266219997,3,56
2019_Nov_05,216,001,0,recog,46,YACHTING,LF,target,right,aqua,pleasantness,conservative,no,z,1,0.853096184979,1,57
2019_Nov_05,216,001,0,recog,47,FLICKS,LF,lure,-,-,-,conservative,no,m,1,0.880055093146,3,60
2019_Nov_05,216,001,0,recog,48,WRONG,HF,lure,-,-,-,conservative,no,m,1,0.773477643063,3,63
2019_Nov_05,216,001,0,recog,49,BOILERS,LF,lure,-,-,-,conservative,no,m,1,0.7334357623,3,66
2019_Nov_05,216,001,0,recog,50,STAFF,HF,target,right,aqua,pleasantness,liberal,no,z,1,0.706854088947,3,69
2019_Nov_05,216,001,0,recog,51,SOFTENING,LF,lure,-,-,-,conservative,no,m,1,1.27989430093,3,72
2019_Nov_05,216,001,0,recog,52,HERSELF,HF,target,right,aqua,pleasantness,liberal,no,z,1,0.706730543629,3,75
2019_Nov_05,216,001,0,recog,53,WIZENED,LF,target,right,aqua,pleasantness,liberal,no,z,1,0.66666043441,3,78
2019_Nov_05,216,001,0,recog,54,TRIED,HF,lure,-,-,-,conservative,no,m,1,0.733453725863,3,81
2019_Nov_05,216,001,0,recog,55,DAGGERS,LF,target,right,aqua,pleasantness,liberal,yes,z,1,1.25323270805,3,84
2019_Nov_05,216,001,0,recog,56,JEWELLED,LF,target,right,aqua,pleasantness,conservative,no,z,1,1.73303176544,1,85
2019_Nov_05,216,001,0,recog,57,BEGAN,HF,lure,-,-,-,liberal,no,z,0,2.34618571244,-1,84
2019_Nov_05,216,001,0,recog,58,CEASELESS,LF,lure,-,-,-,liberal,no,m,1,1.07999724314,1,85
2019_Nov_05,216,001,0,recog,59,REQUIRED,HF,lure,-,-,-,conservative,no,z,0,1.48015319619,-3,82
2019_Nov_05,216,001,0,recog,60,SOPHISTS,LF,target,left,yellow,imageability,liberal,no,z,1,1.7197449614,3,85
2019_Nov_05,216,001,0,recog,61,TELEPHONE,HF,target,left,yellow,imageability,conservative,no,z,1,0.919959497666,1,86
2019_Nov_05,216,001,0,recog,62,LIZARD,LF,target,left,yellow,imageability,conservative,no,z,1,0.653566463715,1,87
2019_Nov_05,216,001,0,recog,63,MONEY,HF,target,right,aqua,pleasantness,liberal,no,z,1,0.653486177589,3,90
2019_Nov_05,216,001,0,recog,64,MAJOR,HF,lure,-,-,-,conservative,no,m,1,0.760124850426,3,93
2019_Nov_05,216,001,0,recog,65,MAYBE,HF,lure,-,-,-,conservative,no,m,1,0.906406539616,3,96
2019_Nov_05,216,001,0,recog,66,NUTSHELL,LF,target,left,yellow,imageability,liberal,no,z,1,0.786749416367,3,99
2019_Nov_05,216,001,0,recog,67,LESSENED,LF,target,right,aqua,pleasantness,conservative,no,z,1,2.2530387749,1,100
2019_Nov_05,216,001,0,recog,68,WHATEVER,HF,lure,-,-,-,liberal,no,m,1,0.853462421694,1,101
2019_Nov_05,216,001,0,recog,69,DEDICATE,LF,target,right,aqua,pleasantness,conservative,no,z,1,1.30653536402,1,102
2019_Nov_05,216,001,0,recog,70,SORRY,HF,lure,-,-,-,liberal,no,m,1,0.706745940968,1,103
2019_Nov_05,216,001,0,recog,71,POLICE,HF,lure,-,-,-,liberal,no,m,1,0.933480194622,1,104
2019_Nov_05,216,001,0,recog,72,MUSIC,HF,target,left,yellow,imageability,liberal,no,z,1,1.30649613747,3,107
2019_Nov_05,216,001,0,recog,73,BUCKED,LF,target,left,yellow,imageability,conservative,no,z,1,0.866462908543,1,108
2019_Nov_05,216,001,0,recog,74,CAUGHT,HF,lure,-,-,-,conservative,no,m,1,0.77340762183,3,111
2019_Nov_05,216,001,0,recog,75,GARDEN,HF,target,left,yellow,imageability,liberal,no,z,1,0.78675858145,3,114
2019_Nov_05,216,001,0,recog,76,RETURN,HF,lure,-,-,-,liberal,no,m,1,0.933566713005,1,115
2019_Nov_05,216,001,0,recog,77,ENZYME,LF,lure,-,-,-,liberal,no,m,1,0.666776647662,1,116
2019_Nov_05,216,001,0,recog,78,SPLASHES,LF,lure,-,-,-,liberal,no,m,1,0.520080696722,1,117
2019_Nov_05,216,001,0,recog,79,LIVED,HF,target,right,aqua,pleasantness,conservative,no,z,1,0.919979294245,1,118
2019_Nov_05,216,001,0,recog,80,NAGGED,LF,target,right,aqua,pleasantness,liberal,no,z,1,0.840059404401,3,121
2019_Nov_05,216,001,0,recog,81,PHRASED,LF,target,right,aqua,pleasantness,liberal,no,m,0,0.78670542397,-3,118
2019_Nov_05,216,001,0,recog,82,COUNCIL,HF,target,right,aqua,pleasantness,liberal,no,z,1,1.07993565379,3,121
2019_Nov_05,216,001,0,recog,83,ENCLOSE,LF,target,right,aqua,pleasantness,liberal,no,z,1,0.693460603341,3,124
2019_Nov_05,216,001,0,recog,84,ANTELOPES,LF,lure,-,-,-,conservative,no,m,1,0.666916323526,3,127
2019_Nov_05,216,001,0,recog,85,NIGHT,HF,lure,-,-,-,conservative,no,m,1,0.640133018348,3,130
2019_Nov_05,216,001,0,recog,86,POUNDS,HF,target,right,aqua,pleasantness,liberal,no,z,1,0.733414132704,3,133
2019_Nov_05,216,001,0,recog,87,MYRIADS,LF,lure,-,-,-,liberal,no,m,1,0.666750618826,1,134
2019_Nov_05,216,001,0,recog,88,BIGNESS,LF,lure,-,-,-,conservative,no,m,1,1.66640344548,3,137
2019_Nov_05,216,001,0,recog,89,CLEAR,HF,lure,-,-,-,conservative,no,m,1,0.560153005561,3,140
2019_Nov_05,216,001,0,recog,90,ENDEARING,LF,target,left,yellow,imageability,liberal,no,z,1,0.666649436311,3,143
2019_Nov_05,216,001,0,recog,91,MINISTER,HF,target,right,aqua,pleasantness,conservative,no,z,1,1.10663097417,1,144
2019_Nov_05,216,001,0,recog,92,SLIGHTLY,HF,target,left,yellow,imageability,liberal,no,z,1,0.773429618029,3,147
2019_Nov_05,216,001,0,recog,93,SOMEONE,HF,lure,-,-,-,conservative,no,m,1,0.960185413294,3,150
2019_Nov_05,216,001,0,recog,94,CHAIR,HF,lure,-,-,-,liberal,no,m,1,0.800102209005,1,151
2019_Nov_05,216,001,0,recog,95,MOLARS,LF,target,right,aqua,pleasantness,liberal,no,z,1,0.760065094085,3,154
2019_Nov_05,216,001,1,source,0,PUCKERED,LF,target,right,aqua,pleasantness,conservative,no,7,1,1.45311876774,-,-
2019_Nov_05,216,001,1,source,1,EVENING,HF,target,left,yellow,imageability,conservative,no,7,0,1.29319650231,-,-
2019_Nov_05,216,001,1,source,2,WESTERN,HF,target,left,yellow,imageability,liberal,no,2,1,2.18617876164,-,-
2019_Nov_05,216,001,1,source,3,VEHEMENCE,LF,target,right,aqua,pleasantness,liberal,no,8,1,1.5062542526,-,-
2019_Nov_05,216,001,1,source,4,HOEING,LF,target,right,aqua,pleasantness,conservative,no,9,1,1.0263881068,-,-
2019_Nov_05,216,001,1,source,5,JUMBO,LF,target,left,yellow,imageability,conservative,no,1,1,1.1866267509,-,-
2019_Nov_05,216,001,1,source,6,OATHS,LF,target,left,yellow,imageability,liberal,no,1,1,0.82671944288,-,-
2019_Nov_05,216,001,1,source,7,TOKENS,LF,target,right,aqua,pleasantness,liberal,no,2,0,1.01332346437,-,-
2019_Nov_05,216,001,1,source,8,EAVES,LF,target,left,yellow,imageability,conservative,no,2,1,1.93294312076,-,-
2019_Nov_05,216,001,1,source,9,MUNCH,LF,target,right,aqua,pleasantness,conservative,no,9,1,1.25331006135,-,-
2019_Nov_05,216,001,1,source,10,BASIC,HF,target,right,aqua,pleasantness,conservative,no,9,1,0.773391857887,-,-
2019_Nov_05,216,001,1,source,11,BLIGHTED,LF,target,right,aqua,pleasantness,liberal,no,7,1,1.5198017116,-,-
2019_Nov_05,216,001,1,source,12,MOUTH,HF,target,left,yellow,imageability,liberal,no,1,1,1.87962836688,-,-
2019_Nov_05,216,001,1,source,13,SAYING,HF,target,right,aqua,pleasantness,conservative,no,8,1,1.01329890195,-,-
2019_Nov_05,216,001,1,source,14,MEETING,HF,target,left,yellow,imageability,liberal,yes,8,0,0.840129425635,-,-
2019_Nov_05,216,001,1,source,15,CALLED,HF,target,right,aqua,pleasantness,liberal,no,8,1,1.89305008095,-,-
2019_Nov_05,216,001,1,source,16,BESOTTED,LF,target,right,aqua,pleasantness,conservative,no,9,1,1.47979135872,-,-
2019_Nov_05,216,001,1,source,17,IDLING,LF,target,left,yellow,imageability,conservative,no,2,1,1.4129133819,-,-
2019_Nov_05,216,001,1,source,18,ENGULF,LF,target,left,yellow,imageability,liberal,no,1,1,1.07951882581,-,-
2019_Nov_05,216,001,1,source,19,GIRLS,HF,target,right,aqua,pleasantness,conservative,no,9,1,1.31964033282,-,-
2019_Nov_05,216,001,1,source,20,ALTHOUGH,HF,target,right,aqua,pleasantness,liberal,yes,9,1,0.759864195467,-,-
2019_Nov_05,216,001,1,source,21,PAVILIONS,LF,target,left,yellow,imageability,liberal,no,1,1,1.19987909423,-,-
2019_Nov_05,216,001,1,source,22,AGATE,LF,target,right,aqua,pleasantness,liberal,no,9,1,1.18634629936,-,-
2019_Nov_05,216,001,1,source,23,SHORT,HF,target,right,aqua,pleasantness,liberal,no,9,1,0.706780035077,-,-
2019_Nov_05,216,001,1,source,24,BROUGHT,HF,target,right,aqua,pleasantness,conservative,no,7,1,0.973105614017,-,-
2019_Nov_05,216,001,1,source,25,BARBARIAN,LF,target,left,yellow,imageability,liberal,no,1,1,0.853389834237,-,-
2019_Nov_05,216,001,1,source,26,LUXURIANT,LF,target,left,yellow,imageability,conservative,no,1,1,0.720221179114,-,-
2019_Nov_05,216,001,1,source,27,SWOOPING,LF,target,left,yellow,imageability,liberal,no,1,1,0.720125495648,-,-
2019_Nov_05,216,001,1,source,28,INVOLVED,HF,target,right,aqua,pleasantness,conservative,yes,1,0,0.7467401633,-,-
2019_Nov_05,216,001,1,source,29,ANOINTED,LF,target,right,aqua,pleasantness,conservative,no,8,1,1.49799211363,-,-
2019_Nov_05,216,001,1,source,30,ZIGZAG,LF,target,right,aqua,pleasantness,conservative,no,9,1,1.33320245595,-,-
2019_Nov_05,216,001,1,source,31,DOUBT,HF,target,left,yellow,imageability,conservative,no,7,0,1.19965399979,-,-
2019_Nov_05,216,001,1,source,32,MEANS,HF,target,left,yellow,imageability,conservative,no,7,0,0.99998790209,-,-
2019_Nov_05,216,001,1,source,33,LIQUEUR,LF,target,left,yellow,imageability,liberal,no,2,1,1.06636876481,-,-
2019_Nov_05,216,001,1,source,34,ENTIRELY,HF,target,right,aqua,pleasantness,liberal,no,8,1,0.959990013726,-,-
2019_Nov_05,216,001,1,source,35,SMALL,HF,target,left,yellow,imageability,liberal,no,8,0,1.27960578412,-,-
2019_Nov_05,216,001,1,source,36,MERELY,HF,target,left,yellow,imageability,liberal,no,8,0,0.693443006382,-,-
2019_Nov_05,216,001,1,source,37,HICKORY,LF,target,left,yellow,imageability,conservative,no,8,0,1.13299855118,-,-
2019_Nov_05,216,001,1,source,38,UNGAINLY,LF,target,right,aqua,pleasantness,liberal,no,8,1,2.07953825579,-,-
2019_Nov_05,216,001,1,source,39,LANGUAGE,HF,target,left,yellow,imageability,conservative,no,2,1,1.05332538537,-,-
2019_Nov_05,216,001,1,source,40,PAPER,HF,target,left,yellow,imageability,conservative,no,8,0,1.17324609641,-,-
2019_Nov_05,216,001,1,source,41,ICEBOX,LF,target,right,aqua,pleasantness,liberal,no,8,1,0.760091122921,-,-
2019_Nov_05,216,001,1,source,42,INLAID,LF,target,left,yellow,imageability,conservative,yes,8,0,0.719845777316,-,-
2019_Nov_05,216,001,1,source,43,VOICE,HF,target,left,yellow,imageability,liberal,no,8,0,1.18653693308,-,-
2019_Nov_05,216,001,1,source,44,ANSWER,HF,target,right,aqua,pleasantness,liberal,no,9,1,1.17324169717,-,-
2019_Nov_05,216,001,1,source,45,NORTH,HF,target,right,aqua,pleasantness,conservative,no,9,1,0.866458875906,-,-
2019_Nov_05,216,001,1,source,46,PUBLIC,HF,target,left,yellow,imageability,conservative,no,1,1,1.15970083703,-,-
2019_Nov_05,216,001,1,source,47,LETTER,HF,target,right,aqua,pleasantness,liberal,no,3,0,1.3331859588,-,-
2019_Nov_05,216,001,1,recog,0,BROUGHT,HF,target,right,aqua,pleasantness,conservative,no,z,1,1.46626149668,1,155
2019_Nov_05,216,001,1,recog,1,ANIMAL,HF,lure,-,-,-,conservative,no,m,1,2.91919293013,3,158
2019_Nov_05,216,001,1,recog,2,TREES,HF,lure,-,-,-,liberal,no,m,1,0.90647656085,1,159
2019_Nov_05,216,001,1,recog,3,BEQUEST,LF,lure,-,-,-,conservative,no,m,1,0.933361048544,3,162
2019_Nov_05,216,001,1,recog,4,WESTERN,HF,target,left,yellow,imageability,liberal,no,z,1,0.720106065672,3,165
2019_Nov_05,216,001,1,recog,5,IDLING,LF,target,left,yellow,imageability,conservative,no,z,1,0.720197349898,1,166
2019_Nov_05,216,001,1,recog,6,IDEAS,HF,lure,-,-,-,conservative,no,m,1,0.706797632036,3,169
2019_Nov_05,216,001,1,recog,7,FAKING,LF,lure,-,-,-,conservative,no,m,1,0.626550732033,3,172
2019_Nov_05,216,001,1,recog,8,LETTER,HF,target,right,aqua,pleasantness,liberal,no,z,1,0.733387370662,3,175
2019_Nov_05,216,001,1,recog,9,VAINLY,LF,lure,-,-,-,conservative,no,m,1,0.640122386852,3,178
2019_Nov_05,216,001,1,recog,10,HOEING,LF,target,right,aqua,pleasantness,conservative,no,z,1,0.826748037939,1,179
2019_Nov_05,216,001,1,recog,11,ALTHOUGH,HF,target,right,aqua,pleasantness,liberal,yes,z,1,0.720089201919,3,182
2019_Nov_05,216,001,1,recog,12,EVENING,HF,target,left,yellow,imageability,conservative,no,m,0,2.07954852068,-1,181
2019_Nov_05,216,001,1,recog,13,LANGUAGE,HF,target,left,yellow,imageability,conservative,no,z,1,1.27987047172,1,182
2019_Nov_05,216,001,1,recog,14,SLEEP,HF,lure,-,-,-,liberal,no,m,1,0.86644384517,1,183
2019_Nov_05,216,001,1,recog,15,AMICABLY,LF,lure,-,-,-,liberal,no,m,1,0.800105141831,1,184
2019_Nov_05,216,001,1,recog,16,PAVILIONS,LF,target,left,yellow,imageability,liberal,no,z,1,0.706501416555,3,187
2019_Nov_05,216,001,1,recog,17,PUBLIC,HF,target,left,yellow,imageability,conservative,no,z,1,0.613471792074,1,188
2019_Nov_05,216,001,1,recog,18,LIQUEUR,LF,target,left,yellow,imageability,liberal,no,z,1,0.760049330142,3,191
2019_Nov_05,216,001,1,recog,19,EITHER,HF,lure,-,-,-,conservative,no,m,1,0.773424118979,3,194
2019_Nov_05,216,001,1,recog,20,SHORT,HF,target,right,aqua,pleasantness,liberal,no,z,1,1.46645286361,3,197
2019_Nov_05,216,001,1,recog,21,BARBARIAN,LF,target,left,yellow,imageability,liberal,no,z,1,0.546780049741,3,200
2019_Nov_05,216,001,1,recog,22,ESTRANGED,LF,lure,-,-,-,liberal,no,m,1,0.826774433378,1,201
2019_Nov_05,216,001,1,recog,23,PELTED,LF,lure,-,-,-,liberal,no,m,1,0.733403501208,1,202
2019_Nov_05,216,001,1,recog,24,BIDDER,LF,lure,-,-,-,conservative,no,m,1,0.613487189414,3,205
2019_Nov_05,216,001,1,recog,25,ACROSS,HF,lure,-,-,-,liberal,no,m,1,0.506867579949,1,206
2019_Nov_05,216,001,1,recog,26,DOUBT,HF,target,left,yellow,imageability,conservative,no,z,1,0.626818719059,1,207
2019_Nov_05,216,001,1,recog,27,INMATE,LF,lure,-,-,-,conservative,no,m,1,0.880075256329,3,210
2019_Nov_05,216,001,1,recog,28,ANSWER,HF,target,right,aqua,pleasantness,liberal,no,z,1,1.38627231881,3,213
2019_Nov_05,216,001,1,recog,29,FATHER,HF,lure,-,-,-,liberal,no,m,1,0.813376181929,1,214
2019_Nov_05,216,001,1,recog,30,TIDILY,LF,lure,-,-,-,liberal,no,m,1,1.75973845053,1,215
2019_Nov_05,216,001,1,recog,31,CARRIED,HF,lure,-,-,-,liberal,no,m,1,0.653173464959,1,216
2019_Nov_05,216,001,1,recog,32,HUSBAND,HF,lure,-,-,-,conservative,no,m,1,0.733612098496,3,219
2019_Nov_05,216,001,1,recog,33,NUCLEAR,HF,lure,-,-,-,conservative,no,m,1,0.600102135684,3,222
2019_Nov_05,216,001,1,recog,34,BURGH,LF,lure,-,-,-,liberal,no,m,1,0.653515505854,1,223
2019_Nov_05,216,001,1,recog,35,PAPER,HF,target,left,yellow,imageability,conservative,no,z,1,0.600459207316,1,224
2019_Nov_05,216,001,1,recog,36,INLAID,LF,target,left,yellow,imageability,conservative,no,z,1,2.17277317813,1,225
2019_Nov_05,216,001,1,recog,37,REPORT,HF,lure,-,-,-,conservative,no,m,1,1.02661210143,3,228
2019_Nov_05,216,001,1,recog,38,PILGRIM,LF,lure,-,-,-,liberal,no,m,1,1.5464992316,1,229
2019_Nov_05,216,001,1,recog,39,SWOOPING,LF,target,left,yellow,imageability,liberal,no,z,1,0.76018607318,3,232
2019_Nov_05,216,001,1,recog,40,LOLLED,LF,lure,-,-,-,conservative,no,m,1,1.13324417541,3,235
2019_Nov_05,216,001,1,recog,41,ENTIRELY,HF,target,right,aqua,pleasantness,liberal,no,z,1,0.800123471997,3,238
2019_Nov_05,216,001,1,recog,42,DYNAMISM,LF,lure,-,-,-,conservative,yes,m,1,0.999972138148,3,241
2019_Nov_05,216,001,1,recog,43,BESOTTED,LF,target,right,aqua,pleasantness,conservative,no,m,0,1.02664362931,-1,240
2019_Nov_05,216,001,1,recog,44,UNGAINLY,LF,target,right,aqua,pleasantness,liberal,no,z,1,2.03968664215,3,243
2019_Nov_05,216,001,1,recog,45,ACCORDING,HF,lure,-,-,-,liberal,no,m,1,0.773399189953,1,244
2019_Nov_05,216,001,1,recog,46,MEANS,HF,target,left,yellow,imageability,conservative,no,z,1,0.760128516459,1,245
2019_Nov_05,216,001,1,recog,47,UNEARTHED,LF,lure,-,-,-,liberal,no,m,1,1.0933965944,1,246
2019_Nov_05,216,001,1,recog,48,HAVING,HF,lure,-,-,-,conservative,no,m,1,1.30650456934,3,249
2019_Nov_05,216,001,1,recog,49,OATHS,LF,target,left,yellow,imageability,liberal,no,z,1,0.719871806152,3,252
2019_Nov_05,216,001,1,recog,50,ANOINTED,LF,target,right,aqua,pleasantness,conservative,no,m,0,1.63946690012,-1,251
2019_Nov_05,216,001,1,recog,51,SAYING,HF,target,right,aqua,pleasantness,conservative,no,z,1,1.15989440358,1,252
2019_Nov_05,216,001,1,recog,52,SMALL,HF,target,left,yellow,imageability,liberal,no,z,1,1.25322427618,3,255
2019_Nov_05,216,001,1,recog,53,JUMBO,LF,target,left,yellow,imageability,conservative,no,z,1,0.626815786232,1,256
2019_Nov_05,216,001,1,recog,54,MUNCH,LF,target,right,aqua,pleasantness,conservative,no,z,1,0.573479402759,1,257
2019_Nov_05,216,001,1,recog,55,EAVES,LF,target,left,yellow,imageability,conservative,no,z,1,0.600161892025,1,258
2019_Nov_05,216,001,1,recog,56,MERELY,HF,target,left,yellow,imageability,liberal,no,z,1,1.58639703726,3,261
2019_Nov_05,216,001,1,recog,57,OVARIES,LF,lure,-,-,-,conservative,no,m,1,0.720097633795,3,264
2019_Nov_05,216,001,1,recog,58,GENERAL,HF,lure,-,-,-,liberal,no,m,1,1.65351147322,1,265
2019_Nov_05,216,001,1,recog,59,ENSCONCED,LF,lure,-,-,-,liberal,no,m,1,0.680170866474,1,266
2019_Nov_05,216,001,1,recog,60,CLASS,HF,lure,-,-,-,liberal,no,m,1,0.920021087023,1,267
2019_Nov_05,216,001,1,recog,61,NORTH,HF,target,right,aqua,pleasantness,conservative,no,z,1,0.613528982192,1,268
2019_Nov_05,216,001,1,recog,62,CADDIE,LF,lure,-,-,-,conservative,no,m,1,0.973340973346,3,271
2019_Nov_05,216,001,1,recog,63,GIRLS,HF,target,right,aqua,pleasantness,conservative,no,z,1,0.98670989653,1,272
2019_Nov_05,216,001,1,recog,64,DULLED,LF,lure,-,-,-,conservative,no,m,1,4.05208846578,3,275
2019_Nov_05,216,001,1,recog,65,ENGULF,LF,target,left,yellow,imageability,liberal,no,z,1,0.786500492715,3,278
2019_Nov_05,216,001,1,recog,66,ADHERE,LF,lure,-,-,-,liberal,no,m,1,1.47954976713,1,279
2019_Nov_05,216,001,1,recog,67,HARDLY,HF,lure,-,-,-,conservative,no,m,1,0.640124953075,3,282
2019_Nov_05,216,001,1,recog,68,ICEBOX,LF,target,right,aqua,pleasantness,liberal,no,z,1,0.680148870275,3,285
2019_Nov_05,216,001,1,recog,69,CHURCH,HF,lure,-,-,-,conservative,no,m,1,1.34622603881,3,288
2019_Nov_05,216,001,1,recog,70,ZIGZAG,LF,target,right,aqua,pleasantness,conservative,no,z,1,0.67987098496,1,289
2019_Nov_05,216,001,1,recog,71,INVOLVED,HF,target,right,aqua,pleasantness,conservative,no,m,0,1.66640417869,-1,288
2019_Nov_05,216,001,1,recog,72,SUDDENLY,HF,lure,-,-,-,liberal,no,m,1,1.87960343786,1,289
2019_Nov_05,216,001,1,recog,73,PONCE,LF,lure,-,-,-,conservative,no,m,1,0.92001522137,3,292
2019_Nov_05,216,001,1,recog,74,TOKENS,LF,target,right,aqua,pleasantness,liberal,no,z,1,0.680096446001,3,295
2019_Nov_05,216,001,1,recog,75,HICKORY,LF,target,left,yellow,imageability,conservative,no,z,1,0.57346840466,1,296
2019_Nov_05,216,001,1,recog,76,INSIDE,HF,lure,-,-,-,liberal,no,m,1,0.760135481922,1,297
2019_Nov_05,216,001,1,recog,77,CALLED,HF,target,right,aqua,pleasantness,liberal,no,m,0,0.680115875977,-3,294
2019_Nov_05,216,001,1,recog,78,TABLE,HF,lure,-,-,-,liberal,no,m,1,0.720274336595,1,295
2019_Nov_05,216,001,1,recog,79,BONANZA,LF,lure,-,-,-,liberal,no,m,1,0.813368849863,1,296
2019_Nov_05,216,001,1,recog,80,PEDALLING,LF,lure,-,-,-,liberal,no,m,1,0.653420555595,1,297
2019_Nov_05,216,001,1,recog,81,LUXURIANT,LF,target,left,yellow,imageability,conservative,yes,m,0,0.653232854696,-1,296
2019_Nov_05,216,001,1,recog,82,BEAUTIFUL,HF,lure,-,-,-,liberal,no,m,1,0.933420804885,1,297
2019_Nov_05,216,001,1,recog,83,VOICE,HF,target,left,yellow,imageability,liberal,no,z,1,0.693470135027,3,300
2019_Nov_05,216,001,1,recog,84,PUCKERED,LF,target,right,aqua,pleasantness,conservative,no,z,1,0.719834779217,1,301
2019_Nov_05,216,001,1,recog,85,BETTER,HF,lure,-,-,-,conservative,no,m,1,0.773364729241,3,304
2019_Nov_05,216,001,1,recog,86,UNDER,HF,lure,-,-,-,conservative,no,m,1,0.56025015544,3,307
2019_Nov_05,216,001,1,recog,87,BLIGHTED,LF,target,right,aqua,pleasantness,liberal,no,m,0,0.680170866474,-3,304
2019_Nov_05,216,001,1,recog,88,MEETING,HF,target,left,yellow,imageability,liberal,yes,m,0,0.626539367331,-3,301
2019_Nov_05,216,001,1,recog,89,HIGHER,HF,lure,-,-,-,conservative,no,m,1,0.813537853992,3,304
2019_Nov_05,216,001,1,recog,90,VEHEMENCE,LF,target,right,aqua,pleasantness,liberal,no,m,0,1.22654911898,-3,301
2019_Nov_05,216,001,1,recog,91,BILATERAL,LF,lure,-,-,-,liberal,no,m,1,1.75967759438,1,302
2019_Nov_05,216,001,1,recog,92,BASIC,HF,target,right,aqua,pleasantness,conservative,no,z,1,0.693469035218,1,303
2019_Nov_05,216,001,1,recog,93,FEIGNED,LF,lure,-,-,-,conservative,no,m,1,0.786827869477,3,306
2019_Nov_05,216,001,1,recog,94,AGATE,LF,target,right,aqua,pleasantness,liberal,no,z,1,0.906661695526,3,309
2019_Nov_05,216,001,1,recog,95,MOUTH,HF,target,left,yellow,imageability,liberal,no,z,1,0.586807999578,3,312
2019_Nov_05,216,001,2,source,0,LAMENT,LF,target,right,aqua,pleasantness,liberal,no,8,1,1.61304653223,-,-
2019_Nov_05,216,001,2,source,1,OBTAINS,LF,target,right,aqua,pleasantness,liberal,no,8,1,1.21325461627,-,-
2019_Nov_05,216,001,2,source,2,ENROLMENT,LF,target,right,aqua,pleasantness,conservative,no,8,1,0.919982593674,-,-
2019_Nov_05,216,001,2,source,3,CELLO,LF,target,left,yellow,imageability,liberal,no,1,1,1.01326957368,-,-
2019_Nov_05,216,001,2,source,4,UTTERANCE,LF,target,left,yellow,imageability,conservative,no,7,0,1.11995113911,-,-
2019_Nov_05,216,001,2,source,5,EUPHEMISM,LF,target,left,yellow,imageability,liberal,no,1,1,1.10657854989,-,-
2019_Nov_05,216,001,2,source,6,SENSE,HF,target,left,yellow,imageability,liberal,no,7,0,1.19966133186,-,-
2019_Nov_05,216,001,2,source,7,WALKED,HF,target,right,aqua,pleasantness,conservative,no,8,1,0.986366389221,-,-
2019_Nov_05,216,001,2,source,8,FINAL,HF,target,right,aqua,pleasantness,conservative,no,9,1,0.960101461134,-,-
2019_Nov_05,216,001,2,source,9,BATCHES,LF,target,right,aqua,pleasantness,conservative,no,9,1,0.760105053847,-,-
2019_Nov_05,216,001,2,source,10,ANVIL,LF,target,right,aqua,pleasantness,conservative,no,7,1,1.01326737406,-,-
2019_Nov_05,216,001,2,source,11,EARLIER,HF,target,right,aqua,pleasantness,liberal,no,7,1,1.26632227951,-,-
2019_Nov_05,216,001,2,source,12,MAKES,HF,target,right,aqua,pleasantness,liberal,no,7,1,0.759846965111,-,-
2019_Nov_05,216,001,2,source,13,WATCH,HF,target,left,yellow,imageability,conservative,no,7,0,0.959968750733,-,-
2019_Nov_05,216,001,2,source,14,DURING,HF,target,left,yellow,imageability,conservative,no,7,0,1.74612830236,-,-
2019_Nov_05,216,001,2,source,15,LICENSING,LF,target,right,aqua,pleasantness,liberal,no,3,0,1.03999825497,-,-
2019_Nov_05,216,001,2,source,16,WEIRDLY,LF,target,left,yellow,imageability,conservative,yes,3,1,0.972589436545,-,-
2019_Nov_05,216,001,2,source,17,SOLEMNITY,LF,target,left,yellow,imageability,conservative,no,2,1,1.09329064604,-,-
2019_Nov_05,216,001,2,source,18,KEENER,LF,target,right,aqua,pleasantness,conservative,no,9,1,0.919946666549,-,-
2019_Nov_05,216,001,2,source,19,EVIDENCE,HF,target,right,aqua,pleasantness,liberal,no,8,1,1.06658029492,-,-
2019_Nov_05,216,001,2,source,20,NUANCE,LF,target,left,yellow,imageability,liberal,no,7,0,1.11979239987,-,-
2019_Nov_05,216,001,2,source,21,GAUCHE,LF,target,left,yellow,imageability,conservative,no,2,1,1.10680694376,-,-
2019_Nov_05,216,001,2,source,22,POSITION,HF,target,right,aqua,pleasantness,liberal,no,3,0,1.73302626639,-,-
2019_Nov_05,216,001,2,source,23,YEOMAN,LF,target,left,yellow,imageability,liberal,yes,3,1,0.733308184346,-,-
2019_Nov_05,216,001,2,source,24,ALONE,HF,target,right,aqua,pleasantness,conservative,no,9,1,0.85338360198,-,-
2019_Nov_05,216,001,2,source,25,SODDING,LF,target,left,yellow,imageability,conservative,no,1,1,0.920028785692,-,-
2019_Nov_05,216,001,2,source,26,KNOWLEDGE,HF,target,right,aqua,pleasantness,liberal,no,8,1,0.853405231576,-,-
2019_Nov_05,216,001,2,source,27,REACHED,HF,target,left,yellow,imageability,liberal,no,2,1,1.42624271193,-,-
2019_Nov_05,216,001,2,source,28,OFTEN,HF,target,right,aqua,pleasantness,liberal,no,8,1,1.05333455046,-,-
2019_Nov_05,216,001,2,source,29,HOURS,HF,target,left,yellow,imageability,liberal,no,2,1,0.786472630863,-,-
2019_Nov_05,216,001,2,source,30,UNVEILED,LF,target,left,yellow,imageability,liberal,no,7,0,1.15967114216,-,-
2019_Nov_05,216,001,2,source,31,JAUNDICE,LF,target,right,aqua,pleasantness,liberal,yes,7,1,0.693470135027,-,-
2019_Nov_05,216,001,2,source,32,SIMILAR,HF,target,left,yellow,imageability,conservative,no,7,0,0.893107637667,-,-
2019_Nov_05,216,001,2,source,33,FREEDOM,HF,target,right,aqua,pleasantness,conservative,no,7,1,0.759826801929,-,-
2019_Nov_05,216,001,2,source,34,FICKLE,LF,target,right,aqua,pleasantness,conservative,no,7,1,0.800080579409,-,-
2019_Nov_05,216,001,2,source,35,CHOICE,HF,target,left,yellow,imageability,conservative,no,7,0,1.14659073579,-,-
2019_Nov_05,216,001,2,source,36,ENERGY,HF,target,left,yellow,imageability,conservative,no,2,1,1.0799598496,-,-
2019_Nov_05,216,001,2,source,37,ENMESHED,LF,target,right,aqua,pleasantness,conservative,no,7,1,0.853349141268,-,-
2019_Nov_05,216,001,2,source,38,FOLLOWED,HF,target,left,yellow,imageability,liberal,no,8,0,0.800042819267,-,-
2019_Nov_05,216,001,2,source,39,SPACE,HF,target,left,yellow,imageability,conservative,yes,8,0,0.813120659417,-,-
2019_Nov_05,216,001,2,source,40,EGOISM,LF,target,right,aqua,pleasantness,liberal,no,9,1,1.01333519568,-,-
2019_Nov_05,216,001,2,source,41,HOVELS,LF,target,right,aqua,pleasantness,liberal,no,9,1,0.840136757701,-,-
2019_Nov_05,216,001,2,source,42,USUAL,HF,target,right,aqua,pleasantness,conservative,no,9,1,0.773350065109,-,-
2019_Nov_05,216,001,2,source,43,POTASH,LF,target,left,yellow,imageability,conservative,no,1,1,0.866834277704,-,-
2019_Nov_05,216,001,2,source,44,TALKING,HF,target,left,yellow,imageability,liberal,no,8,0,0.946435955867,-,-
2019_Nov_05,216,001,2,source,45,NEMESIS,LF,target,left,yellow,imageability,liberal,no,2,1,1.50644561953,-,-
2019_Nov_05,216,001,2,source,46,EASILY,HF,target,left,yellow,imageability,liberal,no,7,0,1.01335865829,-,-
2019_Nov_05,216,001,2,source,47,CAPITAL,HF,target,right,aqua,pleasantness,conservative,no,9,1,0.733406434035,-,-
2019_Nov_05,216,001,2,recog,0,NATIONAL,HF,lure,-,-,-,conservative,no,m,1,1.97297437003,3,315
2019_Nov_05,216,001,2,recog,1,FICKLE,LF,target,right,aqua,pleasantness,conservative,yes,m,0,0.706783334507,-1,314
2019_Nov_05,216,001,2,recog,2,ENROLMENT,LF,target,right,aqua,pleasantness,conservative,no,m,0,0.826728607963,-1,313
2019_Nov_05,216,001,2,recog,3,BLACK,HF,lure,-,-,-,liberal,no,m,1,0.746770591375,1,314
2019_Nov_05,216,001,2,recog,4,AREAS,HF,lure,-,-,-,conservative,no,m,1,0.693540156261,3,317
2019_Nov_05,216,001,2,recog,5,INDEED,HF,lure,-,-,-,liberal,no,m,1,0.893318067971,1,318
2019_Nov_05,216,001,2,recog,6,HEALTH,HF,lure,-,-,-,conservative,no,m,1,0.680126874076,3,321
2019_Nov_05,216,001,2,recog,7,PREPARED,HF,lure,-,-,-,conservative,yes,m,1,1.2129708653,3,324
2019_Nov_05,216,001,2,recog,8,WRITE,HF,lure,-,-,-,liberal,no,m,1,0.852045133267,1,325
2019_Nov_05,216,001,2,recog,9,MELODIC,LF,lure,-,-,-,conservative,no,m,1,0.640120187231,3,328
2019_Nov_05,216,001,2,recog,10,NEMESIS,LF,target,left,yellow,imageability,liberal,no,z,1,0.653494609465,3,331
2019_Nov_05,216,001,2,recog,11,CELLO,LF,target,left,yellow,imageability,liberal,no,z,1,0.733466190376,3,334
2019_Nov_05,216,001,2,recog,12,BATCHES,LF,target,right,aqua,pleasantness,conservative,no,z,1,0.693420276976,1,335
2019_Nov_05,216,001,2,recog,13,EGGSHELL,LF,lure,-,-,-,conservative,no,m,1,0.666786179348,3,338
2019_Nov_05,216,001,2,recog,14,SUCCESS,HF,lure,-,-,-,liberal,no,m,1,0.906437334295,1,339
2019_Nov_05,216,001,2,recog,15,LICENSING,LF,target,right,aqua,pleasantness,liberal,no,m,0,0.773418986532,-3,336
2019_Nov_05,216,001,2,recog,16,WATCH,HF,target,left,yellow,imageability,conservative,no,z,1,0.866675171863,1,337
2019_Nov_05,216,001,2,recog,17,EASILY,HF,target,left,yellow,imageability,liberal,no,z,1,0.973438123226,3,340
2019_Nov_05,216,001,2,recog,18,GROUND,HF,lure,-,-,-,liberal,no,m,1,0.653188495695,1,341
2019_Nov_05,216,001,2,recog,19,TOLERABLY,LF,lure,-,-,-,conservative,no,m,1,1.27986570587,3,344
2019_Nov_05,216,001,2,recog,20,OFTEN,HF,target,right,aqua,pleasantness,liberal,no,z,1,0.733410466671,3,347
2019_Nov_05,216,001,2,recog,21,UNVEILED,LF,target,left,yellow,imageability,liberal,no,z,1,0.706738242298,3,350
2019_Nov_05,216,001,2,recog,22,FINAL,HF,target,right,aqua,pleasantness,conservative,no,z,1,0.973360403322,1,351
2019_Nov_05,216,001,2,recog,23,FOLLOWED,HF,target,left,yellow,imageability,liberal,no,z,1,0.853339609582,3,354
2019_Nov_05,216,001,2,recog,24,RUNNING,HF,lure,-,-,-,liberal,no,m,1,0.773322203257,1,355
2019_Nov_05,216,001,2,recog,25,HOURS,HF,target,left,yellow,imageability,liberal,no,z,1,0.560134675395,3,358
2019_Nov_05,216,001,2,recog,26,DARKEN,LF,lure,-,-,-,conservative,no,m,1,1.67984348971,3,361
2019_Nov_05,216,001,2,recog,27,GIVEN,HF,lure,-,-,-,conservative,no,m,1,1.13322804486,3,364
2019_Nov_05,216,001,2,recog,28,CAPITAL,HF,target,right,aqua,pleasantness,conservative,no,z,1,0.639811873842,1,365
2019_Nov_05,216,001,2,recog,29,USUAL,HF,target,right,aqua,pleasantness,conservative,no,z,1,0.573492967082,1,366
2019_Nov_05,216,001,2,recog,30,CHOICE,HF,target,left,yellow,imageability,conservative,no,z,1,0.560122944089,1,367
2019_Nov_05,216,001,2,recog,31,WEIRDLY,LF,target,left,yellow,imageability,conservative,no,z,1,0.600162625231,1,368
2019_Nov_05,216,001,2,recog,32,UNKEMPT,LF,lure,-,-,-,liberal,no,m,1,0.599318704395,1,369
2019_Nov_05,216,001,2,recog,33,DECIDED,HF,lure,-,-,-,liberal,yes,m,1,0.533474915534,1,370
2019_Nov_05,216,001,2,recog,34,RIVER,HF,lure,-,-,-,conservative,no,m,1,2.02622056909,3,373
2019_Nov_05,216,001,2,recog,35,EGOISM,LF,target,right,aqua,pleasantness,liberal,no,z,1,0.653237620539,3,376
2019_Nov_05,216,001,2,recog,36,SPACE,HF,target,left,yellow,imageability,conservative,no,m,0,0.86674445989,-1,375
2019_Nov_05,216,001,2,recog,37,ALONE,HF,target,right,aqua,pleasantness,conservative,no,z,1,0.746806151897,1,376
2019_Nov_05,216,001,2,recog,38,DURING,HF,target,left,yellow,imageability,conservative,no,z,1,0.573327262382,1,377
2019_Nov_05,216,001,2,recog,39,DUCHY,LF,lure,-,-,-,liberal,no,m,1,0.839387787124,1,378
2019_Nov_05,216,001,2,recog,40,KEENER,LF,target,right,aqua,pleasantness,conservative,no,z,1,1.31959120797,1,379
2019_Nov_05,216,001,2,recog,41,YEOMAN,LF,target,left,yellow,imageability,liberal,no,z,1,1.37331509115,3,382
2019_Nov_05,216,001,2,recog,42,SYMBOLIZE,LF,lure,-,-,-,liberal,no,m,1,1.21321209028,1,383
2019_Nov_05,216,001,2,recog,43,PULSAR,LF,lure,-,-,-,liberal,no,z,0,1.03956089721,-1,382
2019_Nov_05,216,001,2,recog,44,TADPOLES,LF,lure,-,-,-,liberal,no,m,1,0.720089201919,1,383
2019_Nov_05,216,001,2,recog,45,SAGES,LF,lure,-,-,-,conservative,no,m,1,1.31986396084,3,386
2019_Nov_05,216,001,2,recog,46,FLYWHEEL,LF,lure,-,-,-,liberal,no,m,1,0.706568138359,1,387
2019_Nov_05,216,001,2,recog,47,WHITE,HF,lure,-,-,-,conservative,no,m,1,0.573524861571,3,390
2019_Nov_05,216,001,2,recog,48,EVIDENCE,HF,target,right,aqua,pleasantness,liberal,no,z,1,0.680126874076,3,393
2019_Nov_05,216,001,2,recog,49,EUPHEMISM,LF,target,left,yellow,imageability,liberal,no,z,1,0.653468214026,3,396
2019_Nov_05,216,001,2,recog,50,TEETERED,LF,lure,-,-,-,conservative,no,m,1,0.706744841159,3,399
2019_Nov_05,216,001,2,recog,51,PISTONS,LF,lure,-,-,-,conservative,yes,m,1,0.920072411487,3,402
2019_Nov_05,216,001,2,recog,52,POTASH,LF,target,left,yellow,imageability,conservative,no,z,1,0.720049242158,1,403
2019_Nov_05,216,001,2,recog,53,GAUCHE,LF,target,left,yellow,imageability,conservative,no,z,1,0.773412387673,1,404
2019_Nov_05,216,001,2,recog,54,EARLIER,HF,target,right,aqua,pleasantness,liberal,no,z,1,0.773458946294,3,407
2019_Nov_05,216,001,2,recog,55,FIELD,HF,lure,-,-,-,liberal,no,m,1,0.680165734027,1,408
2019_Nov_05,216,001,2,recog,56,POSITION,HF,target,right,aqua,pleasantness,liberal,no,m,0,0.760057762019,-3,405
2019_Nov_05,216,001,2,recog,57,JAUNDICE,LF,target,right,aqua,pleasantness,liberal,no,z,1,0.666774814646,3,408
2019_Nov_05,216,001,2,recog,58,LARGE,HF,lure,-,-,-,conservative,no,m,1,0.906659862509,3,411
2019_Nov_05,216,001,2,recog,59,MAKES,HF,target,right,aqua,pleasantness,liberal,no,m,0,0.933409806785,-3,408
2019_Nov_05,216,001,2,recog,60,DOING,HF,lure,-,-,-,liberal,no,m,1,1.50617946552,1,409
2019_Nov_05,216,001,2,recog,61,SODDING,LF,target,left,yellow,imageability,conservative,no,z,1,0.840030809343,1,410
2019_Nov_05,216,001,2,recog,62,REACHED,HF,target,left,yellow,imageability,liberal,no,z,1,1.74643734896,3,413
2019_Nov_05,216,001,2,recog,63,MORNING,HF,lure,-,-,-,liberal,no,m,1,0.760146846625,1,414
2019_Nov_05,216,001,2,recog,64,UTTERANCE,LF,target,left,yellow,imageability,conservative,no,z,1,1.11974804087,1,415
2019_Nov_05,216,001,2,recog,65,FREEDOM,HF,target,right,aqua,pleasantness,conservative,no,z,1,0.599914801389,1,416
2019_Nov_05,216,001,2,recog,66,TALKING,HF,target,left,yellow,imageability,liberal,no,z,1,0.640106256306,3,419
2019_Nov_05,216,001,2,recog,67,FISHY,LF,lure,-,-,-,liberal,no,m,1,0.546647705943,1,420
2019_Nov_05,216,001,2,recog,68,SIMILAR,HF,target,left,yellow,imageability,conservative,no,z,1,0.720071238356,1,421
2019_Nov_05,216,001,2,recog,69,PLACE,HF,lure,-,-,-,liberal,no,m,1,0.680127240679,1,422
2019_Nov_05,216,001,2,recog,70,SNAGS,LF,lure,-,-,-,liberal,no,m,1,0.493544848784,1,423
2019_Nov_05,216,001,2,recog,71,TRADE,HF,lure,-,-,-,conservative,no,m,1,0.453515432534,3,426
2019_Nov_05,216,001,2,recog,72,FLECKED,LF,lure,-,-,-,conservative,no,z,0,0.600108001338,-3,423
2019_Nov_05,216,001,2,recog,73,ENMESHED,LF,target,right,aqua,pleasantness,conservative,no,m,0,0.799805626921,-1,422
2019_Nov_05,216,001,2,recog,74,SULKED,LF,lure,-,-,-,liberal,no,m,1,0.919792693156,1,423
2019_Nov_05,216,001,2,recog,75,AVOCADO,LF,lure,-,-,-,conservative,no,m,1,0.560096915253,3,426
2019_Nov_05,216,001,2,recog,76,HOVELS,LF,target,right,aqua,pleasantness,liberal,no,z,1,0.666690129279,3,429
2019_Nov_05,216,001,2,recog,77,LOVELIEST,LF,lure,-,-,-,liberal,no,m,1,0.653558398442,1,430
2019_Nov_05,216,001,2,recog,78,SENSE,HF,target,left,yellow,imageability,liberal,no,z,1,0.613494888084,3,433
2019_Nov_05,216,001,2,recog,79,LAMENT,LF,target,right,aqua,pleasantness,liberal,no,z,1,0.813138256376,3,436
2019_Nov_05,216,001,2,recog,80,BOWER,LF,lure,-,-,-,liberal,no,m,1,0.880110450247,1,437
2019_Nov_05,216,001,2,recog,81,CASES,HF,lure,-,-,-,conservative,no,m,1,0.680063085099,3,440
2019_Nov_05,216,001,2,recog,82,ASTERN,LF,lure,-,-,-,conservative,no,m,1,0.573873134722,3,443
2019_Nov_05,216,001,2,recog,83,NUANCE,LF,target,left,yellow,imageability,liberal,no,z,1,0.626829717158,3,446
2019_Nov_05,216,001,2,recog,84,ENERGY,HF,target,left,yellow,imageability,conservative,no,z,1,0.560182333826,1,447
2019_Nov_05,216,001,2,recog,85,IMPORTANT,HF,lure,-,-,-,liberal,no,m,1,0.693443006382,1,448
2019_Nov_05,216,001,2,recog,86,ANVIL,LF,target,right,aqua,pleasantness,conservative,no,z,1,0.506896541611,1,449
2019_Nov_05,216,001,2,recog,87,FLOOR,HF,lure,-,-,-,conservative,no,m,1,0.600114233594,3,452
2019_Nov_05,216,001,2,recog,88,WALKED,HF,target,right,aqua,pleasantness,conservative,no,z,1,0.640130818728,1,453
2019_Nov_05,216,001,2,recog,89,DEVELOPED,HF,lure,-,-,-,conservative,no,m,1,0.586035199784,3,456
2019_Nov_05,216,001,2,recog,90,SOLEMNITY,LF,target,left,yellow,imageability,conservative,no,z,1,0.813426773187,1,457
2019_Nov_05,216,001,2,recog,91,VERBALLY,LF,lure,-,-,-,liberal,no,m,1,0.68019139626,1,458
2019_Nov_05,216,001,2,recog,92,QUOTAS,LF,lure,-,-,-,conservative,no,m,1,0.706908712841,3,461
2019_Nov_05,216,001,2,recog,93,ENHANCES,LF,lure,-,-,-,conservative,no,z,0,0.640168212266,-3,458
2019_Nov_05,216,001,2,recog,94,KNOWLEDGE,HF,target,right,aqua,pleasantness,liberal,no,z,1,0.77340212278,3,461
2019_Nov_05,216,001,2,recog,95,OBTAINS,LF,target,right,aqua,pleasantness,liberal,no,z,1,0.680244553741,3,464
2019_Nov_05,216,001,3,source,0,SITTING,HF,target,left,yellow,imageability,liberal,no,2,1,2.02627006053,-,-
2019_Nov_05,216,001,3,source,1,SLOWLY,HF,target,right,aqua,pleasantness,liberal,no,8,1,1.06661658865,-,-
2019_Nov_05,216,001,3,source,2,DERANGED,LF,target,right,aqua,pleasantness,conservative,yes,8,1,0.573520462331,-,-
2019_Nov_05,216,001,3,source,3,BUMBLING,LF,target,left,yellow,imageability,liberal,no,8,0,1.30624941343,-,-
2019_Nov_05,216,001,3,source,4,SUFFERER,LF,target,left,yellow,imageability,conservative,no,2,1,0.706791033176,-,-
2019_Nov_05,216,001,3,source,5,SEPULCHRE,LF,target,left,yellow,imageability,liberal,no,2,1,1.54641564604,-,-
2019_Nov_05,216,001,3,source,6,WINDOW,HF,target,right,aqua,pleasantness,conservative,no,9,1,1.15986874135,-,-
2019_Nov_05,216,001,3,source,7,PSALMS,LF,target,right,aqua,pleasantness,conservative,no,9,1,0.813210477229,-,-
2019_Nov_05,216,001,3,source,8,UNRAVEL,LF,target,left,yellow,imageability,liberal,no,7,0,0.880306583023,-,-
2019_Nov_05,216,001,3,source,9,OLDER,HF,target,left,yellow,imageability,conservative,no,7,0,0.921901762042,-,-
2019_Nov_05,216,001,3,source,10,GUARDSMEN,LF,target,right,aqua,pleasantness,liberal,no,9,1,0.92001962061,-,-
2019_Nov_05,216,001,3,source,11,DAYBREAK,LF,target,left,yellow,imageability,conservative,no,1,1,0.826710277797,-,-
2019_Nov_05,216,001,3,source,12,AROUND,HF,target,right,aqua,pleasantness,liberal,no,8,1,0.84010559642,-,-
2019_Nov_05,216,001,3,source,13,RAVAGES,LF,target,right,aqua,pleasantness,liberal,no,8,1,0.906662795336,-,-
2019_Nov_05,216,001,3,source,14,WANTED,HF,target,left,yellow,imageability,liberal,no,7,0,0.760038698646,-,-
2019_Nov_05,216,001,3,source,15,DEMEANOUR,LF,target,right,aqua,pleasantness,conservative,no,9,1,1.09326498381,-,-
2019_Nov_05,216,001,3,source,16,SIGNPOST,LF,target,right,aqua,pleasantness,liberal,no,9,1,0.826725308533,-,-
2019_Nov_05,216,001,3,source,17,ROUND,HF,target,left,yellow,imageability,liberal,no,1,1,1.61310298914,-,-
2019_Nov_05,216,001,3,source,18,LATER,HF,target,right,aqua,pleasantness,liberal,no,7,1,0.85330074963,-,-
2019_Nov_05,216,001,3,source,19,POWER,HF,target,right,aqua,pleasantness,conservative,no,7,1,0.853342175805,-,-
2019_Nov_05,216,001,3,source,20,OFFER,HF,target,left,yellow,imageability,liberal,yes,7,0,0.680099745431,-,-
2019_Nov_05,216,001,3,source,21,HISTORY,HF,target,right,aqua,pleasantness,conservative,no,7,1,0.721791707726,-,-
2019_Nov_05,216,001,3,source,22,INTEREST,HF,target,left,yellow,imageability,liberal,no,7,0,0.626760795734,-,-
2019_Nov_05,216,001,3,source,23,BUDDIES,LF,target,right,aqua,pleasantness,liberal,yes,7,1,0.520196909974,-,-
2019_Nov_05,216,001,3,source,24,QUESTION,HF,target,right,aqua,pleasantness,liberal,no,7,1,0.63991342296,-,-
2019_Nov_05,216,001,3,source,25,EATERS,LF,target,left,yellow,imageability,conservative,no,2,1,0.906400673964,-,-
2019_Nov_05,216,001,3,source,26,SNEAKED,LF,target,left,yellow,imageability,liberal,no,2,1,0.707043622862,-,-
2019_Nov_05,216,001,3,source,27,CUISINE,LF,target,left,yellow,imageability,conservative,no,8,0,0.680048420966,-,-
2019_Nov_05,216,001,3,source,28,OUGHT,HF,target,left,yellow,imageability,conservative,no,2,1,0.853328244879,-,-
2019_Nov_05,216,001,3,source,29,PHYSICAL,HF,target,right,aqua,pleasantness,liberal,no,8,1,0.733389570282,-,-
2019_Nov_05,216,001,3,source,30,NOTHING,HF,target,left,yellow,imageability,conservative,no,2,1,0.973080684991,-,-
2019_Nov_05,216,001,3,source,31,LIKELY,HF,target,left,yellow,imageability,liberal,no,2,1,1.02662823197,-,-
2019_Nov_05,216,001,3,source,32,HOPPER,LF,target,left,yellow,imageability,conservative,no,1,1,0.693454004482,-,-
2019_Nov_05,216,001,3,source,33,HYDRAULIC,LF,target,right,aqua,pleasantness,liberal,no,9,1,0.813420174327,-,-
2019_Nov_05,216,001,3,source,34,ADDED,HF,target,left,yellow,imageability,conservative,no,1,1,1.10662767474,-,-
2019_Nov_05,216,001,3,source,35,AHEAD,HF,target,left,yellow,imageability,conservative,no,8,0,0.880104584594,-,-
2019_Nov_05,216,001,3,source,36,PIECE,HF,target,right,aqua,pleasantness,conservative,no,8,1,0.866726862932,-,-
2019_Nov_05,216,001,3,source,37,ABOVE,HF,target,right,aqua,pleasantness,liberal,no,8,1,0.773476909857,-,-
2019_Nov_05,216,001,3,source,38,LONGER,HF,target,right,aqua,pleasantness,conservative,no,9,1,0.8799836055,-,-
2019_Nov_05,216,001,3,source,39,ELATION,LF,target,right,aqua,pleasantness,conservative,no,8,1,0.986410381619,-,-
2019_Nov_05,216,001,3,source,40,DUNGEON,LF,target,left,yellow,imageability,liberal,yes,8,0,0.613458594355,-,-
2019_Nov_05,216,001,3,source,41,OVENS,LF,target,right,aqua,pleasantness,liberal,no,9,1,0.760056295605,-,-
2019_Nov_05,216,001,3,source,42,RATHER,HF,target,left,yellow,imageability,conservative,no,7,0,0.786859763966,-,-
2019_Nov_05,216,001,3,source,43,AGNOSTIC,LF,target,left,yellow,imageability,conservative,no,7,0,1.46649722261,-,-
2019_Nov_05,216,001,3,source,44,KOSHER,LF,target,right,aqua,pleasantness,conservative,no,9,1,1.03974089944,-,-
2019_Nov_05,216,001,3,source,45,GRUBS,LF,target,left,yellow,imageability,liberal,no,2,1,1.39996531933,-,-
2019_Nov_05,216,001,3,source,46,OTHERS,HF,target,right,aqua,pleasantness,conservative,no,2,0,0.760085623871,-,-
2019_Nov_05,216,001,3,source,47,REIGNING,LF,target,right,aqua,pleasantness,conservative,no,2,0,0.999928145749,-,-
2019_Nov_05,216,001,3,recog,0,BUBBLED,LF,lure,-,-,-,conservative,no,z,0,1.22654838577,-3,461
2019_Nov_05,216,001,3,recog,1,HASSLE,LF,lure,-,-,-,liberal,no,m,1,0.720140892987,1,462
2019_Nov_05,216,001,3,recog,2,KOSHER,LF,target,right,aqua,pleasantness,conservative,no,z,1,0.613428899486,1,463
2019_Nov_05,216,001,3,recog,3,AHEAD,HF,target,left,yellow,imageability,conservative,no,m,0,0.746758860069,-1,462
2019_Nov_05,216,001,3,recog,4,KITCHEN,HF,lure,-,-,-,liberal,no,m,1,1.41321289681,1,463
2019_Nov_05,216,001,3,recog,5,SITTING,HF,target,left,yellow,imageability,liberal,no,z,1,0.746739430093,3,466
2019_Nov_05,216,001,3,recog,6,SINCE,HF,lure,-,-,-,liberal,yes,z,0,1.06661695526,-1,465
2019_Nov_05,216,001,3,recog,7,REWRITE,LF,lure,-,-,-,conservative,no,m,1,1.87967859154,3,468
2019_Nov_05,216,001,3,recog,8,TODAY,HF,lure,-,-,-,liberal,no,m,1,0.680147037258,1,469
2019_Nov_05,216,001,3,recog,9,BIRCHES,LF,lure,-,-,-,conservative,no,m,1,0.600056310269,3,472
2019_Nov_05,216,001,3,recog,10,HIMSELF,HF,lure,-,-,-,conservative,yes,m,1,0.826744371906,3,475
2019_Nov_05,216,001,3,recog,11,DEGREE,HF,lure,-,-,-,liberal,no,m,1,1.46643599986,1,476
2019_Nov_05,216,001,3,recog,12,GUARDSMEN,LF,target,right,aqua,pleasantness,liberal,no,z,1,0.666544954365,3,479
2019_Nov_05,216,001,3,recog,13,WHOLE,HF,lure,-,-,-,conservative,no,m,1,0.693371152131,3,482
2019_Nov_05,216,001,3,recog,14,SIGNPOST,LF,target,right,aqua,pleasantness,liberal,no,z,1,0.613439164379,3,485
2019_Nov_05,216,001,3,recog,15,REIGNING,LF,target,right,aqua,pleasantness,conservative,no,z,1,0.693400113794,1,486
2019_Nov_05,216,001,3,recog,16,MILES,HF,lure,-,-,-,conservative,no,m,1,0.720128795077,3,489
2019_Nov_05,216,001,3,recog,17,ALKALINE,LF,lure,-,-,-,liberal,no,m,1,0.773410554656,1,490
2019_Nov_05,216,001,3,recog,18,ROBBERIES,LF,lure,-,-,-,conservative,no,m,1,0.773381959597,3,493
2019_Nov_05,216,001,3,recog,19,PALATABLE,LF,lure,-,-,-,liberal,no,m,1,0.57346290561,1,494
2019_Nov_05,216,001,3,recog,20,TIPSY,LF,lure,-,-,-,conservative,no,m,1,0.480229083081,3,497
2019_Nov_05,216,001,3,recog,21,AROUND,HF,target,right,aqua,pleasantness,liberal,no,z,1,0.640348214496,3,500
2019_Nov_05,216,001,3,recog,22,FEELING,HF,lure,-,-,-,liberal,no,m,1,0.760029533563,1,501
2019_Nov_05,216,001,3,recog,23,DERANGED,LF,target,right,aqua,pleasantness,conservative,no,z,1,0.786784243683,1,502
2019_Nov_05,216,001,3,recog,24,HOPPER,LF,target,left,yellow,imageability,conservative,no,z,1,0.534638881068,1,503
2019_Nov_05,216,001,3,recog,25,ELATION,LF,target,right,aqua,pleasantness,conservative,yes,m,0,0.573496999718,-1,502
2019_Nov_05,216,001,3,recog,26,WANTED,HF,target,left,yellow,imageability,liberal,no,z,1,1.22656561613,3,505
2019_Nov_05,216,001,3,recog,27,UNRAVEL,LF,target,left,yellow,imageability,liberal,no,z,1,0.600197452547,3,508
2019_Nov_05,216,001,3,recog,28,TETHER,LF,lure,-,-,-,liberal,yes,m,1,0.533559967504,1,509
2019_Nov_05,216,001,3,recog,29,BALDING,LF,lure,-,-,-,conservative,no,m,1,0.760167376411,3,512
2019_Nov_05,216,001,3,recog,30,ABOVE,HF,target,right,aqua,pleasantness,liberal,no,z,1,0.560150072734,3,515
2019_Nov_05,216,001,3,recog,31,WINDOW,HF,target,right,aqua,pleasantness,conservative,no,z,1,0.68049970965,1,516
2019_Nov_05,216,001,3,recog,32,EDUCATION,HF,lure,-,-,-,liberal,no,m,1,0.640210738251,1,517
2019_Nov_05,216,001,3,recog,33,LATER,HF,target,right,aqua,pleasantness,liberal,no,z,1,0.600252443045,3,520
2019_Nov_05,216,001,3,recog,34,HYDRAULIC,LF,target,right,aqua,pleasantness,liberal,no,z,1,0.560211295488,3,523
2019_Nov_05,216,001,3,recog,35,SNEAKED,LF,target,left,yellow,imageability,liberal,no,z,1,0.626784991553,3,526
2019_Nov_05,216,001,3,recog,36,ADDED,HF,target,left,yellow,imageability,conservative,no,z,1,0.733479388095,1,527
2019_Nov_05,216,001,3,recog,37,GLASS,HF,lure,-,-,-,conservative,no,m,1,0.693501662913,3,530
2019_Nov_05,216,001,3,recog,38,POWER,HF,target,right,aqua,pleasantness,conservative,no,z,1,0.666934287088,1,531
2019_Nov_05,216,001,3,recog,39,BACHELORS,LF,lure,-,-,-,conservative,no,m,1,0.733219099739,3,534
2019_Nov_05,216,001,3,recog,40,SEPULCHRE,LF,target,left,yellow,imageability,liberal,no,z,1,1.54618798538,3,537
2019_Nov_05,216,001,3,recog,41,DAYBREAK,LF,target,left,yellow,imageability,conservative,no,z,1,0.640102956876,1,538
2019_Nov_05,216,001,3,recog,42,FUTURE,HF,lure,-,-,-,conservative,no,m,1,0.693442273175,3,541
2019_Nov_05,216,001,3,recog,43,CINDER,LF,lure,-,-,-,liberal,no,m,1,0.746744929143,1,542
2019_Nov_05,216,001,3,recog,44,HISTORY,HF,target,right,aqua,pleasantness,conservative,no,z,1,0.693684964571,1,543
2019_Nov_05,216,001,3,recog,45,EYEBALL,LF,lure,-,-,-,conservative,no,m,1,0.653429720678,3,546
2019_Nov_05,216,001,3,recog,46,GESTURING,LF,lure,-,-,-,liberal,no,z,0,0.653390860726,-1,545
2019_Nov_05,216,001,3,recog,47,DUNGEON,LF,target,left,yellow,imageability,liberal,no,z,1,0.626782791933,3,548
2019_Nov_05,216,001,3,recog,48,PIECE,HF,target,right,aqua,pleasantness,conservative,no,z,1,0.666754651463,1,549
2019_Nov_05,216,001,3,recog,49,EXCEPT,HF,lure,-,-,-,conservative,no,m,1,0.653264382582,3,552
2019_Nov_05,216,001,3,recog,50,COERCION,LF,lure,-,-,-,conservative,no,m,1,0.680088014125,3,555
2019_Nov_05,216,001,3,recog,51,OVENS,LF,target,right,aqua,pleasantness,liberal,no,z,1,0.600164824852,3,558
2019_Nov_05,216,001,3,recog,52,LIKELY,HF,target,left,yellow,imageability,liberal,no,z,1,0.680127973886,3,561
2019_Nov_05,216,001,3,recog,53,SECOND,HF,lure,-,-,-,liberal,no,m,1,0.613467392835,1,562
2019_Nov_05,216,001,3,recog,54,ROUND,HF,target,left,yellow,imageability,liberal,no,z,1,0.586886086084,3,565
2019_Nov_05,216,001,3,recog,55,QUESTION,HF,target,right,aqua,pleasantness,liberal,no,z,1,0.520172347552,3,568
2019_Nov_05,216,001,3,recog,56,OUGHT,HF,target,left,yellow,imageability,conservative,no,z,1,0.560129176345,1,569
2019_Nov_05,216,001,3,recog,57,BANALITY,LF,lure,-,-,-,conservative,no,m,1,0.693143858075,3,572
2019_Nov_05,216,001,3,recog,58,AGNOSTIC,LF,target,left,yellow,imageability,conservative,no,z,1,0.653468580629,1,573
2019_Nov_05,216,001,3,recog,59,HUMAN,HF,lure,-,-,-,conservative,no,m,1,0.706494084489,3,576
2019_Nov_05,216,001,3,recog,60,VALUE,HF,lure,-,-,-,conservative,no,m,1,0.733399468572,3,579
2019_Nov_05,216,001,3,recog,61,TRYING,HF,lure,-,-,-,liberal,no,z,0,0.600126698107,-1,578
2019_Nov_05,216,001,3,recog,62,PSALMS,LF,target,right,aqua,pleasantness,conservative,no,z,1,0.574437703831,1,579
2019_Nov_05,216,001,3,recog,63,PHYSICAL,HF,target,right,aqua,pleasantness,liberal,no,z,1,0.533488113254,3,582
2019_Nov_05,216,001,3,recog,64,COBALT,LF,lure,-,-,-,liberal,no,m,1,0.600211383473,1,583
2019_Nov_05,216,001,3,recog,65,LONGER,HF,target,right,aqua,pleasantness,conservative,no,z,1,0.586853091786,1,584
2019_Nov_05,216,001,3,recog,66,CUISINE,LF,target,left,yellow,imageability,conservative,no,z,1,0.493493524319,1,585
2019_Nov_05,216,001,3,recog,67,MEDDLE,LF,lure,-,-,-,liberal,no,m,1,0.533529906033,1,586
2019_Nov_05,216,001,3,recog,68,OFFER,HF,target,left,yellow,imageability,liberal,no,z,1,0.546798013303,3,589
2019_Nov_05,216,001,3,recog,69,REGAINING,LF,lure,-,-,-,conservative,no,z,0,0.786700291523,-3,586
2019_Nov_05,216,001,3,recog,70,EATERS,LF,target,left,yellow,imageability,conservative,no,z,1,0.480216985171,1,587
2019_Nov_05,216,001,3,recog,71,CLOSE,HF,lure,-,-,-,liberal,no,z,0,0.666793144811,-1,586
2019_Nov_05,216,001,3,recog,72,BUMBLING,LF,target,left,yellow,imageability,liberal,no,z,1,1.06660925659,3,589
2019_Nov_05,216,001,3,recog,73,BUSINESS,HF,lure,-,-,-,liberal,no,m,1,0.786823103635,1,590
2019_Nov_05,216,001,3,recog,74,RAVAGES,LF,target,right,aqua,pleasantness,liberal,no,z,1,0.893411185214,3,593
2019_Nov_05,216,001,3,recog,75,ELICIT,LF,lure,-,-,-,liberal,no,m,1,0.653441085381,1,594
2019_Nov_05,216,001,3,recog,76,GRUBS,LF,target,left,yellow,imageability,liberal,no,z,1,0.720082236456,3,597
2019_Nov_05,216,001,3,recog,77,HUNDRED,HF,lure,-,-,-,conservative,no,m,1,0.680071150372,3,600
2019_Nov_05,216,001,3,recog,78,RECENT,HF,lure,-,-,-,liberal,no,m,1,0.733418531945,1,601
2019_Nov_05,216,001,3,recog,79,RATHER,HF,target,left,yellow,imageability,conservative,no,z,1,0.733417065531,1,602
2019_Nov_05,216,001,3,recog,80,OTHERS,HF,target,right,aqua,pleasantness,conservative,no,z,1,0.799914141503,1,603
2019_Nov_05,216,001,3,recog,81,SPEAK,HF,lure,-,-,-,conservative,no,m,1,0.786451734474,3,606
2019_Nov_05,216,001,3,recog,82,FORCE,HF,lure,-,-,-,liberal,no,m,1,0.653475546092,1,607
2019_Nov_05,216,001,3,recog,83,SLOWLY,HF,target,right,aqua,pleasantness,liberal,no,z,1,0.680076649422,3,610
2019_Nov_05,216,001,3,recog,84,OLDER,HF,target,left,yellow,imageability,conservative,no,z,1,0.640155014547,1,611
2019_Nov_05,216,001,3,recog,85,INTEREST,HF,target,left,yellow,imageability,liberal,no,z,1,0.546905428076,3,614
2019_Nov_05,216,001,3,recog,86,BUDDIES,LF,target,right,aqua,pleasantness,liberal,no,z,1,0.613608901715,3,617
2019_Nov_05,216,001,3,recog,87,DUPLICITY,LF,lure,-,-,-,liberal,no,m,1,0.626788657587,1,618
2019_Nov_05,216,001,3,recog,88,SUFFERER,LF,target,left,yellow,imageability,conservative,no,z,1,0.693444472795,1,619
2019_Nov_05,216,001,3,recog,89,DEMEANOUR,LF,target,right,aqua,pleasantness,conservative,no,z,1,0.506830553014,1,620
2019_Nov_05,216,001,3,recog,90,PROBABLY,HF,lure,-,-,-,conservative,no,z,0,0.600150893926,-3,617
2019_Nov_05,216,001,3,recog,91,UPTIGHT,LF,lure,-,-,-,liberal,no,m,1,0.773449048004,1,618
2019_Nov_05,216,001,3,recog,92,AFOOT,LF,lure,-,-,-,liberal,no,m,1,0.613431099106,1,619
2019_Nov_05,216,001,3,recog,93,NOTHING,HF,target,left,yellow,imageability,conservative,no,z,1,0.560140174444,1,620
2019_Nov_05,216,001,3,recog,94,FOUND,HF,lure,-,-,-,conservative,no,m,1,0.706882317402,3,623
2019_Nov_05,216,001,3,recog,95,PHANTOMS,LF,lure,-,-,-,conservative,no,m,1,0.799788396565,3,626
2019_Nov_05,216,001,4,source,0,HYSTERICS,LF,target,left,yellow,imageability,liberal,no,8,0,1.5198574353,-,-
2019_Nov_05,216,001,4,source,1,DRAFTING,LF,target,right,aqua,pleasantness,conservative,no,8,1,0.680071516975,-,-
2019_Nov_05,216,001,4,source,2,OBVIOUSLY,HF,target,right,aqua,pleasantness,liberal,no,9,1,0.73322459879,-,-
2019_Nov_05,216,001,4,source,3,SOYBEAN,LF,target,right,aqua,pleasantness,conservative,no,9,1,0.773466278361,-,-
2019_Nov_05,216,001,4,source,4,HAMLETS,LF,target,right,aqua,pleasantness,liberal,no,9,1,0.733215433706,-,-
2019_Nov_05,216,001,4,source,5,BINDINGS,LF,target,right,aqua,pleasantness,liberal,no,2,0,0.839864371437,-,-
2019_Nov_05,216,001,4,source,6,THING,HF,target,right,aqua,pleasantness,conservative,no,8,1,1.05327699374,-,-
2019_Nov_05,216,001,4,source,7,PECKED,LF,target,right,aqua,pleasantness,conservative,no,9,1,0.906741615049,-,-
2019_Nov_05,216,001,4,source,8,SYSTEM,HF,target,left,yellow,imageability,liberal,no,9,0,0.640196440721,-,-
2019_Nov_05,216,001,4,source,9,BEYOND,HF,target,left,yellow,imageability,liberal,no,9,0,0.866696434856,-,-
2019_Nov_05,216,001,4,source,10,MITIGATE,LF,target,left,yellow,imageability,conservative,no,2,1,0.973303946411,-,-
2019_Nov_05,216,001,4,source,11,SOAPY,LF,target,left,yellow,imageability,conservative,no,1,1,0.800100009385,-,-
2019_Nov_05,216,001,4,source,12,INITIATES,LF,target,left,yellow,imageability,liberal,no,3,1,1.38651061097,-,-
2019_Nov_05,216,001,4,source,13,MOMENT,HF,target,left,yellow,imageability,conservative,no,3,1,0.826684248962,-,-
2019_Nov_05,216,001,4,source,14,POINT,HF,target,right,aqua,pleasantness,liberal,no,2,0,1.11970881432,-,-
2019_Nov_05,216,001,4,source,15,ECONOMIC,HF,target,right,aqua,pleasantness,conservative,no,9,1,0.94684068593,-,-
2019_Nov_05,216,001,4,source,16,ZEALOTS,LF,target,left,yellow,imageability,conservative,no,8,0,0.853354640318,-,-
2019_Nov_05,216,001,4,source,17,DOODLE,LF,target,right,aqua,pleasantness,conservative,no,9,1,1.00000623226,-,-
2019_Nov_05,216,001,4,source,18,SUMMER,HF,target,left,yellow,imageability,liberal,no,1,1,2.14594624716,-,-
2019_Nov_05,216,001,4,source,19,GOADED,LF,target,right,aqua,pleasantness,liberal,no,9,1,1.74634423172,-,-
2019_Nov_05,216,001,4,source,20,UNCANNILY,LF,target,right,aqua,pleasantness,conservative,no,3,0,1.45290723763,-,-
2019_Nov_05,216,001,4,source,21,NEARLY,HF,target,right,aqua,pleasantness,liberal,yes,3,0,0.759826435326,-,-
2019_Nov_05,216,001,4,source,22,SCHOOL,HF,target,left,yellow,imageability,liberal,no,3,1,0.866678837897,-,-
2019_Nov_05,216,001,4,source,23,MODERN,HF,target,left,yellow,imageability,liberal,no,1,1,3.61219784555,-,-
2019_Nov_05,216,001,4,source,24,TILTS,LF,target,left,yellow,imageability,liberal,no,2,1,1.05302367084,-,-
2019_Nov_05,216,001,4,source,25,SEEMED,HF,target,right,aqua,pleasantness,conservative,no,7,1,0.83987353652,-,-
2019_Nov_05,216,001,4,source,26,STOOD,HF,target,right,aqua,pleasantness,conservative,yes,7,1,0.706646591469,-,-
2019_Nov_05,216,001,4,source,27,FURTHER,HF,target,left,yellow,imageability,conservative,no,8,0,1.30650346953,-,-
2019_Nov_05,216,001,4,source,28,NEEDED,HF,target,right,aqua,pleasantness,liberal,yes,8,1,0.506628554586,-,-
2019_Nov_05,216,001,4,source,29,TOTAL,HF,target,left,yellow,imageability,conservative,no,8,0,1.01331869853,-,-
2019_Nov_05,216,001,4,source,30,DIFFERENT,HF,target,left,yellow,imageability,conservative,no,8,0,0.693585981676,-,-
2019_Nov_05,216,001,4,source,31,HECTOR,LF,target,left,yellow,imageability,liberal,no,1,1,0.973294414725,-,-
2019_Nov_05,216,001,4,source,32,PRYING,LF,target,right,aqua,pleasantness,liberal,no,9,1,0.800078746393,-,-
2019_Nov_05,216,001,4,source,33,JOCKEYS,LF,target,right,aqua,pleasantness,liberal,no,9,1,0.64007692804,-,-
2019_Nov_05,216,001,4,source,34,MOBILIZE,LF,target,left,yellow,imageability,conservative,no,1,1,1.2929296151,-,-
2019_Nov_05,216,001,4,source,35,CRICKETER,LF,target,right,aqua,pleasantness,conservative,no,9,1,1.55942529798,-,-
2019_Nov_05,216,001,4,source,36,HAGGLING,LF,target,left,yellow,imageability,liberal,no,8,0,0.933376812487,-,-
2019_Nov_05,216,001,4,source,37,TURNED,HF,target,right,aqua,pleasantness,liberal,no,3,0,1.10661081099,-,-
2019_Nov_05,216,001,4,source,38,LABOUR,HF,target,right,aqua,pleasantness,conservative,no,2,0,0.999940243659,-,-
2019_Nov_05,216,001,4,source,39,USING,HF,target,right,aqua,pleasantness,conservative,no,8,1,0.959720193684,-,-
2019_Nov_05,216,001,4,source,40,VISCOUS,LF,target,left,yellow,imageability,conservative,no,8,0,0.906418270923,-,-
2019_Nov_05,216,001,4,source,41,ENLIGHTEN,LF,target,left,yellow,imageability,conservative,no,8,0,0.813403677178,-,-
2019_Nov_05,216,001,4,source,42,ABETTED,LF,target,left,yellow,imageability,liberal,no,8,0,1.01299718742,-,-
2019_Nov_05,216,001,4,source,43,HANDS,HF,target,right,aqua,pleasantness,liberal,yes,3,0,0.78670542397,-,-
2019_Nov_05,216,001,4,source,44,AVAILABLE,HF,target,left,yellow,imageability,liberal,no,3,1,0.85339240046,-,-
2019_Nov_05,216,001,4,source,45,BYPASS,LF,target,right,aqua,pleasantness,liberal,no,9,1,1.03980835445,-,-
2019_Nov_05,216,001,4,source,46,WITHIN,HF,target,left,yellow,imageability,conservative,no,8,0,1.58640840196,-,-
2019_Nov_05,216,001,4,source,47,NECESSARY,HF,target,left,yellow,imageability,conservative,no,8,0,1.62656722918,-,-
2019_Nov_05,216,001,4,recog,0,TURNED,HF,target,right,aqua,pleasantness,liberal,no,z,1,2.18589061144,3,629
2019_Nov_05,216,001,4,recog,1,SOUND,HF,lure,-,-,-,liberal,no,m,1,0.760078658408,1,630
2019_Nov_05,216,001,4,recog,2,KNEAD,LF,lure,-,-,-,liberal,no,m,1,0.586571540438,1,631
2019_Nov_05,216,001,4,recog,3,ENLIGHTEN,LF,target,left,yellow,imageability,conservative,no,z,1,0.613483156777,1,632
2019_Nov_05,216,001,4,recog,4,DAFFODILS,LF,lure,-,-,-,conservative,no,m,1,0.600131830553,3,635
2019_Nov_05,216,001,4,recog,5,SYSTEM,HF,target,left,yellow,imageability,liberal,no,z,1,0.906700555478,3,638
2019_Nov_05,216,001,4,recog,6,TESTIFIES,LF,lure,-,-,-,conservative,no,m,1,0.560161437437,3,641
2019_Nov_05,216,001,4,recog,7,EXACTLY,HF,lure,-,-,-,conservative,no,m,1,0.626811753596,3,644
2019_Nov_05,216,001,4,recog,8,COMES,HF,lure,-,-,-,conservative,no,m,1,0.560379933014,3,647
2019_Nov_05,216,001,4,recog,9,SUMMER,HF,target,left,yellow,imageability,liberal,no,z,1,0.65353603564,3,650
2019_Nov_05,216,001,4,recog,10,PRYING,LF,target,right,aqua,pleasantness,liberal,yes,z,1,1.03996159464,3,653
2019_Nov_05,216,001,4,recog,11,JOCKEYS,LF,target,right,aqua,pleasantness,liberal,no,z,1,3.27906431102,3,656
2019_Nov_05,216,001,4,recog,12,TERMS,HF,lure,-,-,-,conservative,no,m,1,0.680182964384,3,659
2019_Nov_05,216,001,4,recog,13,SMUDGE,LF,lure,-,-,-,liberal,no,m,1,0.73320700183,1,660
2019_Nov_05,216,001,4,recog,14,DODGED,LF,lure,-,-,-,conservative,no,m,1,0.786787909716,3,663
2019_Nov_05,216,001,4,recog,15,INITIATES,LF,target,left,yellow,imageability,liberal,no,z,1,0.639873463199,3,666
2019_Nov_05,216,001,4,recog,16,SPRATS,LF,lure,-,-,-,liberal,no,m,1,0.693432374886,1,667
2019_Nov_05,216,001,4,recog,17,PORCHES,LF,lure,-,-,-,conservative,no,m,1,0.720115963961,3,670
2019_Nov_05,216,001,4,recog,18,HAMLETS,LF,target,right,aqua,pleasantness,liberal,no,z,1,0.573447874874,3,673
2019_Nov_05,216,001,4,recog,19,CRICKETER,LF,target,right,aqua,pleasantness,conservative,no,z,1,1.85302029809,1,674
2019_Nov_05,216,001,4,recog,20,TILTS,LF,target,left,yellow,imageability,liberal,no,z,1,0.720069771943,3,677
2019_Nov_05,216,001,4,recog,21,SAWDUST,LF,lure,-,-,-,liberal,no,m,1,0.586801767321,1,678
2019_Nov_05,216,001,4,recog,22,UNFAILING,LF,lure,-,-,-,conservative,no,m,1,0.773365829051,3,681
2019_Nov_05,216,001,4,recog,23,MODERN,HF,target,left,yellow,imageability,liberal,no,z,1,0.733403867811,3,684
2019_Nov_05,216,001,4,recog,24,GETTING,HF,lure,-,-,-,conservative,no,m,1,0.826745105112,3,687
2019_Nov_05,216,001,4,recog,25,OBVIOUSLY,HF,target,right,aqua,pleasantness,liberal,no,z,1,0.640130452125,3,690
2019_Nov_05,216,001,4,recog,26,HANDS,HF,target,right,aqua,pleasantness,liberal,no,z,1,0.666827605523,3,693
2019_Nov_05,216,001,4,recog,27,THING,HF,target,right,aqua,pleasantness,conservative,no,z,1,0.800079846203,1,694
2019_Nov_05,216,001,4,recog,28,AFRAID,HF,lure,-,-,-,conservative,no,m,1,0.720178286525,3,697
2019_Nov_05,216,001,4,recog,29,USING,HF,target,right,aqua,pleasantness,conservative,no,z,1,0.706521946341,1,698
2019_Nov_05,216,001,4,recog,30,SCOFFED,LF,lure,-,-,-,liberal,no,m,1,0.84001614521,1,699
2019_Nov_05,216,001,4,recog,31,SOYBEAN,LF,target,right,aqua,pleasantness,conservative,no,z,1,0.600247310598,1,700
2019_Nov_05,216,001,4,recog,32,BINDINGS,LF,target,right,aqua,pleasantness,liberal,no,z,1,0.586558709321,3,703
2019_Nov_05,216,001,4,recog,33,STOOD,HF,target,right,aqua,pleasantness,conservative,no,m,0,0.693377384388,-1,702
2019_Nov_05,216,001,4,recog,34,SHALL,HF,lure,-,-,-,liberal,no,m,1,0.92001962061,1,703
2019_Nov_05,216,001,4,recog,35,NEARLY,HF,target,right,aqua,pleasantness,liberal,no,m,0,1.2265623167,-3,700
2019_Nov_05,216,001,4,recog,36,INCLUDING,HF,lure,-,-,-,conservative,no,m,1,0.933318155956,3,703
2019_Nov_05,216,001,4,recog,37,NOBLEMAN,LF,lure,-,-,-,conservative,no,m,1,0.946689645363,3,706
2019_Nov_05,216,001,4,recog,38,VILLAGE,HF,lure,-,-,-,liberal,no,m,1,0.626526902818,1,707
2019_Nov_05,216,001,4,recog,39,DIFFERENT,HF,target,left,yellow,imageability,conservative,no,z,1,0.573468771263,1,708
2019_Nov_05,216,001,4,recog,40,PASSED,HF,lure,-,-,-,liberal,no,m,1,0.986645374346,1,709
2019_Nov_05,216,001,4,recog,41,PECKED,LF,target,right,aqua,pleasantness,conservative,no,m,0,0.57347610333,-1,708
2019_Nov_05,216,001,4,recog,42,MATERIAL,HF,lure,-,-,-,conservative,no,m,1,1.23985132036,3,711
2019_Nov_05,216,001,4,recog,43,FURTHER,HF,target,left,yellow,imageability,conservative,no,z,1,0.653300309707,1,712
2019_Nov_05,216,001,4,recog,44,MOBILIZE,LF,target,left,yellow,imageability,conservative,no,z,1,0.573517896107,1,713
2019_Nov_05,216,001,4,recog,45,SEEMED,HF,target,right,aqua,pleasantness,conservative,no,z,1,0.57352706119,1,714
2019_Nov_05,216,001,4,recog,46,PAUNCH,LF,lure,-,-,-,conservative,no,m,1,0.746791854368,3,717
2019_Nov_05,216,001,4,recog,47,DOSSIERS,LF,lure,-,-,-,conservative,no,m,1,0.920024019849,3,720
2019_Nov_05,216,001,4,recog,48,LOOKED,HF,lure,-,-,-,liberal,no,m,1,0.706735676075,1,721
2019_Nov_05,216,001,4,recog,49,DRAFTING,LF,target,right,aqua,pleasantness,conservative,no,z,1,0.720066839117,1,722
2019_Nov_05,216,001,4,recog,50,ROLLERS,LF,lure,-,-,-,liberal,no,m,1,0.760047497126,1,723
2019_Nov_05,216,001,4,recog,51,AVAILABLE,HF,target,left,yellow,imageability,liberal,no,z,1,0.693443739588,3,726
2019_Nov_05,216,001,4,recog,52,VISCOUS,LF,target,left,yellow,imageability,conservative,no,z,1,0.693437140729,1,727
2019_Nov_05,216,001,4,recog,53,MOMENT,HF,target,left,yellow,imageability,conservative,no,z,1,0.640101857065,1,728
2019_Nov_05,216,001,4,recog,54,NEEDED,HF,target,right,aqua,pleasantness,liberal,no,z,1,0.586575939677,3,731
2019_Nov_05,216,001,4,recog,55,ABETTED,LF,target,left,yellow,imageability,liberal,no,z,1,0.613484256587,3,734
2019_Nov_05,216,001,4,recog,56,SOAPY,LF,target,left,yellow,imageability,conservative,no,z,1,0.706752906431,1,735
2019_Nov_05,216,001,4,recog,57,TOWARDS,HF,lure,-,-,-,liberal,no,z,0,0.959977915816,-1,734
2019_Nov_05,216,001,4,recog,58,BEREAVED,LF,lure,-,-,-,conservative,no,z,0,1.03999385573,-3,731
2019_Nov_05,216,001,4,recog,59,WOMAN,HF,lure,-,-,-,liberal,no,m,1,1.31993068264,1,732
2019_Nov_05,216,001,4,recog,60,LABOUR,HF,target,right,aqua,pleasantness,conservative,no,z,1,0.68011294315,1,733
2019_Nov_05,216,001,4,recog,61,MOVED,HF,lure,-,-,-,conservative,yes,m,1,0.973348305413,3,736
2019_Nov_05,216,001,4,recog,62,ECONOMIC,HF,target,right,aqua,pleasantness,conservative,no,z,1,1.49308402841,1,737
2019_Nov_05,216,001,4,recog,63,PRIVATE,HF,lure,-,-,-,liberal,no,z,0,0.99999450095,-1,736
2019_Nov_05,216,001,4,recog,64,EFFECT,HF,lure,-,-,-,liberal,no,z,0,1.02641670186,-1,735
2019_Nov_05,216,001,4,recog,65,REVERE,LF,lure,-,-,-,conservative,no,m,1,1.01330330119,3,738
2019_Nov_05,216,001,4,recog,66,JUDICIOUS,LF,lure,-,-,-,conservative,no,m,1,1.02666085967,3,741
2019_Nov_05,216,001,4,recog,67,TOMBSTONE,LF,lure,-,-,-,liberal,no,m,1,0.893293505549,1,742
2019_Nov_05,216,001,4,recog,68,LEVEL,HF,lure,-,-,-,liberal,no,z,0,0.853348774665,-1,741
2019_Nov_05,216,001,4,recog,69,BELIEVE,HF,lure,-,-,-,conservative,no,m,1,0.840066369864,3,744
2019_Nov_05,216,001,4,recog,70,VOUCH,LF,lure,-,-,-,liberal,no,m,1,0.840045840079,1,745
2019_Nov_05,216,001,4,recog,71,WITHIN,HF,target,left,yellow,imageability,conservative,no,z,1,0.733404967621,1,746
2019_Nov_05,216,001,4,recog,72,GOADED,LF,target,right,aqua,pleasantness,liberal,no,z,1,0.69339314833,3,749
2019_Nov_05,216,001,4,recog,73,DOODLE,LF,target,right,aqua,pleasantness,conservative,yes,m,0,0.773376093944,-1,748
2019_Nov_05,216,001,4,recog,74,TOTAL,HF,target,left,yellow,imageability,conservative,no,z,1,1.03998762347,1,749
2019_Nov_05,216,001,4,recog,75,QUALITY,HF,lure,-,-,-,liberal,no,m,1,0.826463920368,1,750
2019_Nov_05,216,001,4,recog,76,HECTOR,LF,target,left,yellow,imageability,liberal,no,z,1,1.25326203632,3,753
2019_Nov_05,216,001,4,recog,77,STYLED,LF,lure,-,-,-,liberal,no,m,1,0.653254117688,1,754
2019_Nov_05,216,001,4,recog,78,ZEALOTS,LF,target,left,yellow,imageability,conservative,no,z,1,0.693437873935,1,755
2019_Nov_05,216,001,4,recog,79,CAMPANILE,LF,lure,-,-,-,liberal,yes,z,0,0.760033932803,-1,754
2019_Nov_05,216,001,4,recog,80,BYPASS,LF,target,right,aqua,pleasantness,liberal,no,z,1,0.613488655827,3,757
2019_Nov_05,216,001,4,recog,81,UNCANNILY,LF,target,right,aqua,pleasantness,conservative,no,z,1,0.760096255367,1,758
2019_Nov_05,216,001,4,recog,82,ATTACK,HF,lure,-,-,-,conservative,no,m,1,1.09326681683,3,761
2019_Nov_05,216,001,4,recog,83,JUNCTURE,LF,lure,-,-,-,conservative,no,z,0,1.06670274043,-3,758
2019_Nov_05,216,001,4,recog,84,NECESSARY,HF,target,left,yellow,imageability,conservative,no,z,1,0.853352074095,1,759
2019_Nov_05,216,001,4,recog,85,MITIGATE,LF,target,left,yellow,imageability,conservative,no,z,1,1.06642338871,1,760
2019_Nov_05,216,001,4,recog,86,HYSTERICS,LF,target,left,yellow,imageability,liberal,no,z,1,1.00002749525,3,763
2019_Nov_05,216,001,4,recog,87,SCHOOL,HF,target,left,yellow,imageability,liberal,no,z,1,0.586775005279,3,766
2019_Nov_05,216,001,4,recog,88,CANNOT,HF,lure,-,-,-,conservative,no,m,1,0.760066560499,3,769
2019_Nov_05,216,001,4,recog,89,FRIEND,HF,lure,-,-,-,liberal,no,m,1,1.25311906103,1,770
2019_Nov_05,216,001,4,recog,90,VARIOUS,HF,lure,-,-,-,conservative,no,m,1,0.720064272894,3,773
2019_Nov_05,216,001,4,recog,91,HAGGLING,LF,target,left,yellow,imageability,liberal,no,z,1,1.22672618838,3,776
2019_Nov_05,216,001,4,recog,92,BEYOND,HF,target,left,yellow,imageability,liberal,no,m,0,0.9999336448,-3,773
2019_Nov_05,216,001,4,recog,93,BAPTIZED,LF,lure,-,-,-,liberal,no,m,1,0.746507370193,1,774
2019_Nov_05,216,001,4,recog,94,POINT,HF,target,right,aqua,pleasantness,liberal,no,m,0,1.10656608538,-3,771
2019_Nov_05,216,001,4,recog,95,PLIABLE,LF,lure,-,-,-,liberal,no,m,1,0.666799377068,1,772
