date,subj,session,cycle,task,trial,item,wf,type,source,colour,encoding,bias,null,response,corr,rt,points,total
2019_Nov_06,217,001,0,source,0,OLDER,HF,target,left,aqua,pleasantness,liberal,no,8,0,4.78523089128,-,-
2019_Nov_06,217,001,0,source,1,CARRIED,HF,target,left,aqua,pleasantness,conservative,no,2,1,4.70501815793,-,-
2019_Nov_06,217,001,0,source,2,ADJOURNED,LF,target,left,aqua,pleasantness,liberal,no,2,1,1.91963145967,-,-
2019_Nov_06,217,001,0,source,3,GAZELLE,LF,target,left,aqua,pleasantness,conservative,no,2,1,1.06671654934,-,-
2019_Nov_06,217,001,0,source,4,GIPSY,LF,target,right,yellow,imageability,conservative,no,8,1,1.94622899447,-,-
2019_Nov_06,217,001,0,source,5,MOUTH,HF,target,left,aqua,pleasantness,liberal,no,1,1,2.65241735448,-,-
2019_Nov_06,217,001,0,source,6,CAFETERIA,LF,target,right,yellow,imageability,liberal,no,7,1,3.47884031214,-,-
2019_Nov_06,217,001,0,source,7,EIGHT,HF,target,left,aqua,pleasantness,liberal,no,1,1,2.23951052412,-,-
2019_Nov_06,217,001,0,source,8,LEARN,HF,target,right,yellow,imageability,conservative,no,9,1,1.4128232445,-,-
2019_Nov_06,217,001,0,source,9,MILES,HF,target,right,yellow,imageability,conservative,no,9,1,0.893318776684,-,-
2019_Nov_06,217,001,0,source,10,AROUND,HF,target,left,aqua,pleasantness,liberal,no,1,1,1.6661661291,-,-
2019_Nov_06,217,001,0,source,11,BLEACH,LF,target,right,yellow,imageability,liberal,no,9,1,1.27984656862,-,-
2019_Nov_06,217,001,0,source,12,FLUFF,LF,target,left,aqua,pleasantness,conservative,no,1,1,0.786519506667,-,-
2019_Nov_06,217,001,0,source,13,AIRBED,LF,target,left,aqua,pleasantness,conservative,no,1,1,0.800073614216,-,-
2019_Nov_06,217,001,0,source,14,AFRAID,HF,target,right,yellow,imageability,conservative,no,2,0,3.2258405695,-,-
2019_Nov_06,217,001,0,source,15,WANTED,HF,target,right,yellow,imageability,liberal,no,8,1,1.47979898333,-,-
2019_Nov_06,217,001,0,source,16,ROPED,LF,target,right,yellow,imageability,conservative,no,9,1,1.17326506177,-,-
2019_Nov_06,217,001,0,source,17,WIPERS,LF,target,right,yellow,imageability,conservative,no,9,1,0.986724511994,-,-
2019_Nov_06,217,001,0,source,18,OPPOSES,LF,target,left,aqua,pleasantness,conservative,no,1,1,1.15990965395,-,-
2019_Nov_06,217,001,0,source,19,OUGHT,HF,target,left,aqua,pleasantness,conservative,no,1,1,0.879849354813,-,-
2019_Nov_06,217,001,0,source,20,SOFTENING,LF,target,right,yellow,imageability,liberal,no,2,0,1.67972353609,-,-
2019_Nov_06,217,001,0,source,21,MODERN,HF,target,right,yellow,imageability,liberal,no,1,0,1.4398299101,-,-
2019_Nov_06,217,001,0,source,22,LOGGED,LF,target,left,aqua,pleasantness,conservative,no,1,1,2.03964169527,-,-
2019_Nov_06,217,001,0,source,23,UNDER,HF,target,right,yellow,imageability,conservative,no,8,1,1.58645821037,-,-
2019_Nov_06,217,001,0,source,24,WINDOW,HF,target,right,yellow,imageability,liberal,no,9,1,1.31989556166,-,-
2019_Nov_06,217,001,0,source,25,CERTAIN,HF,target,left,aqua,pleasantness,conservative,no,2,1,1.5996805407,-,-
2019_Nov_06,217,001,0,source,26,BODICE,LF,target,left,aqua,pleasantness,liberal,no,8,0,1.64000045459,-,-
2019_Nov_06,217,001,0,source,27,PHYSICAL,HF,target,left,aqua,pleasantness,liberal,yes,8,0,2.59941181948,-,-
2019_Nov_06,217,001,0,source,28,SUDDENLY,HF,target,right,yellow,imageability,conservative,no,2,0,1.50663371135,-,-
2019_Nov_06,217,001,0,source,29,MUSIC,HF,target,left,aqua,pleasantness,conservative,yes,2,1,0.973346008078,-,-
2019_Nov_06,217,001,0,source,30,RODENTS,LF,target,right,yellow,imageability,liberal,no,8,1,1.5195583587,-,-
2019_Nov_06,217,001,0,source,31,PRACTICE,HF,target,right,yellow,imageability,liberal,yes,7,1,1.01329711768,-,-
2019_Nov_06,217,001,0,source,32,BRING,HF,target,right,yellow,imageability,liberal,no,7,1,1.81298396398,-,-
2019_Nov_06,217,001,0,source,33,PANACHE,LF,target,left,aqua,pleasantness,liberal,no,1,1,1.25322520451,-,-
2019_Nov_06,217,001,0,source,34,IRISES,LF,target,right,yellow,imageability,conservative,no,9,1,1.06659776943,-,-
2019_Nov_06,217,001,0,source,35,SITTING,HF,target,left,aqua,pleasantness,conservative,no,1,1,0.893369368128,-,-
2019_Nov_06,217,001,0,source,36,FONDLE,LF,target,right,yellow,imageability,conservative,no,1,0,2.35945257126,-,-
2019_Nov_06,217,001,0,source,37,HOTEL,HF,target,left,aqua,pleasantness,liberal,yes,2,1,0.999966638976,-,-
2019_Nov_06,217,001,0,source,38,TASSELS,LF,target,right,yellow,imageability,liberal,no,9,1,1.01329968391,-,-
2019_Nov_06,217,001,0,source,39,CORNER,HF,target,right,yellow,imageability,liberal,no,9,1,0.919980100699,-,-
2019_Nov_06,217,001,0,source,40,LAGER,LF,target,left,aqua,pleasantness,liberal,no,1,1,1.11976167764,-,-
2019_Nov_06,217,001,0,source,41,RALLIED,LF,target,right,yellow,imageability,conservative,no,9,1,1.1066247662,-,-
2019_Nov_06,217,001,0,source,42,AVAILABLE,HF,target,left,aqua,pleasantness,conservative,no,1,1,1.30675975003,-,-
2019_Nov_06,217,001,0,source,43,WAKED,LF,target,left,aqua,pleasantness,liberal,no,8,0,1.41319388181,-,-
2019_Nov_06,217,001,0,source,44,OBSCURELY,LF,target,left,aqua,pleasantness,conservative,no,3,1,1.67944454995,-,-
2019_Nov_06,217,001,0,source,45,CHOICE,HF,target,right,yellow,imageability,conservative,no,7,1,3.11923193391,-,-
2019_Nov_06,217,001,0,source,46,AGILITY,LF,target,left,aqua,pleasantness,liberal,no,2,1,2.06599250513,-,-
2019_Nov_06,217,001,0,source,47,ALIAS,LF,target,right,yellow,imageability,liberal,no,8,1,2.18592538715,-,-
2019_Nov_06,217,001,0,recog,0,PIANOS,LF,lure,-,-,-,conservative,no,m,1,1.71975603193,3,3
2019_Nov_06,217,001,0,recog,1,MUSIC,HF,target,left,aqua,pleasantness,conservative,no,z,1,1.133285357,1,4
2019_Nov_06,217,001,0,recog,2,MATERIAL,HF,lure,-,-,-,conservative,no,m,1,1.18632132019,3,7
2019_Nov_06,217,001,0,recog,3,SIBLINGS,LF,lure,-,-,-,conservative,no,m,1,0.786820855699,3,10
2019_Nov_06,217,001,0,recog,4,PAGANISM,LF,lure,-,-,-,conservative,no,m,1,0.813396760828,3,13
2019_Nov_06,217,001,0,recog,5,TABLE,HF,lure,-,-,-,conservative,no,m,1,0.826486013666,3,16
2019_Nov_06,217,001,0,recog,6,FRIEND,HF,lure,-,-,-,liberal,no,m,1,2.89264202448,1,17
2019_Nov_06,217,001,0,recog,7,LAGER,LF,target,left,aqua,pleasantness,liberal,no,z,1,0.906780133254,3,20
2019_Nov_06,217,001,0,recog,8,INTEREST,HF,lure,-,-,-,liberal,no,m,1,0.920073584888,1,21
2019_Nov_06,217,001,0,recog,9,RALLIED,LF,target,right,yellow,imageability,conservative,no,z,1,1.27984913485,1,22
2019_Nov_06,217,001,0,recog,10,BODICE,LF,target,left,aqua,pleasantness,liberal,no,z,1,1.49320864864,3,25
2019_Nov_06,217,001,0,recog,11,ATONEMENT,LF,lure,-,-,-,liberal,no,m,1,1.24003220255,1,26
2019_Nov_06,217,001,0,recog,12,CERTAIN,HF,target,left,aqua,pleasantness,conservative,no,z,1,1.57305037808,1,27
2019_Nov_06,217,001,0,recog,13,BRING,HF,target,right,yellow,imageability,liberal,no,z,1,0.973300182496,3,30
2019_Nov_06,217,001,0,recog,14,AIRBED,LF,target,left,aqua,pleasantness,conservative,no,z,1,0.786786028256,1,31
2019_Nov_06,217,001,0,recog,15,EITHER,HF,lure,-,-,-,liberal,no,m,1,0.786472947875,1,32
2019_Nov_06,217,001,0,recog,16,MACARONI,LF,lure,-,-,-,conservative,no,m,1,0.733417554644,3,35
2019_Nov_06,217,001,0,recog,17,HOWEVER,HF,lure,-,-,-,liberal,no,m,1,0.746814022188,1,36
2019_Nov_06,217,001,0,recog,18,FLUFF,LF,target,left,aqua,pleasantness,conservative,no,z,1,0.600053744243,1,37
2019_Nov_06,217,001,0,recog,19,WANTED,HF,target,right,yellow,imageability,liberal,no,z,1,1.06657064069,3,40
2019_Nov_06,217,001,0,recog,20,CUTLER,LF,lure,-,-,-,liberal,no,m,1,0.853355569128,1,41
2019_Nov_06,217,001,0,recog,21,DIOCESE,LF,lure,-,-,-,liberal,no,m,1,0.746765996978,1,42
2019_Nov_06,217,001,0,recog,22,MOUTH,HF,target,left,aqua,pleasantness,liberal,no,z,1,0.613562392814,3,45
2019_Nov_06,217,001,0,recog,23,ADJOURNED,LF,target,left,aqua,pleasantness,liberal,no,z,1,0.786776129931,3,48
2019_Nov_06,217,001,0,recog,24,LOGGED,LF,target,left,aqua,pleasantness,conservative,no,z,1,0.693450681041,1,49
2019_Nov_06,217,001,0,recog,25,SOFTENING,LF,target,right,yellow,imageability,liberal,no,z,1,0.653252479897,3,52
2019_Nov_06,217,001,0,recog,26,MAYBE,HF,lure,-,-,-,conservative,no,m,1,0.693413287366,3,55
2019_Nov_06,217,001,0,recog,27,AGILITY,LF,target,left,aqua,pleasantness,liberal,no,z,1,0.560127930363,3,58
2019_Nov_06,217,001,0,recog,28,CUSTODIAN,LF,lure,-,-,-,conservative,no,m,1,0.65332506762,3,61
2019_Nov_06,217,001,0,recog,29,OLDER,HF,target,left,aqua,pleasantness,liberal,no,z,1,0.680181425315,3,64
2019_Nov_06,217,001,0,recog,30,DOCTOR,HF,lure,-,-,-,liberal,no,m,1,0.693460945972,1,65
2019_Nov_06,217,001,0,recog,31,WAKED,LF,target,left,aqua,pleasantness,liberal,no,z,1,0.666751963351,3,68
2019_Nov_06,217,001,0,recog,32,SUDDENLY,HF,target,right,yellow,imageability,conservative,no,z,1,0.719862713886,1,69
2019_Nov_06,217,001,0,recog,33,GIPSY,LF,target,right,yellow,imageability,conservative,no,z,1,0.640222617015,1,70
2019_Nov_06,217,001,0,recog,34,SEEMED,HF,lure,-,-,-,conservative,no,m,1,0.80006921496,3,73
2019_Nov_06,217,001,0,recog,35,SEVEN,HF,lure,-,-,-,conservative,no,m,1,0.706766862165,3,76
2019_Nov_06,217,001,0,recog,36,CARRIED,HF,target,left,aqua,pleasantness,conservative,no,z,1,0.840096578332,1,77
2019_Nov_06,217,001,0,recog,37,CHOICE,HF,target,right,yellow,imageability,conservative,no,z,1,0.63988644054,1,78
2019_Nov_06,217,001,0,recog,38,MILES,HF,target,right,yellow,imageability,conservative,no,z,1,0.626768959143,1,79
2019_Nov_06,217,001,0,recog,39,WINDOW,HF,target,right,yellow,imageability,liberal,no,z,1,0.626779224074,3,82
2019_Nov_06,217,001,0,recog,40,JUBILANT,LF,lure,-,-,-,conservative,no,m,1,0.626807819237,3,85
2019_Nov_06,217,001,0,recog,41,FRUGAL,LF,lure,-,-,-,liberal,no,m,1,0.933305446939,1,86
2019_Nov_06,217,001,0,recog,42,ALIAS,LF,target,right,yellow,imageability,liberal,no,z,1,0.760118838567,3,89
2019_Nov_06,217,001,0,recog,43,PRACTICE,HF,target,right,yellow,imageability,liberal,no,z,1,1.1466312331,3,92
2019_Nov_06,217,001,0,recog,44,LEARN,HF,target,right,yellow,imageability,conservative,no,z,1,0.773505407785,1,93
2019_Nov_06,217,001,0,recog,45,CHAIR,HF,lure,-,-,-,liberal,no,m,1,1.09328915503,1,94
2019_Nov_06,217,001,0,recog,46,PANACHE,LF,target,left,aqua,pleasantness,liberal,no,z,1,0.733408022923,3,97
2019_Nov_06,217,001,0,recog,47,WIPERS,LF,target,right,yellow,imageability,conservative,no,z,1,0.706824419097,1,98
2019_Nov_06,217,001,0,recog,48,APPEARED,HF,lure,-,-,-,liberal,no,m,1,0.813460916644,1,99
2019_Nov_06,217,001,0,recog,49,TAWNY,LF,lure,-,-,-,liberal,no,m,1,0.61345827709,1,100
2019_Nov_06,217,001,0,recog,50,RODENTS,LF,target,right,yellow,imageability,liberal,no,z,1,0.719854648584,3,103
2019_Nov_06,217,001,0,recog,51,RETURN,HF,lure,-,-,-,conservative,no,m,1,0.720073511567,3,106
2019_Nov_06,217,001,0,recog,52,HOTEL,HF,target,left,aqua,pleasantness,liberal,yes,z,1,1.61304658005,3,109
2019_Nov_06,217,001,0,recog,53,EVIDENCE,HF,lure,-,-,-,conservative,no,m,1,1.22656901296,3,112
2019_Nov_06,217,001,0,recog,54,GERANIUMS,LF,lure,-,-,-,conservative,no,m,1,1.35992109201,3,115
2019_Nov_06,217,001,0,recog,55,CORNER,HF,target,right,yellow,imageability,liberal,no,z,1,0.653433215995,3,118
2019_Nov_06,217,001,0,recog,56,PHYSICAL,HF,target,left,aqua,pleasantness,liberal,no,z,1,1.43956192209,3,121
2019_Nov_06,217,001,0,recog,57,EIGHT,HF,target,left,aqua,pleasantness,liberal,no,z,1,0.773440885365,3,124
2019_Nov_06,217,001,0,recog,58,TASSELS,LF,target,right,yellow,imageability,liberal,no,z,1,0.826866549304,3,127
2019_Nov_06,217,001,0,recog,59,BLEACH,LF,target,right,yellow,imageability,liberal,no,z,1,0.720070212125,3,130
2019_Nov_06,217,001,0,recog,60,EVENING,HF,lure,-,-,-,liberal,no,m,1,0.813511874692,1,131
2019_Nov_06,217,001,0,recog,61,ROPED,LF,target,right,yellow,imageability,conservative,no,z,1,0.773378929177,1,132
2019_Nov_06,217,001,0,recog,62,GAZELLE,LF,target,left,aqua,pleasantness,conservative,no,z,1,0.91998413335,1,133
2019_Nov_06,217,001,0,recog,63,SITTING,HF,target,left,aqua,pleasantness,conservative,no,z,1,0.813395661014,1,134
2019_Nov_06,217,001,0,recog,64,IMPORTANT,HF,lure,-,-,-,liberal,no,m,1,0.853389663362,1,135
2019_Nov_06,217,001,0,recog,65,OUGHT,HF,target,left,aqua,pleasantness,conservative,no,m,0,1.15988362502,-1,134
2019_Nov_06,217,001,0,recog,66,WHETHER,HF,lure,-,-,-,conservative,no,m,1,2.45280918154,3,137
2019_Nov_06,217,001,0,recog,67,TIRADE,LF,lure,-,-,-,liberal,no,m,1,1.27988359569,1,138
2019_Nov_06,217,001,0,recog,68,AMBIENCE,LF,lure,-,-,-,conservative,no,m,1,0.906645589343,3,141
2019_Nov_06,217,001,0,recog,69,AFRAID,HF,target,right,yellow,imageability,conservative,no,z,1,0.746513039761,1,142
2019_Nov_06,217,001,0,recog,70,AXIOM,LF,lure,-,-,-,liberal,no,m,1,1.33319267934,1,143
2019_Nov_06,217,001,0,recog,71,ECONOMIC,HF,lure,-,-,-,liberal,no,m,1,0.773425854574,1,144
2019_Nov_06,217,001,0,recog,72,CAFETERIA,LF,target,right,yellow,imageability,liberal,no,z,1,0.706852647656,3,147
2019_Nov_06,217,001,0,recog,73,SCHOOL,HF,lure,-,-,-,conservative,no,m,1,1.66615659738,3,150
2019_Nov_06,217,001,0,recog,74,ICONS,LF,lure,-,-,-,liberal,no,m,1,0.760042951402,1,151
2019_Nov_06,217,001,0,recog,75,OBSCURELY,LF,target,left,aqua,pleasantness,conservative,no,z,1,0.840030956098,1,152
2019_Nov_06,217,001,0,recog,76,INCLUDING,HF,lure,-,-,-,conservative,yes,m,1,1.3330079106,3,155
2019_Nov_06,217,001,0,recog,77,PLEASE,HF,lure,-,-,-,liberal,no,m,1,2.23929862663,1,156
2019_Nov_06,217,001,0,recog,78,YONDER,LF,lure,-,-,-,conservative,yes,z,0,1.03994964318,-3,153
2019_Nov_06,217,001,0,recog,79,HARDLY,HF,lure,-,-,-,conservative,no,m,1,1.33315125302,3,156
2019_Nov_06,217,001,0,recog,80,FIELD,HF,lure,-,-,-,liberal,no,m,1,1.22657817808,1,157
2019_Nov_06,217,001,0,recog,81,MODERN,HF,target,right,yellow,imageability,liberal,no,z,1,0.733669412047,3,160
2019_Nov_06,217,001,0,recog,82,IRONICAL,LF,lure,-,-,-,liberal,no,m,1,0.919972402001,1,161
2019_Nov_06,217,001,0,recog,83,IRISES,LF,target,right,yellow,imageability,conservative,no,z,1,0.840104643635,1,162
2019_Nov_06,217,001,0,recog,84,AROUND,HF,target,left,aqua,pleasantness,liberal,yes,m,0,1.37316835146,-3,159
2019_Nov_06,217,001,0,recog,85,DIETING,LF,lure,-,-,-,conservative,no,m,1,3.18589202613,3,162
2019_Nov_06,217,001,0,recog,86,AGONIZED,LF,lure,-,-,-,liberal,no,m,1,2.1063417474,1,163
2019_Nov_06,217,001,0,recog,87,UNDER,HF,target,right,yellow,imageability,conservative,no,z,1,0.733457881157,1,164
2019_Nov_06,217,001,0,recog,88,PUFFS,LF,lure,-,-,-,conservative,no,m,1,0.799965099236,3,167
2019_Nov_06,217,001,0,recog,89,ARMAMENT,LF,lure,-,-,-,liberal,no,m,1,0.813376597571,1,168
2019_Nov_06,217,001,0,recog,90,OPPOSES,LF,target,left,aqua,pleasantness,conservative,no,z,1,0.813154068542,1,169
2019_Nov_06,217,001,0,recog,91,FONDLE,LF,target,right,yellow,imageability,conservative,no,z,1,0.893338206731,1,170
2019_Nov_06,217,001,0,recog,92,AVAILABLE,HF,target,left,aqua,pleasantness,conservative,no,z,1,0.986620029666,1,171
2019_Nov_06,217,001,0,recog,93,VAINLY,LF,lure,-,-,-,conservative,no,m,1,0.653455945484,3,174
2019_Nov_06,217,001,0,recog,94,POSITION,HF,lure,-,-,-,conservative,no,m,1,0.733226553616,3,177
2019_Nov_06,217,001,0,recog,95,PADDLE,LF,lure,-,-,-,liberal,no,m,1,0.679945698518,1,178
2019_Nov_06,217,001,1,source,0,SNAGS,LF,target,right,yellow,imageability,liberal,yes,8,1,1.94599180125,-,-
2019_Nov_06,217,001,1,source,1,DWINDLE,LF,target,right,yellow,imageability,conservative,no,2,0,1.66646197906,-,-
2019_Nov_06,217,001,1,source,2,THANK,HF,target,left,aqua,pleasantness,conservative,no,2,1,1.49312506278,-,-
2019_Nov_06,217,001,1,source,3,NUMBER,HF,target,right,yellow,imageability,conservative,no,8,1,1.55976975761,-,-
2019_Nov_06,217,001,1,source,4,SMALL,HF,target,left,aqua,pleasantness,conservative,no,2,1,1.39979448143,-,-
2019_Nov_06,217,001,1,source,5,PUMPKIN,LF,target,right,yellow,imageability,conservative,yes,8,1,1.26631775679,-,-
2019_Nov_06,217,001,1,source,6,MEMBERS,HF,target,left,aqua,pleasantness,liberal,no,1,1,2.09335917652,-,-
2019_Nov_06,217,001,1,source,7,SMOCK,LF,target,left,aqua,pleasantness,conservative,no,9,0,1.78647038164,-,-
2019_Nov_06,217,001,1,source,8,LOOKED,HF,target,left,aqua,pleasantness,liberal,no,2,1,1.86628754857,-,-
2019_Nov_06,217,001,1,source,9,COMES,HF,target,right,yellow,imageability,liberal,no,2,0,0.946647290388,-,-
2019_Nov_06,217,001,1,source,10,WALKED,HF,target,right,yellow,imageability,liberal,no,8,1,1.62641408583,-,-
2019_Nov_06,217,001,1,source,11,ASKED,HF,target,left,aqua,pleasantness,liberal,no,7,0,1.03973517946,-,-
2019_Nov_06,217,001,1,source,12,TWAIN,LF,target,right,yellow,imageability,liberal,yes,9,1,1.33317544893,-,-
2019_Nov_06,217,001,1,source,13,GAPED,LF,target,right,yellow,imageability,conservative,no,2,0,3.19899850939,-,-
2019_Nov_06,217,001,1,source,14,LAUNCHER,LF,target,left,aqua,pleasantness,conservative,no,3,1,1.58646260962,-,-
2019_Nov_06,217,001,1,source,15,NURTURING,LF,target,left,aqua,pleasantness,conservative,no,1,1,1.31975185264,-,-
2019_Nov_06,217,001,1,source,16,MOTHER,HF,target,left,aqua,pleasantness,conservative,no,1,1,1.37288386624,-,-
2019_Nov_06,217,001,1,source,17,LONGER,HF,target,left,aqua,pleasantness,conservative,no,1,1,1.10660570276,-,-
2019_Nov_06,217,001,1,source,18,TUMBLER,LF,target,left,aqua,pleasantness,liberal,no,9,0,1.97289655076,-,-
2019_Nov_06,217,001,1,source,19,BEAUTIFUL,HF,target,right,yellow,imageability,conservative,no,9,1,0.880148137612,-,-
2019_Nov_06,217,001,1,source,20,REIGNING,LF,target,left,aqua,pleasantness,liberal,no,3,1,2.5327627254,-,-
2019_Nov_06,217,001,1,source,21,SANDAL,LF,target,right,yellow,imageability,liberal,no,8,1,2.25280250934,-,-
2019_Nov_06,217,001,1,source,22,BUTCHERED,LF,target,right,yellow,imageability,liberal,no,9,1,1.09331335094,-,-
2019_Nov_06,217,001,1,source,23,HICKORY,LF,target,right,yellow,imageability,liberal,no,9,1,1.33347606475,-,-
2019_Nov_06,217,001,1,source,24,SPOKE,HF,target,right,yellow,imageability,conservative,no,9,1,1.38646546914,-,-
2019_Nov_06,217,001,1,source,25,SOYBEAN,LF,target,right,yellow,imageability,liberal,no,9,1,0.893316943661,-,-
2019_Nov_06,217,001,1,source,26,STEADFAST,LF,target,left,aqua,pleasantness,conservative,no,1,1,1.50643831107,-,-
2019_Nov_06,217,001,1,source,27,RESEARCH,HF,target,left,aqua,pleasantness,liberal,no,2,1,1.37314085611,-,-
2019_Nov_06,217,001,1,source,28,MERELY,HF,target,left,aqua,pleasantness,conservative,no,1,1,1.13304303132,-,-
2019_Nov_06,217,001,1,source,29,AUDACIOUS,LF,target,right,yellow,imageability,conservative,no,9,1,1.73283905249,-,-
2019_Nov_06,217,001,1,source,30,SPACE,HF,target,left,aqua,pleasantness,liberal,no,8,0,1.6797715613,-,-
2019_Nov_06,217,001,1,source,31,NEITHER,HF,target,left,aqua,pleasantness,conservative,no,7,0,1.94639983224,-,-
2019_Nov_06,217,001,1,source,32,WAGGED,LF,target,left,aqua,pleasantness,liberal,no,3,1,2.46594022731,-,-
2019_Nov_06,217,001,1,source,33,APART,HF,target,right,yellow,imageability,liberal,no,8,1,2.61271406963,-,-
2019_Nov_06,217,001,1,source,34,COUNCIL,HF,target,right,yellow,imageability,conservative,yes,2,0,2.34610926139,-,-
2019_Nov_06,217,001,1,source,35,DOGMAS,LF,target,left,aqua,pleasantness,conservative,no,1,1,1.25320540786,-,-
2019_Nov_06,217,001,1,source,36,HYACINTHS,LF,target,right,yellow,imageability,conservative,no,9,1,1.43950949763,-,-
2019_Nov_06,217,001,1,source,37,AMONG,HF,target,right,yellow,imageability,liberal,no,8,1,0.933327076614,-,-
2019_Nov_06,217,001,1,source,38,HYSTERICS,LF,target,right,yellow,imageability,conservative,no,1,0,1.89296133714,-,-
2019_Nov_06,217,001,1,source,39,FIGURE,HF,target,right,yellow,imageability,liberal,no,2,0,1.50655305833,-,-
2019_Nov_06,217,001,1,source,40,HOSPITAL,HF,target,right,yellow,imageability,conservative,no,9,1,1.34630429507,-,-
2019_Nov_06,217,001,1,source,41,DYNAMISM,LF,target,left,aqua,pleasantness,liberal,no,9,0,1.22634208468,-,-
2019_Nov_06,217,001,1,source,42,KIMONO,LF,target,left,aqua,pleasantness,liberal,no,1,1,1.27987039792,-,-
2019_Nov_06,217,001,1,source,43,QUALITY,HF,target,right,yellow,imageability,liberal,no,1,0,0.933592864993,-,-
2019_Nov_06,217,001,1,source,44,ALTHOUGH,HF,target,right,yellow,imageability,conservative,no,2,0,1.05330285138,-,-
2019_Nov_06,217,001,1,source,45,HIVES,LF,target,left,aqua,pleasantness,conservative,no,1,1,1.06674147846,-,-
2019_Nov_06,217,001,1,source,46,WELCOMES,LF,target,left,aqua,pleasantness,liberal,no,1,1,1.16012778372,-,-
2019_Nov_06,217,001,1,source,47,BETTER,HF,target,left,aqua,pleasantness,liberal,no,9,0,1.71961892179,-,-
2019_Nov_06,217,001,1,recog,0,MEMBERS,HF,target,left,aqua,pleasantness,liberal,no,z,1,1.46647070425,3,181
2019_Nov_06,217,001,1,recog,1,STUDENT,HF,lure,-,-,-,liberal,no,m,1,1.59976559298,1,182
2019_Nov_06,217,001,1,recog,2,LOOKED,HF,target,left,aqua,pleasantness,liberal,no,z,1,0.653466943624,3,185
2019_Nov_06,217,001,1,recog,3,SOMEONE,HF,lure,-,-,-,liberal,no,m,1,0.760024621169,1,186
2019_Nov_06,217,001,1,recog,4,POINT,HF,lure,-,-,-,conservative,no,m,1,0.893322076126,3,189
2019_Nov_06,217,001,1,recog,5,SECOND,HF,lure,-,-,-,conservative,no,m,1,1.02668148727,3,192
2019_Nov_06,217,001,1,recog,6,HOURS,HF,lure,-,-,-,liberal,no,m,1,0.813391261758,1,193
2019_Nov_06,217,001,1,recog,7,LAUNCHER,LF,target,left,aqua,pleasantness,conservative,no,z,1,0.666560229113,1,194
2019_Nov_06,217,001,1,recog,8,UPTIGHT,LF,lure,-,-,-,liberal,no,m,1,0.97331154724,1,195
2019_Nov_06,217,001,1,recog,9,DELEGATED,LF,lure,-,-,-,conservative,no,m,1,0.706718836954,3,198
2019_Nov_06,217,001,1,recog,10,SMOCK,LF,target,left,aqua,pleasantness,conservative,no,z,1,0.680065211637,1,199
2019_Nov_06,217,001,1,recog,11,MOTHER,HF,target,left,aqua,pleasantness,conservative,yes,m,0,1.43980168154,-1,198
2019_Nov_06,217,001,1,recog,12,TOILED,LF,lure,-,-,-,liberal,no,m,1,2.81259499643,1,199
2019_Nov_06,217,001,1,recog,13,CIRCUSES,LF,lure,-,-,-,conservative,no,m,1,0.959727744714,3,202
2019_Nov_06,217,001,1,recog,14,PLIABLE,LF,lure,-,-,-,conservative,no,m,1,0.733446516412,3,205
2019_Nov_06,217,001,1,recog,15,HIGHER,HF,lure,-,-,-,conservative,no,m,1,0.760145234103,3,208
2019_Nov_06,217,001,1,recog,16,ALTHOUGH,HF,target,right,yellow,imageability,conservative,no,z,1,0.746734835581,1,209
2019_Nov_06,217,001,1,recog,17,REIGNING,LF,target,left,aqua,pleasantness,liberal,no,z,1,0.85347214941,3,212
2019_Nov_06,217,001,1,recog,18,MYRIADS,LF,lure,-,-,-,liberal,no,m,1,1.41290683036,1,213
2019_Nov_06,217,001,1,recog,19,SWIFTNESS,LF,lure,-,-,-,liberal,no,m,1,0.960359771151,1,214
2019_Nov_06,217,001,1,recog,20,UPKEEP,LF,lure,-,-,-,conservative,no,m,1,1.35953762354,3,217
2019_Nov_06,217,001,1,recog,21,DOGMAS,LF,target,left,aqua,pleasantness,conservative,yes,m,0,1.039998035,-1,216
2019_Nov_06,217,001,1,recog,22,AUSPICES,LF,lure,-,-,-,liberal,no,m,1,1.9462942501,1,217
2019_Nov_06,217,001,1,recog,23,HOSPITAL,HF,target,right,yellow,imageability,conservative,no,z,1,0.893724974649,1,218
2019_Nov_06,217,001,1,recog,24,DYNAMISM,LF,target,left,aqua,pleasantness,liberal,no,z,1,0.906397764591,3,221
2019_Nov_06,217,001,1,recog,25,GLIDED,LF,lure,-,-,-,conservative,no,m,1,0.77337049727,3,224
2019_Nov_06,217,001,1,recog,26,PREPARED,HF,lure,-,-,-,liberal,no,m,1,1.18659847331,1,225
2019_Nov_06,217,001,1,recog,27,BUCKED,LF,lure,-,-,-,conservative,no,m,1,0.746706607023,3,228
2019_Nov_06,217,001,1,recog,28,EPIDEMICS,LF,lure,-,-,-,liberal,no,m,1,0.73370973856,1,229
2019_Nov_06,217,001,1,recog,29,FRACTIONS,LF,lure,-,-,-,conservative,no,m,1,0.640142697199,3,232
2019_Nov_06,217,001,1,recog,30,SHALL,HF,lure,-,-,-,conservative,no,m,1,0.680363261227,3,235
2019_Nov_06,217,001,1,recog,31,NUCLEAR,HF,lure,-,-,-,liberal,no,m,1,0.760235785454,1,236
2019_Nov_06,217,001,1,recog,32,LARGE,HF,lure,-,-,-,conservative,no,m,1,1.82636686715,3,239
2019_Nov_06,217,001,1,recog,33,MERELY,HF,target,left,aqua,pleasantness,conservative,no,z,1,0.800071414588,1,240
2019_Nov_06,217,001,1,recog,34,SPOKE,HF,target,right,yellow,imageability,conservative,no,z,1,0.653433949205,1,241
2019_Nov_06,217,001,1,recog,35,NEITHER,HF,target,left,aqua,pleasantness,conservative,no,z,1,1.15966036278,1,242
2019_Nov_06,217,001,1,recog,36,AUDACIOUS,LF,target,right,yellow,imageability,conservative,no,z,1,0.746772962466,1,243
2019_Nov_06,217,001,1,recog,37,ASKED,HF,target,left,aqua,pleasantness,liberal,no,z,1,1.00008505228,3,246
2019_Nov_06,217,001,1,recog,38,HICKORY,LF,target,right,yellow,imageability,liberal,no,z,1,0.613510701557,3,249
2019_Nov_06,217,001,1,recog,39,SIZZLING,LF,lure,-,-,-,liberal,no,m,1,0.666738032374,1,250
2019_Nov_06,217,001,1,recog,40,LASER,LF,lure,-,-,-,liberal,no,m,1,0.600539862025,1,251
2019_Nov_06,217,001,1,recog,41,LONGER,HF,target,left,aqua,pleasantness,conservative,no,z,1,1.06658200543,1,252
2019_Nov_06,217,001,1,recog,42,UNTIL,HF,lure,-,-,-,conservative,no,z,0,0.866682748391,-3,249
2019_Nov_06,217,001,1,recog,43,BEAUTIFUL,HF,target,right,yellow,imageability,conservative,no,z,1,0.813354234687,1,250
2019_Nov_06,217,001,1,recog,44,KIMONO,LF,target,left,aqua,pleasantness,liberal,no,z,1,0.693476343368,3,253
2019_Nov_06,217,001,1,recog,45,THANK,HF,target,left,aqua,pleasantness,conservative,no,z,1,0.640096871616,1,254
2019_Nov_06,217,001,1,recog,46,WRITE,HF,lure,-,-,-,liberal,yes,z,0,1.03995954151,-1,253
2019_Nov_06,217,001,1,recog,47,DOUBT,HF,lure,-,-,-,liberal,no,m,1,0.983652731535,1,254
2019_Nov_06,217,001,1,recog,48,SOYBEAN,LF,target,right,yellow,imageability,liberal,no,z,1,0.693431250994,3,257
2019_Nov_06,217,001,1,recog,49,AMONG,HF,target,right,yellow,imageability,liberal,no,z,1,1.21317217881,3,260
2019_Nov_06,217,001,1,recog,50,COMES,HF,target,right,yellow,imageability,liberal,no,z,1,0.853536305226,3,263
2019_Nov_06,217,001,1,recog,51,AGNOSTIC,LF,lure,-,-,-,liberal,no,z,0,1.16006876037,-1,262
2019_Nov_06,217,001,1,recog,52,BREAK,HF,lure,-,-,-,conservative,yes,m,1,1.29316201653,3,265
2019_Nov_06,217,001,1,recog,53,POUNDS,HF,lure,-,-,-,conservative,no,m,1,1.17334754782,3,268
2019_Nov_06,217,001,1,recog,54,HYACINTHS,LF,target,right,yellow,imageability,conservative,no,z,1,0.733518004321,1,269
2019_Nov_06,217,001,1,recog,55,WALKED,HF,target,right,yellow,imageability,liberal,no,z,1,1.06673854562,3,272
2019_Nov_06,217,001,1,recog,56,COUNCIL,HF,target,right,yellow,imageability,conservative,no,z,1,1.34655211982,1,273
2019_Nov_06,217,001,1,recog,57,APART,HF,target,right,yellow,imageability,liberal,no,z,1,0.799887379048,3,276
2019_Nov_06,217,001,1,recog,58,GUSHED,LF,lure,-,-,-,conservative,no,m,1,0.800029621657,3,279
2019_Nov_06,217,001,1,recog,59,NURTURING,LF,target,left,aqua,pleasantness,conservative,no,z,1,0.813688944743,1,280
2019_Nov_06,217,001,1,recog,60,SPACE,HF,target,left,aqua,pleasantness,liberal,no,z,1,1.42664277382,3,283
2019_Nov_06,217,001,1,recog,61,RAVAGES,LF,lure,-,-,-,conservative,no,m,1,0.800245551802,3,286
2019_Nov_06,217,001,1,recog,62,OTHERS,HF,lure,-,-,-,conservative,no,m,1,0.920015661351,3,289
2019_Nov_06,217,001,1,recog,63,HUNDRED,HF,lure,-,-,-,liberal,no,m,1,0.693546364858,1,290
2019_Nov_06,217,001,1,recog,64,HIVES,LF,target,left,aqua,pleasantness,conservative,no,z,1,0.747120137081,1,291
2019_Nov_06,217,001,1,recog,65,CAPITAL,HF,lure,-,-,-,liberal,no,m,1,1.00030794792,1,292
2019_Nov_06,217,001,1,recog,66,BUILDING,HF,lure,-,-,-,conservative,no,m,1,1.10658224006,3,295
2019_Nov_06,217,001,1,recog,67,GUMMED,LF,lure,-,-,-,conservative,no,m,1,0.600136963502,3,298
2019_Nov_06,217,001,1,recog,68,WAGGED,LF,target,left,aqua,pleasantness,liberal,no,z,1,0.72029237455,3,301
2019_Nov_06,217,001,1,recog,69,DWINDLE,LF,target,right,yellow,imageability,conservative,no,z,1,0.746781027769,1,302
2019_Nov_06,217,001,1,recog,70,PLACE,HF,lure,-,-,-,liberal,no,m,1,0.760079611868,1,303
2019_Nov_06,217,001,1,recog,71,NUMBER,HF,target,right,yellow,imageability,conservative,no,z,1,1.23992332097,1,304
2019_Nov_06,217,001,1,recog,72,SANDAL,LF,target,right,yellow,imageability,liberal,no,z,1,0.693431617599,3,307
2019_Nov_06,217,001,1,recog,73,FUNNILY,LF,lure,-,-,-,liberal,no,m,1,0.680185091362,1,308
2019_Nov_06,217,001,1,recog,74,AGELESS,LF,lure,-,-,-,conservative,no,m,1,1.0535011845,3,311
2019_Nov_06,217,001,1,recog,75,MINISTER,HF,lure,-,-,-,conservative,no,m,1,0.693452880669,3,314
2019_Nov_06,217,001,1,recog,76,LIVED,HF,lure,-,-,-,liberal,no,m,1,0.746723104232,1,315
2019_Nov_06,217,001,1,recog,77,PSALMS,LF,lure,-,-,-,liberal,no,m,1,0.786722239045,1,316
2019_Nov_06,217,001,1,recog,78,BUTCHERED,LF,target,right,yellow,imageability,liberal,no,z,1,0.719853915374,3,319
2019_Nov_06,217,001,1,recog,79,HOODLUMS,LF,lure,-,-,-,conservative,no,m,1,0.999765006412,3,322
2019_Nov_06,217,001,1,recog,80,PURCHASER,LF,lure,-,-,-,liberal,no,m,1,0.680138165965,1,323
2019_Nov_06,217,001,1,recog,81,GAPED,LF,target,right,yellow,imageability,conservative,no,z,1,0.693613820116,1,324
2019_Nov_06,217,001,1,recog,82,WELCOMES,LF,target,left,aqua,pleasantness,liberal,no,z,1,0.866849186908,3,327
2019_Nov_06,217,001,1,recog,83,QUALITY,HF,target,right,yellow,imageability,liberal,no,z,1,0.680139265779,3,330
2019_Nov_06,217,001,1,recog,84,ALONE,HF,lure,-,-,-,liberal,no,m,1,1.05325995863,1,331
2019_Nov_06,217,001,1,recog,85,HYSTERICS,LF,target,right,yellow,imageability,conservative,no,z,1,0.74672530386,1,332
2019_Nov_06,217,001,1,recog,86,SMALL,HF,target,left,aqua,pleasantness,conservative,no,z,1,0.920104013075,1,333
2019_Nov_06,217,001,1,recog,87,PUMPKIN,LF,target,right,yellow,imageability,conservative,no,z,1,1.17316864474,1,334
2019_Nov_06,217,001,1,recog,88,FIGURE,HF,target,right,yellow,imageability,liberal,no,z,1,1.25319001046,3,337
2019_Nov_06,217,001,1,recog,89,TUMBLER,LF,target,left,aqua,pleasantness,liberal,no,z,1,0.666819052004,3,340
2019_Nov_06,217,001,1,recog,90,RESEARCH,HF,target,left,aqua,pleasantness,liberal,no,z,1,0.773466547691,3,343
2019_Nov_06,217,001,1,recog,91,STEADFAST,LF,target,left,aqua,pleasantness,conservative,no,z,1,0.73351947074,1,344
2019_Nov_06,217,001,1,recog,92,SNAGS,LF,target,right,yellow,imageability,liberal,no,z,1,0.879779333322,3,347
2019_Nov_06,217,001,1,recog,93,BETTER,HF,target,left,aqua,pleasantness,liberal,no,z,1,0.733436618087,3,350
2019_Nov_06,217,001,1,recog,94,HIMSELF,HF,lure,-,-,-,conservative,no,m,1,0.7865063089,3,353
2019_Nov_06,217,001,1,recog,95,TWAIN,LF,target,right,yellow,imageability,liberal,no,z,1,0.733401057434,3,356
2019_Nov_06,217,001,2,source,0,SKIDDED,LF,target,left,aqua,pleasantness,conservative,no,2,1,2.62765137656,-,-
2019_Nov_06,217,001,2,source,1,CESSATION,LF,target,right,yellow,imageability,conservative,no,8,1,1.71974136774,-,-
2019_Nov_06,217,001,2,source,2,AMULETS,LF,target,left,aqua,pleasantness,conservative,yes,7,0,1.15993128362,-,-
2019_Nov_06,217,001,2,source,3,PASSED,HF,target,left,aqua,pleasantness,conservative,no,2,1,1.53306847369,-,-
2019_Nov_06,217,001,2,source,4,LIKELY,HF,target,left,aqua,pleasantness,liberal,no,9,0,1.39987146841,-,-
2019_Nov_06,217,001,2,source,5,GUESSWORK,LF,target,left,aqua,pleasantness,liberal,no,1,1,1.47972089654,-,-
2019_Nov_06,217,001,2,source,6,DWARFED,LF,target,left,aqua,pleasantness,liberal,no,1,1,1.4131227605,-,-
2019_Nov_06,217,001,2,source,7,FOLLOWED,HF,target,left,aqua,pleasantness,liberal,no,9,0,2.90565355713,-,-
2019_Nov_06,217,001,2,source,8,BALDING,LF,target,right,yellow,imageability,conservative,no,9,1,1.22649679184,-,-
2019_Nov_06,217,001,2,source,9,DIFFERENT,HF,target,left,aqua,pleasantness,liberal,no,7,0,1.97290461607,-,-
2019_Nov_06,217,001,2,source,10,NEEDED,HF,target,right,yellow,imageability,liberal,no,7,1,1.75802589255,-,-
2019_Nov_06,217,001,2,source,11,INVOLVED,HF,target,right,yellow,imageability,conservative,no,3,0,1.89318496598,-,-
2019_Nov_06,217,001,2,source,12,BAPTIZED,LF,target,right,yellow,imageability,conservative,no,9,1,1.55976792459,-,-
2019_Nov_06,217,001,2,source,13,SLOWLY,HF,target,right,yellow,imageability,conservative,no,1,0,1.78639009522,-,-
2019_Nov_06,217,001,2,source,14,ORIGINALS,LF,target,right,yellow,imageability,conservative,no,2,0,1.09323783037,-,-
2019_Nov_06,217,001,2,source,15,BENIGNLY,LF,target,right,yellow,imageability,liberal,no,9,1,1.3065603171,-,-
2019_Nov_06,217,001,2,source,16,GARDEN,HF,target,left,aqua,pleasantness,conservative,yes,3,1,1.63973613263,-,-
2019_Nov_06,217,001,2,source,17,TOTAL,HF,target,right,yellow,imageability,liberal,no,2,0,0.933646022669,-,-
2019_Nov_06,217,001,2,source,18,USING,HF,target,right,yellow,imageability,conservative,yes,2,0,0.973359205846,-,-
2019_Nov_06,217,001,2,source,19,WAXEN,LF,target,right,yellow,imageability,liberal,no,8,1,1.57310866822,-,-
2019_Nov_06,217,001,2,source,20,GLASS,HF,target,left,aqua,pleasantness,conservative,no,1,1,1.61303558192,-,-
2019_Nov_06,217,001,2,source,21,OCTAGONAL,LF,target,left,aqua,pleasantness,liberal,no,1,1,0.826491146131,-,-
2019_Nov_06,217,001,2,source,22,HAMLETS,LF,target,left,aqua,pleasantness,liberal,yes,3,1,1.01337850392,-,-
2019_Nov_06,217,001,2,source,23,LABOUR,HF,target,left,aqua,pleasantness,conservative,no,9,0,1.5864688419,-,-
2019_Nov_06,217,001,2,source,24,CABLED,LF,target,right,yellow,imageability,liberal,no,9,1,0.973365438126,-,-
2019_Nov_06,217,001,2,source,25,CRACKLE,LF,target,left,aqua,pleasantness,liberal,no,1,1,1.69276586353,-,-
2019_Nov_06,217,001,2,source,26,SENSE,HF,target,right,yellow,imageability,liberal,no,2,0,0.933327076614,-,-
2019_Nov_06,217,001,2,source,27,GRUBS,LF,target,right,yellow,imageability,conservative,no,9,1,1.4797725878,-,-
2019_Nov_06,217,001,2,source,28,BUSINESS,HF,target,right,yellow,imageability,liberal,no,9,1,2.34612942464,-,-
2019_Nov_06,217,001,2,source,29,PESTERED,LF,target,right,yellow,imageability,liberal,no,7,1,1.76022991978,-,-
2019_Nov_06,217,001,2,source,30,DUPLICITY,LF,target,left,aqua,pleasantness,conservative,no,3,1,1.5197706228,-,-
2019_Nov_06,217,001,2,source,31,GETTING,HF,target,right,yellow,imageability,conservative,no,8,1,1.90625368896,-,-
2019_Nov_06,217,001,2,source,32,DOODLE,LF,target,right,yellow,imageability,conservative,no,2,0,1.70633500187,-,-
2019_Nov_06,217,001,2,source,33,EJECTED,LF,target,left,aqua,pleasantness,liberal,no,3,1,1.13325016296,-,-
2019_Nov_06,217,001,2,source,34,LAXATIVE,LF,target,left,aqua,pleasantness,conservative,no,1,1,1.01335687424,-,-
2019_Nov_06,217,001,2,source,35,AREAS,HF,target,left,aqua,pleasantness,liberal,no,1,1,0.799800493743,-,-
2019_Nov_06,217,001,2,source,36,SUBJECT,HF,target,right,yellow,imageability,liberal,no,9,1,1.26660224201,-,-
2019_Nov_06,217,001,2,source,37,TAMING,LF,target,right,yellow,imageability,liberal,no,8,1,1.29293068899,-,-
2019_Nov_06,217,001,2,source,38,CONCERNED,HF,target,right,yellow,imageability,conservative,no,8,1,1.02662539676,-,-
2019_Nov_06,217,001,2,source,39,COBALT,LF,target,right,yellow,imageability,liberal,no,2,0,1.53307250634,-,-
2019_Nov_06,217,001,2,source,40,TIMES,HF,target,left,aqua,pleasantness,liberal,no,1,1,0.946620161643,-,-
2019_Nov_06,217,001,2,source,41,VARIOUS,HF,target,left,aqua,pleasantness,liberal,no,2,1,0.879883815651,-,-
2019_Nov_06,217,001,2,source,42,ERUDITE,LF,target,left,aqua,pleasantness,conservative,no,3,1,0.720134734545,-,-
2019_Nov_06,217,001,2,source,43,BEGAN,HF,target,left,aqua,pleasantness,conservative,no,3,1,0.986755306786,-,-
2019_Nov_06,217,001,2,source,44,GENERAL,HF,target,left,aqua,pleasantness,conservative,no,3,1,1.33318424744,-,-
2019_Nov_06,217,001,2,source,45,FEELING,HF,target,right,yellow,imageability,conservative,no,2,0,1.37327649983,-,-
2019_Nov_06,217,001,2,source,46,EMACIATED,LF,target,left,aqua,pleasantness,conservative,no,1,1,1.35975868615,-,-
2019_Nov_06,217,001,2,source,47,GREATER,HF,target,right,yellow,imageability,liberal,no,9,1,1.58644024674,-,-
2019_Nov_06,217,001,2,recog,0,VARIOUS,HF,target,left,aqua,pleasantness,liberal,no,z,1,1.07999826963,3,359
2019_Nov_06,217,001,2,recog,1,GUESSWORK,LF,target,left,aqua,pleasantness,liberal,no,z,1,0.586817482936,3,362
2019_Nov_06,217,001,2,recog,2,AREAS,HF,target,left,aqua,pleasantness,liberal,no,z,1,0.626769325748,3,365
2019_Nov_06,217,001,2,recog,3,NEEDED,HF,target,right,yellow,imageability,liberal,no,z,1,0.573489570464,3,368
2019_Nov_06,217,001,2,recog,4,EJECTED,LF,target,left,aqua,pleasantness,liberal,no,z,1,0.573269974272,3,371
2019_Nov_06,217,001,2,recog,5,RAREFIED,LF,lure,-,-,-,conservative,no,m,1,0.680130833872,3,374
2019_Nov_06,217,001,2,recog,6,FEELING,HF,target,right,yellow,imageability,conservative,no,z,1,0.773368664247,1,375
2019_Nov_06,217,001,2,recog,7,GREATER,HF,target,right,yellow,imageability,liberal,no,z,1,0.693438216483,3,378
2019_Nov_06,217,001,2,recog,8,STYLED,LF,lure,-,-,-,conservative,no,m,1,0.666740232002,3,381
2019_Nov_06,217,001,2,recog,9,LIKELY,HF,target,left,aqua,pleasantness,liberal,no,z,1,0.653239282129,3,384
2019_Nov_06,217,001,2,recog,10,PUBLIC,HF,lure,-,-,-,liberal,no,m,1,0.839761868276,1,385
2019_Nov_06,217,001,2,recog,11,TIMES,HF,target,left,aqua,pleasantness,liberal,no,z,1,0.640134998501,3,388
2019_Nov_06,217,001,2,recog,12,CHURCH,HF,lure,-,-,-,conservative,no,m,1,0.853500011365,3,391
2019_Nov_06,217,001,2,recog,13,INSIDE,HF,lure,-,-,-,conservative,no,m,1,0.653489306509,3,394
2019_Nov_06,217,001,2,recog,14,NATIONAL,HF,lure,-,-,-,conservative,no,m,1,0.653573992186,3,397
2019_Nov_06,217,001,2,recog,15,PASSED,HF,target,left,aqua,pleasantness,conservative,no,z,1,0.626877107519,1,398
2019_Nov_06,217,001,2,recog,16,TOTAL,HF,target,right,yellow,imageability,liberal,no,z,1,0.653454112461,3,401
2019_Nov_06,217,001,2,recog,17,BAPTIZED,LF,target,right,yellow,imageability,conservative,no,z,1,0.680128267639,1,402
2019_Nov_06,217,001,2,recog,18,OCTAGONAL,LF,target,left,aqua,pleasantness,liberal,no,z,1,0.679995190147,3,405
2019_Nov_06,217,001,2,recog,19,BLACK,HF,lure,-,-,-,conservative,no,m,1,0.586574424046,3,408
2019_Nov_06,217,001,2,recog,20,CLASS,HF,lure,-,-,-,conservative,no,m,1,0.906406563103,3,411
2019_Nov_06,217,001,2,recog,21,SLOWLY,HF,target,right,yellow,imageability,conservative,no,z,1,0.679855513771,1,412
2019_Nov_06,217,001,2,recog,22,SHEARING,LF,lure,-,-,-,liberal,no,m,1,0.759867347769,1,413
2019_Nov_06,217,001,2,recog,23,EMACIATED,LF,target,left,aqua,pleasantness,conservative,no,z,1,1.05328562096,1,414
2019_Nov_06,217,001,2,recog,24,MAKES,HF,lure,-,-,-,liberal,no,m,1,0.946565170944,1,415
2019_Nov_06,217,001,2,recog,25,HAVING,HF,lure,-,-,-,liberal,no,m,1,0.880041089051,1,416
2019_Nov_06,217,001,2,recog,26,GETTING,HF,target,right,yellow,imageability,conservative,no,z,1,0.600121199501,1,417
2019_Nov_06,217,001,2,recog,27,CABLED,LF,target,right,yellow,imageability,liberal,no,z,1,0.720071678543,3,420
2019_Nov_06,217,001,2,recog,28,BIKINI,LF,lure,-,-,-,liberal,no,m,1,0.760445849925,1,421
2019_Nov_06,217,001,2,recog,29,PAPER,HF,lure,-,-,-,liberal,no,m,1,1.38645483761,1,422
2019_Nov_06,217,001,2,recog,30,ABOVE,HF,lure,-,-,-,conservative,no,z,0,1.27994115262,-3,419
2019_Nov_06,217,001,2,recog,31,STOOD,HF,lure,-,-,-,conservative,no,m,1,1.78670354221,3,422
2019_Nov_06,217,001,2,recog,32,BALDING,LF,target,right,yellow,imageability,conservative,no,z,1,0.653461444554,1,423
2019_Nov_06,217,001,2,recog,33,LETTER,HF,lure,-,-,-,liberal,no,m,1,1.25324096851,1,424
2019_Nov_06,217,001,2,recog,34,WESTERN,HF,lure,-,-,-,liberal,no,m,1,0.959778702762,1,425
2019_Nov_06,217,001,2,recog,35,QUICKLY,HF,lure,-,-,-,conservative,no,m,1,0.786699876161,3,428
2019_Nov_06,217,001,2,recog,36,CRONE,LF,lure,-,-,-,conservative,no,m,1,0.706819286631,3,431
2019_Nov_06,217,001,2,recog,37,TELEPHONE,HF,lure,-,-,-,conservative,no,m,1,0.653449346601,3,434
2019_Nov_06,217,001,2,recog,38,WAXEN,LF,target,right,yellow,imageability,liberal,no,z,1,0.813298877383,3,437
2019_Nov_06,217,001,2,recog,39,BENIGNLY,LF,target,right,yellow,imageability,liberal,no,z,1,0.8000959771,3,440
2019_Nov_06,217,001,2,recog,40,DWARFED,LF,target,left,aqua,pleasantness,liberal,no,z,1,0.72004858245,3,443
2019_Nov_06,217,001,2,recog,41,ERUDITE,LF,target,left,aqua,pleasantness,conservative,no,z,1,1.00000146642,1,444
2019_Nov_06,217,001,2,recog,42,USUAL,HF,lure,-,-,-,conservative,no,m,1,0.70675623063,3,447
2019_Nov_06,217,001,2,recog,43,BUSINESS,HF,target,right,yellow,imageability,liberal,no,z,1,0.573512299953,3,450
2019_Nov_06,217,001,2,recog,44,DOING,HF,lure,-,-,-,liberal,no,m,1,1.58639662078,1,451
2019_Nov_06,217,001,2,recog,45,OUTSIDE,HF,lure,-,-,-,liberal,no,m,1,0.706553131647,1,452
2019_Nov_06,217,001,2,recog,46,DRYER,LF,lure,-,-,-,liberal,no,m,1,0.693519236113,1,453
2019_Nov_06,217,001,2,recog,47,CONCERNED,HF,target,right,yellow,imageability,conservative,no,z,1,0.626800120539,1,454
2019_Nov_06,217,001,2,recog,48,HAMLETS,LF,target,left,aqua,pleasantness,liberal,no,z,1,0.719847683095,3,457
2019_Nov_06,217,001,2,recog,49,EMULATION,LF,lure,-,-,-,liberal,no,z,0,0.733497107856,-1,456
2019_Nov_06,217,001,2,recog,50,DUPLICITY,LF,target,left,aqua,pleasantness,conservative,no,z,1,1.35986133545,1,457
2019_Nov_06,217,001,2,recog,51,USING,HF,target,right,yellow,imageability,conservative,no,z,1,2.18618787609,1,458
2019_Nov_06,217,001,2,recog,52,INMATE,LF,lure,-,-,-,liberal,no,m,1,0.746466114364,1,459
2019_Nov_06,217,001,2,recog,53,TAMING,LF,target,right,yellow,imageability,liberal,no,z,1,0.933299581264,3,462
2019_Nov_06,217,001,2,recog,54,GRIEVE,LF,lure,-,-,-,liberal,no,m,1,1.1465916398,1,463
2019_Nov_06,217,001,2,recog,55,CRACKLE,LF,target,left,aqua,pleasantness,liberal,no,z,1,0.693469744484,3,466
2019_Nov_06,217,001,2,recog,56,GENERAL,HF,target,left,aqua,pleasantness,conservative,no,z,1,0.866849186908,1,467
2019_Nov_06,217,001,2,recog,57,FOLLOWED,HF,target,left,aqua,pleasantness,liberal,no,z,1,0.653556028557,3,470
2019_Nov_06,217,001,2,recog,58,RUPTURE,LF,lure,-,-,-,liberal,no,m,1,0.813541203064,1,471
2019_Nov_06,217,001,2,recog,59,LEFTISTS,LF,lure,-,-,-,conservative,no,m,1,1.09323709717,3,474
2019_Nov_06,217,001,2,recog,60,EGOISM,LF,lure,-,-,-,liberal,no,m,1,0.760075945822,1,475
2019_Nov_06,217,001,2,recog,61,DUGOUTS,LF,lure,-,-,-,conservative,no,m,1,0.773401658666,3,478
2019_Nov_06,217,001,2,recog,62,INVOLVED,HF,target,right,yellow,imageability,conservative,no,m,0,0.973483118222,-1,477
2019_Nov_06,217,001,2,recog,63,GARDEN,HF,target,left,aqua,pleasantness,conservative,no,z,1,1.20002903509,1,478
2019_Nov_06,217,001,2,recog,64,SIFTED,LF,lure,-,-,-,conservative,no,m,1,1.17297324446,3,481
2019_Nov_06,217,001,2,recog,65,SENSE,HF,target,right,yellow,imageability,liberal,no,z,1,0.919751705995,3,484
2019_Nov_06,217,001,2,recog,66,TOUSLED,LF,lure,-,-,-,liberal,no,m,1,0.866712443369,1,485
2019_Nov_06,217,001,2,recog,67,ORBITAL,LF,lure,-,-,-,conservative,no,m,1,0.733468879297,3,488
2019_Nov_06,217,001,2,recog,68,AMULETS,LF,target,left,aqua,pleasantness,conservative,no,z,1,0.866701445229,1,489
2019_Nov_06,217,001,2,recog,69,ERSTWHILE,LF,lure,-,-,-,conservative,no,m,1,0.747134434663,3,492
2019_Nov_06,217,001,2,recog,70,GRUBS,LF,target,right,yellow,imageability,conservative,no,z,1,0.613424916066,1,493
2019_Nov_06,217,001,2,recog,71,VICEREGAL,LF,lure,-,-,-,conservative,yes,m,1,1.30662740575,3,496
2019_Nov_06,217,001,2,recog,72,COBALT,LF,target,right,yellow,imageability,liberal,no,z,1,0.906651821622,3,499
2019_Nov_06,217,001,2,recog,73,CESSATION,LF,target,right,yellow,imageability,conservative,no,z,1,1.14660117152,1,500
2019_Nov_06,217,001,2,recog,74,SKIDDED,LF,target,left,aqua,pleasantness,conservative,no,z,1,1.02663126243,1,501
2019_Nov_06,217,001,2,recog,75,FREEDOM,HF,lure,-,-,-,liberal,no,m,1,0.986626995154,1,502
2019_Nov_06,217,001,2,recog,76,HUSBAND,HF,lure,-,-,-,liberal,yes,z,0,1.00009641703,-1,501
2019_Nov_06,217,001,2,recog,77,DIFFERENT,HF,target,left,aqua,pleasantness,liberal,no,z,1,1.87961326141,3,504
2019_Nov_06,217,001,2,recog,78,AUGMENT,LF,lure,-,-,-,liberal,no,m,1,2.15928642602,1,505
2019_Nov_06,217,001,2,recog,79,BEGAN,HF,target,left,aqua,pleasantness,conservative,no,m,0,0.946636658853,-1,504
2019_Nov_06,217,001,2,recog,80,LAXATIVE,LF,target,left,aqua,pleasantness,conservative,no,z,1,0.773425854574,1,505
2019_Nov_06,217,001,2,recog,81,HISTORY,HF,lure,-,-,-,conservative,yes,m,1,0.893360569616,3,508
2019_Nov_06,217,001,2,recog,82,STICKER,LF,lure,-,-,-,conservative,no,m,1,1.89295253863,3,511
2019_Nov_06,217,001,2,recog,83,TAGGED,LF,lure,-,-,-,conservative,no,m,1,0.959784201832,3,514
2019_Nov_06,217,001,2,recog,84,PESTERED,LF,target,right,yellow,imageability,liberal,no,z,1,0.853392596199,3,517
2019_Nov_06,217,001,2,recog,85,ALMOST,HF,lure,-,-,-,liberal,no,m,1,0.840018858144,1,518
2019_Nov_06,217,001,2,recog,86,PEOPLED,LF,lure,-,-,-,liberal,no,m,1,0.813077814772,1,519
2019_Nov_06,217,001,2,recog,87,FLICKS,LF,lure,-,-,-,conservative,no,m,1,0.946644724156,3,522
2019_Nov_06,217,001,2,recog,88,ORIGINALS,LF,target,right,yellow,imageability,conservative,no,z,1,1.10657674099,1,523
2019_Nov_06,217,001,2,recog,89,SAYING,HF,lure,-,-,-,liberal,no,m,1,1.03990675044,1,524
2019_Nov_06,217,001,2,recog,90,GLASS,HF,target,left,aqua,pleasantness,conservative,no,z,1,0.693380292947,1,525
2019_Nov_06,217,001,2,recog,91,DOODLE,LF,target,right,yellow,imageability,conservative,no,z,1,0.85334787043,1,526
2019_Nov_06,217,001,2,recog,92,LABOUR,HF,target,left,aqua,pleasantness,conservative,no,z,1,0.866441522523,1,527
2019_Nov_06,217,001,2,recog,93,SUBJECT,HF,target,right,yellow,imageability,liberal,no,z,1,0.999736044644,3,530
2019_Nov_06,217,001,2,recog,94,KRAALS,LF,lure,-,-,-,liberal,yes,z,0,1.07996710823,-1,529
2019_Nov_06,217,001,2,recog,95,MAJOR,HF,lure,-,-,-,conservative,no,m,1,1.32001250855,3,532
2019_Nov_06,217,001,3,source,0,CANNOT,HF,target,right,yellow,imageability,conservative,no,8,1,2.25261554096,-,-
2019_Nov_06,217,001,3,source,1,UNION,HF,target,right,yellow,imageability,liberal,no,8,1,1.99957840464,-,-
2019_Nov_06,217,001,3,source,2,FUMING,LF,target,right,yellow,imageability,conservative,no,9,1,3.54563274865,-,-
2019_Nov_06,217,001,3,source,3,TAKEN,HF,target,left,aqua,pleasantness,liberal,no,1,1,1.39981391147,-,-
2019_Nov_06,217,001,3,source,4,HAPPEN,HF,target,left,aqua,pleasantness,conservative,no,9,0,2.58607034264,-,-
2019_Nov_06,217,001,3,source,5,EXACTLY,HF,target,left,aqua,pleasantness,conservative,no,9,0,1.29314991858,-,-
2019_Nov_06,217,001,3,source,6,COVER,HF,target,right,yellow,imageability,conservative,no,9,1,1.87962205992,-,-
2019_Nov_06,217,001,3,source,7,INDEED,HF,target,right,yellow,imageability,conservative,no,9,1,1.31982700659,-,-
2019_Nov_06,217,001,3,source,8,ENERGY,HF,target,left,aqua,pleasantness,liberal,no,1,1,2.5860358818,-,-
2019_Nov_06,217,001,3,source,9,UGLIEST,LF,target,left,aqua,pleasantness,liberal,no,1,1,0.906482083664,-,-
2019_Nov_06,217,001,3,source,10,PUNCTUAL,LF,target,left,aqua,pleasantness,liberal,no,1,1,1.71944221834,-,-
2019_Nov_06,217,001,3,source,11,LAPELS,LF,target,right,yellow,imageability,conservative,no,8,1,2.02600510167,-,-
2019_Nov_06,217,001,3,source,12,POWER,HF,target,right,yellow,imageability,liberal,yes,7,1,1.57315046115,-,-
2019_Nov_06,217,001,3,source,13,BEHIND,HF,target,right,yellow,imageability,liberal,no,9,1,3.7719653016,-,-
2019_Nov_06,217,001,3,source,14,AUBURN,LF,target,left,aqua,pleasantness,conservative,no,1,1,1.31958541412,-,-
2019_Nov_06,217,001,3,source,15,NEARLY,HF,target,right,yellow,imageability,liberal,no,1,0,1.06642326561,-,-
2019_Nov_06,217,001,3,source,16,PEWTER,LF,target,left,aqua,pleasantness,liberal,no,1,1,1.49310453292,-,-
2019_Nov_06,217,001,3,source,17,MEETING,HF,target,left,aqua,pleasantness,conservative,no,1,1,0.800035487331,-,-
2019_Nov_06,217,001,3,source,18,YELLOWED,LF,target,right,yellow,imageability,liberal,no,9,1,1.66612616919,-,-
2019_Nov_06,217,001,3,source,19,ITSELF,HF,target,right,yellow,imageability,conservative,no,9,1,1.66637362734,-,-
2019_Nov_06,217,001,3,source,20,DEVELOPED,HF,target,right,yellow,imageability,liberal,no,1,0,1.78649641057,-,-
2019_Nov_06,217,001,3,source,21,KIDNAP,LF,target,left,aqua,pleasantness,liberal,no,1,1,0.786777229745,-,-
2019_Nov_06,217,001,3,source,22,INNATELY,LF,target,left,aqua,pleasantness,conservative,yes,3,1,0.906641556691,-,-
2019_Nov_06,217,001,3,source,23,NICETIES,LF,target,right,yellow,imageability,conservative,no,9,1,2.27944147047,-,-
2019_Nov_06,217,001,3,source,24,SAVOURED,LF,target,left,aqua,pleasantness,liberal,no,1,1,1.75965215083,-,-
2019_Nov_06,217,001,3,source,25,AEGIS,LF,target,right,yellow,imageability,liberal,no,9,1,1.50644197711,-,-
2019_Nov_06,217,001,3,source,26,DIGESTING,LF,target,left,aqua,pleasantness,conservative,no,1,1,1.54672303091,-,-
2019_Nov_06,217,001,3,source,27,TOWARDS,HF,target,left,aqua,pleasantness,liberal,no,9,0,1.81295756844,-,-
2019_Nov_06,217,001,3,source,28,VOWEL,LF,target,right,yellow,imageability,conservative,yes,7,1,0.826782596836,-,-
2019_Nov_06,217,001,3,source,29,FUTURE,HF,target,left,aqua,pleasantness,conservative,no,1,1,1.83938426547,-,-
2019_Nov_06,217,001,3,source,30,WATCH,HF,target,left,aqua,pleasantness,conservative,no,1,1,3.07912575053,-,-
2019_Nov_06,217,001,3,source,31,DEXTERITY,LF,target,left,aqua,pleasantness,conservative,no,1,1,0.706760263281,-,-
2019_Nov_06,217,001,3,source,32,WEAKENS,LF,target,right,yellow,imageability,conservative,no,9,1,2.33287409989,-,-
2019_Nov_06,217,001,3,source,33,BRUISING,LF,target,right,yellow,imageability,liberal,no,9,1,0.680090140754,-,-
2019_Nov_06,217,001,3,source,34,FRONT,HF,target,right,yellow,imageability,conservative,no,9,1,0.74671980479,-,-
2019_Nov_06,217,001,3,source,35,GIVEN,HF,target,right,yellow,imageability,conservative,no,9,1,1.46620968174,-,-
2019_Nov_06,217,001,3,source,36,VALUE,HF,target,right,yellow,imageability,liberal,no,1,0,2.14625986258,-,-
2019_Nov_06,217,001,3,source,37,SLIGHTLY,HF,target,left,aqua,pleasantness,liberal,no,1,1,1.25323950209,-,-
2019_Nov_06,217,001,3,source,38,RIVER,HF,target,left,aqua,pleasantness,liberal,no,9,0,1.83966508465,-,-
2019_Nov_06,217,001,3,source,39,LIFEBOAT,LF,target,right,yellow,imageability,conservative,no,9,1,2.1195776421,-,-
2019_Nov_06,217,001,3,source,40,IMMEDIACY,LF,target,left,aqua,pleasantness,conservative,no,1,1,1.42645323921,-,-
2019_Nov_06,217,001,3,source,41,JAILS,LF,target,left,aqua,pleasantness,conservative,yes,3,1,0.706513171739,-,-
2019_Nov_06,217,001,3,source,42,ODOURS,LF,target,right,yellow,imageability,liberal,no,1,0,0.799957033933,-,-
2019_Nov_06,217,001,3,source,43,ENZYME,LF,target,left,aqua,pleasantness,liberal,no,1,1,1.77319745987,-,-
2019_Nov_06,217,001,3,source,44,VAULTED,LF,target,right,yellow,imageability,liberal,no,1,0,1.63969360649,-,-
2019_Nov_06,217,001,3,source,45,BELIEVE,HF,target,left,aqua,pleasantness,liberal,no,1,1,1.53296069192,-,-
2019_Nov_06,217,001,3,source,46,SUAVE,LF,target,right,yellow,imageability,liberal,no,9,1,1.62617029373,-,-
2019_Nov_06,217,001,3,source,47,POLICE,HF,target,left,aqua,pleasantness,conservative,no,1,1,3.82431608067,-,-
2019_Nov_06,217,001,3,recog,0,BECAME,HF,lure,-,-,-,liberal,no,m,1,0.89342069278,1,533
2019_Nov_06,217,001,3,recog,1,SUPPORT,HF,lure,-,-,-,liberal,no,m,1,0.933357504801,1,534
2019_Nov_06,217,001,3,recog,2,TAKEN,HF,target,left,aqua,pleasantness,liberal,no,z,1,0.680110670615,3,537
2019_Nov_06,217,001,3,recog,3,SERIOUS,HF,lure,-,-,-,conservative,no,m,1,0.826712575346,3,540
2019_Nov_06,217,001,3,recog,4,SLIGHTLY,HF,target,left,aqua,pleasantness,liberal,no,z,1,0.653690205863,3,543
2019_Nov_06,217,001,3,recog,5,EXACTLY,HF,target,left,aqua,pleasantness,conservative,no,z,1,0.946617595411,1,544
2019_Nov_06,217,001,3,recog,6,POWER,HF,target,right,yellow,imageability,liberal,no,z,1,0.720117870731,3,547
2019_Nov_06,217,001,3,recog,7,KIDNAP,LF,target,left,aqua,pleasantness,liberal,no,z,1,0.600158226572,3,550
2019_Nov_06,217,001,3,recog,8,COVER,HF,target,right,yellow,imageability,conservative,no,z,1,0.746525870924,1,551
2019_Nov_06,217,001,3,recog,9,PUNCTUAL,LF,target,left,aqua,pleasantness,liberal,no,z,1,1.86611121172,3,554
2019_Nov_06,217,001,3,recog,10,DURING,HF,lure,-,-,-,conservative,no,m,1,0.720121903382,3,557
2019_Nov_06,217,001,3,recog,11,RIVER,HF,target,left,aqua,pleasantness,liberal,no,z,1,0.653496638602,3,560
2019_Nov_06,217,001,3,recog,12,PHOBIC,LF,lure,-,-,-,conservative,no,m,1,0.933501947038,3,563
2019_Nov_06,217,001,3,recog,13,LIFEBOAT,LF,target,right,yellow,imageability,conservative,yes,m,0,1.23993541892,-1,562
2019_Nov_06,217,001,3,recog,14,ENERGY,HF,target,left,aqua,pleasantness,liberal,no,z,1,1.4798675384,3,565
2019_Nov_06,217,001,3,recog,15,FAMILY,HF,lure,-,-,-,liberal,no,m,1,2.01293234604,1,566
2019_Nov_06,217,001,3,recog,16,ANYONE,HF,lure,-,-,-,liberal,no,m,1,0.666519169391,1,567
2019_Nov_06,217,001,3,recog,17,UGLIEST,LF,target,left,aqua,pleasantness,liberal,no,z,1,0.680188390803,3,570
2019_Nov_06,217,001,3,recog,18,BRUISING,LF,target,right,yellow,imageability,liberal,no,z,1,0.613498236998,3,573
2019_Nov_06,217,001,3,recog,19,FRONT,HF,target,right,yellow,imageability,conservative,no,z,1,0.706803889235,1,574
2019_Nov_06,217,001,3,recog,20,GIMMICKS,LF,lure,-,-,-,conservative,yes,z,0,0.879914610442,-3,571
2019_Nov_06,217,001,3,recog,21,PONCE,LF,lure,-,-,-,liberal,no,m,1,1.14630715458,1,572
2019_Nov_06,217,001,3,recog,22,INDEED,HF,target,right,yellow,imageability,conservative,no,z,1,0.999998166977,1,573
2019_Nov_06,217,001,3,recog,23,OXIDE,LF,lure,-,-,-,liberal,no,m,1,0.613542596162,1,574
2019_Nov_06,217,001,3,recog,24,SAVOURED,LF,target,left,aqua,pleasantness,liberal,no,m,0,0.853422657781,-3,571
2019_Nov_06,217,001,3,recog,25,SEQUEL,LF,lure,-,-,-,conservative,no,m,1,1.19964006754,3,574
2019_Nov_06,217,001,3,recog,26,AEGIS,LF,target,right,yellow,imageability,liberal,no,z,1,0.626763093469,3,577
2019_Nov_06,217,001,3,recog,27,ROTARY,LF,lure,-,-,-,liberal,no,m,1,0.693466078437,1,578
2019_Nov_06,217,001,3,recog,28,AUBURN,LF,target,left,aqua,pleasantness,conservative,no,z,1,0.94644529122,1,579
2019_Nov_06,217,001,3,recog,29,UNKEMPT,LF,lure,-,-,-,conservative,no,m,1,0.960033126397,3,582
2019_Nov_06,217,001,3,recog,30,ODOURS,LF,target,right,yellow,imageability,liberal,no,z,1,0.799832754954,3,585
2019_Nov_06,217,001,3,recog,31,USHERS,LF,lure,-,-,-,liberal,no,m,1,0.693402655831,1,586
2019_Nov_06,217,001,3,recog,32,BEYOND,HF,lure,-,-,-,conservative,no,m,1,0.720057380961,3,589
2019_Nov_06,217,001,3,recog,33,SCENARIOS,LF,lure,-,-,-,liberal,no,m,1,0.626827615889,1,590
2019_Nov_06,217,001,3,recog,34,ACTION,HF,lure,-,-,-,conservative,no,m,1,0.72013583436,3,593
2019_Nov_06,217,001,3,recog,35,FOUND,HF,lure,-,-,-,conservative,no,m,1,0.733530102275,3,596
2019_Nov_06,217,001,3,recog,36,DYEING,LF,lure,-,-,-,conservative,no,m,1,0.666853879447,3,599
2019_Nov_06,217,001,3,recog,37,NEARLY,HF,target,right,yellow,imageability,liberal,no,z,1,0.773418889085,3,602
2019_Nov_06,217,001,3,recog,38,COPIOUSLY,LF,lure,-,-,-,liberal,no,m,1,0.680101505499,1,603
2019_Nov_06,217,001,3,recog,39,CYANIDE,LF,lure,-,-,-,conservative,no,m,1,0.613449478578,3,606
2019_Nov_06,217,001,3,recog,40,RECENT,HF,lure,-,-,-,liberal,no,m,1,0.986690417761,1,607
2019_Nov_06,217,001,3,recog,41,VOWEL,LF,target,right,yellow,imageability,conservative,no,m,0,0.653567759906,-1,606
2019_Nov_06,217,001,3,recog,42,OPENED,HF,lure,-,-,-,liberal,no,m,1,1.03995550886,1,607
2019_Nov_06,217,001,3,recog,43,WEAKENS,LF,target,right,yellow,imageability,conservative,no,z,1,0.733407656318,1,608
2019_Nov_06,217,001,3,recog,44,EASILY,HF,lure,-,-,-,liberal,no,m,1,0.973378269289,1,609
2019_Nov_06,217,001,3,recog,45,JAILS,LF,target,left,aqua,pleasantness,conservative,no,m,0,1.11996660965,-1,608
2019_Nov_06,217,001,3,recog,46,ENHANCES,LF,lure,-,-,-,liberal,no,m,1,1.46640581523,1,609
2019_Nov_06,217,001,3,recog,47,OFFER,HF,lure,-,-,-,conservative,no,m,1,0.760111873079,3,612
2019_Nov_06,217,001,3,recog,48,TEXTURES,LF,lure,-,-,-,conservative,no,m,1,0.746901640703,3,615
2019_Nov_06,217,001,3,recog,49,FIANCE,LF,lure,-,-,-,conservative,no,m,1,1.07997480693,3,618
2019_Nov_06,217,001,3,recog,50,UNION,HF,target,right,yellow,imageability,liberal,no,z,1,0.840071282611,3,621
2019_Nov_06,217,001,3,recog,51,NICETIES,LF,target,right,yellow,imageability,conservative,no,z,1,0.840054052191,1,622
2019_Nov_06,217,001,3,recog,52,PEWTER,LF,target,left,aqua,pleasantness,liberal,no,z,1,0.693424285506,3,625
2019_Nov_06,217,001,3,recog,53,WATCH,HF,target,left,aqua,pleasantness,conservative,no,z,1,0.57349396972,1,626
2019_Nov_06,217,001,3,recog,54,HANDS,HF,lure,-,-,-,liberal,no,m,1,0.719872612212,1,627
2019_Nov_06,217,001,3,recog,55,NESTING,LF,lure,-,-,-,liberal,no,m,1,0.706806088864,1,628
2019_Nov_06,217,001,3,recog,56,MEETING,HF,target,left,aqua,pleasantness,conservative,no,z,1,0.613554694116,1,629
2019_Nov_06,217,001,3,recog,57,NETTLE,LF,lure,-,-,-,conservative,no,m,1,0.613597220257,3,632
2019_Nov_06,217,001,3,recog,58,HERSELF,HF,lure,-,-,-,liberal,no,m,1,0.999993401116,1,633
2019_Nov_06,217,001,3,recog,59,LENGTHEN,LF,lure,-,-,-,liberal,yes,z,0,1.1200179343,-1,632
2019_Nov_06,217,001,3,recog,60,THING,HF,lure,-,-,-,liberal,yes,z,0,0.866595863086,-1,631
2019_Nov_06,217,001,3,recog,61,HESITATES,LF,lure,-,-,-,liberal,no,m,1,1.14663636557,1,632
2019_Nov_06,217,001,3,recog,62,POLICE,HF,target,left,aqua,pleasantness,conservative,no,z,1,0.719886909794,1,633
2019_Nov_06,217,001,3,recog,63,HUMAN,HF,lure,-,-,-,conservative,no,m,1,0.653301604922,3,636
2019_Nov_06,217,001,3,recog,64,LOCAL,HF,lure,-,-,-,liberal,no,m,1,1.27999724313,1,637
2019_Nov_06,217,001,3,recog,65,CHIEF,HF,lure,-,-,-,liberal,no,m,1,0.613516933836,1,638
2019_Nov_06,217,001,3,recog,66,IMMEDIACY,LF,target,left,aqua,pleasantness,conservative,no,z,1,0.906728441996,1,639
2019_Nov_06,217,001,3,recog,67,DIGESTING,LF,target,left,aqua,pleasantness,conservative,no,z,1,0.826706709672,1,640
2019_Nov_06,217,001,3,recog,68,LAPELS,LF,target,right,yellow,imageability,conservative,no,z,1,0.680123501778,1,641
2019_Nov_06,217,001,3,recog,69,TOWARDS,HF,target,left,aqua,pleasantness,liberal,no,z,1,0.893136940772,3,644
2019_Nov_06,217,001,3,recog,70,DEXTERITY,LF,target,left,aqua,pleasantness,conservative,no,z,1,0.599859810377,1,645
2019_Nov_06,217,001,3,recog,71,MYOPIC,LF,lure,-,-,-,conservative,no,m,1,0.640420583532,3,648
2019_Nov_06,217,001,3,recog,72,VALUE,HF,target,right,yellow,imageability,liberal,no,z,1,0.560183287666,3,651
2019_Nov_06,217,001,3,recog,73,GIVEN,HF,target,right,yellow,imageability,conservative,no,z,1,0.693437849879,1,652
2019_Nov_06,217,001,3,recog,74,MYSELF,HF,lure,-,-,-,conservative,no,m,1,0.866829756861,3,655
2019_Nov_06,217,001,3,recog,75,DEVELOPED,HF,target,right,yellow,imageability,liberal,no,m,0,0.706523803274,-3,652
2019_Nov_06,217,001,3,recog,76,BELIEVE,HF,target,left,aqua,pleasantness,liberal,no,z,1,0.853350070058,3,655
2019_Nov_06,217,001,3,recog,77,WOMAN,HF,lure,-,-,-,conservative,no,m,1,0.800030721471,3,658
2019_Nov_06,217,001,3,recog,78,VAULTED,LF,target,right,yellow,imageability,liberal,no,z,1,0.760209023314,3,661
2019_Nov_06,217,001,3,recog,79,ENTIRELY,HF,lure,-,-,-,conservative,no,z,0,1.62643901495,-3,658
2019_Nov_06,217,001,3,recog,80,GEOLOGIST,LF,lure,-,-,-,conservative,no,m,1,0.840132138984,3,661
2019_Nov_06,217,001,3,recog,81,FUTURE,HF,target,left,aqua,pleasantness,conservative,no,z,1,0.893398696501,1,662
2019_Nov_06,217,001,3,recog,82,WRONG,HF,lure,-,-,-,conservative,no,m,1,0.786743135511,3,665
2019_Nov_06,217,001,3,recog,83,FUMING,LF,target,right,yellow,imageability,conservative,no,z,1,0.960032026583,1,666
2019_Nov_06,217,001,3,recog,84,YELLOWED,LF,target,right,yellow,imageability,liberal,no,z,1,2.27946273354,3,669
2019_Nov_06,217,001,3,recog,85,INNATELY,LF,target,left,aqua,pleasantness,conservative,no,z,1,1.26650435856,1,670
2019_Nov_06,217,001,3,recog,86,SUAVE,LF,target,right,yellow,imageability,liberal,no,z,1,0.840004193957,3,673
2019_Nov_06,217,001,3,recog,87,BUDDIES,LF,lure,-,-,-,conservative,no,m,1,0.906921276048,3,676
2019_Nov_06,217,001,3,recog,88,HAPPEN,HF,target,left,aqua,pleasantness,conservative,no,z,1,1.06660216869,1,677
2019_Nov_06,217,001,3,recog,89,BOWER,LF,lure,-,-,-,liberal,no,m,1,0.760044417821,1,678
2019_Nov_06,217,001,3,recog,90,BEHIND,HF,target,right,yellow,imageability,liberal,no,z,1,0.879837990068,3,681
2019_Nov_06,217,001,3,recog,91,TROUBLE,HF,lure,-,-,-,conservative,no,m,1,0.866690447089,3,684
2019_Nov_06,217,001,3,recog,92,DALES,LF,lure,-,-,-,liberal,no,m,1,0.93332524359,1,685
2019_Nov_06,217,001,3,recog,93,CANNOT,HF,target,right,yellow,imageability,conservative,no,z,1,1.06693467911,1,686
2019_Nov_06,217,001,3,recog,94,ENZYME,LF,target,left,aqua,pleasantness,liberal,no,z,1,0.813375131153,3,689
2019_Nov_06,217,001,3,recog,95,ITSELF,HF,target,right,yellow,imageability,conservative,no,z,1,1.35999221332,1,690
2019_Nov_06,217,001,4,source,0,THEORY,HF,target,right,yellow,imageability,liberal,no,9,1,2.09286316041,-,-
2019_Nov_06,217,001,4,source,1,TOGETHER,HF,target,right,yellow,imageability,conservative,no,9,1,1.31985780138,-,-
2019_Nov_06,217,001,4,source,2,SPICED,LF,target,right,yellow,imageability,liberal,no,9,1,1.29316788221,-,-
2019_Nov_06,217,001,4,source,3,HAIRDO,LF,target,left,aqua,pleasantness,conservative,no,1,1,3.90544055982,-,-
2019_Nov_06,217,001,4,source,4,SIPHON,LF,target,right,yellow,imageability,liberal,yes,3,0,0.786509608341,-,-
2019_Nov_06,217,001,4,source,5,DOWDY,LF,target,left,aqua,pleasantness,conservative,no,1,1,0.759821522186,-,-
2019_Nov_06,217,001,4,source,6,TUFTS,LF,target,right,yellow,imageability,liberal,no,9,1,1.45316148862,-,-
2019_Nov_06,217,001,4,source,7,SYSTEM,HF,target,left,aqua,pleasantness,conservative,no,1,1,1.74612773826,-,-
2019_Nov_06,217,001,4,source,8,CULINARY,LF,target,left,aqua,pleasantness,liberal,no,1,1,0.866658919088,-,-
2019_Nov_06,217,001,4,source,9,NOTHING,HF,target,right,yellow,imageability,conservative,no,9,1,1.51952389786,-,-
2019_Nov_06,217,001,4,source,10,TERMS,HF,target,left,aqua,pleasantness,conservative,no,9,0,3.05266642568,-,-
2019_Nov_06,217,001,4,source,11,ZEBRA,LF,target,left,aqua,pleasantness,conservative,no,1,1,1.59973479819,-,-
2019_Nov_06,217,001,4,source,12,ELICIT,LF,target,right,yellow,imageability,liberal,no,9,1,2.81235377057,-,-
2019_Nov_06,217,001,4,source,13,ADDED,HF,target,left,aqua,pleasantness,liberal,no,1,1,3.27904407101,-,-
2019_Nov_06,217,001,4,source,14,CUFFED,LF,target,right,yellow,imageability,conservative,no,9,1,1.19988752569,-,-
2019_Nov_06,217,001,4,source,15,ACIDITY,LF,target,right,yellow,imageability,conservative,no,9,1,2.53260215256,-,-
2019_Nov_06,217,001,4,source,16,RATHER,HF,target,left,aqua,pleasantness,liberal,no,1,1,1.05330871705,-,-
2019_Nov_06,217,001,4,source,17,TALKING,HF,target,left,aqua,pleasantness,conservative,yes,3,1,1.31990509339,-,-
2019_Nov_06,217,001,4,source,18,WAITING,HF,target,right,yellow,imageability,conservative,no,8,1,2.06626782524,-,-
2019_Nov_06,217,001,4,source,19,NIGHT,HF,target,left,aqua,pleasantness,liberal,no,1,1,1.61306124424,-,-
2019_Nov_06,217,001,4,source,20,TRADE,HF,target,right,yellow,imageability,liberal,no,2,0,1.39973875752,-,-
2019_Nov_06,217,001,4,source,21,NADIR,LF,target,left,aqua,pleasantness,liberal,no,1,1,1.34660821033,-,-
2019_Nov_06,217,001,4,source,22,ARBITER,LF,target,left,aqua,pleasantness,liberal,no,3,1,1.69302138698,-,-
2019_Nov_06,217,001,4,source,23,BUNGALOWS,LF,target,left,aqua,pleasantness,conservative,no,1,1,6.14436414988,-,-
2019_Nov_06,217,001,4,source,24,ROADWAY,LF,target,right,yellow,imageability,conservative,no,9,1,1.53310000169,-,-
2019_Nov_06,217,001,4,source,25,SUMMER,HF,target,right,yellow,imageability,liberal,yes,7,1,1.42633555911,-,-
2019_Nov_06,217,001,4,source,26,SCYTHE,LF,target,right,yellow,imageability,conservative,no,9,1,1.7330366524,-,-
2019_Nov_06,217,001,4,source,27,WILDFOWL,LF,target,left,aqua,pleasantness,liberal,no,1,1,1.63968554119,-,-
2019_Nov_06,217,001,4,source,28,WHOLE,HF,target,right,yellow,imageability,liberal,no,9,1,2.15820897492,-,-
2019_Nov_06,217,001,4,source,29,ORDER,HF,target,left,aqua,pleasantness,conservative,no,2,1,1.42644224107,-,-
2019_Nov_06,217,001,4,source,30,SNUBBED,LF,target,right,yellow,imageability,liberal,no,8,1,1.93274050916,-,-
2019_Nov_06,217,001,4,source,31,VISCOUS,LF,target,left,aqua,pleasantness,liberal,no,1,1,1.29317741393,-,-
2019_Nov_06,217,001,4,source,32,ALLOWED,HF,target,left,aqua,pleasantness,conservative,no,2,1,1.42619258329,-,-
2019_Nov_06,217,001,4,source,33,FESTERING,LF,target,right,yellow,imageability,conservative,no,9,1,1.55963264747,-,-
2019_Nov_06,217,001,4,source,34,SULKED,LF,target,right,yellow,imageability,liberal,no,9,1,1.09325066154,-,-
2019_Nov_06,217,001,4,source,35,EFFECT,HF,target,left,aqua,pleasantness,conservative,no,1,1,1.65309154045,-,-
2019_Nov_06,217,001,4,source,36,PIECE,HF,target,left,aqua,pleasantness,liberal,no,2,1,1.99934047821,-,-
2019_Nov_06,217,001,4,source,37,SOCIAL,HF,target,right,yellow,imageability,conservative,yes,3,0,0.866728573974,-,-
2019_Nov_06,217,001,4,source,38,DRINK,HF,target,right,yellow,imageability,conservative,no,9,1,1.35962414224,-,-
2019_Nov_06,217,001,4,source,39,HURDLES,LF,target,left,aqua,pleasantness,conservative,no,9,0,1.02663456187,-,-
2019_Nov_06,217,001,4,source,40,REACHED,HF,target,right,yellow,imageability,conservative,no,8,1,2.29278404712,-,-
2019_Nov_06,217,001,4,source,41,RUDIMENTS,LF,target,right,yellow,imageability,conservative,no,1,0,1.63971633598,-,-
2019_Nov_06,217,001,4,source,42,RINSING,LF,target,left,aqua,pleasantness,conservative,no,3,1,1.34630649469,-,-
2019_Nov_06,217,001,4,source,43,MOMENT,HF,target,left,aqua,pleasantness,liberal,no,9,0,2.34587206817,-,-
2019_Nov_06,217,001,4,source,44,TRYING,HF,target,right,yellow,imageability,liberal,no,8,1,1.65304498166,-,-
2019_Nov_06,217,001,4,source,45,STAFF,HF,target,left,aqua,pleasantness,liberal,no,2,1,2.19939407582,-,-
2019_Nov_06,217,001,4,source,46,FORCE,HF,target,right,yellow,imageability,liberal,no,9,1,1.50642584651,-,-
2019_Nov_06,217,001,4,source,47,ENCLOSE,LF,target,left,aqua,pleasantness,liberal,no,1,1,1.34631382679,-,-
2019_Nov_06,217,001,4,recog,0,MEANS,HF,lure,-,-,-,conservative,no,m,1,1.46646080593,3,693
2019_Nov_06,217,001,4,recog,1,DRINK,HF,target,right,yellow,imageability,conservative,no,z,1,0.719850615932,1,694
2019_Nov_06,217,001,4,recog,2,SNUBBED,LF,target,right,yellow,imageability,liberal,no,z,1,0.613455344253,3,697
2019_Nov_06,217,001,4,recog,3,MONEY,HF,lure,-,-,-,liberal,no,m,1,0.640106036733,1,698
2019_Nov_06,217,001,4,recog,4,SUNBURN,LF,lure,-,-,-,liberal,no,m,1,0.680068877684,1,699
2019_Nov_06,217,001,4,recog,5,IDIOCY,LF,lure,-,-,-,conservative,no,m,1,0.733427086365,3,702
2019_Nov_06,217,001,4,recog,6,VISCOUS,LF,target,left,aqua,pleasantness,liberal,no,z,1,0.573389487391,3,705
2019_Nov_06,217,001,4,recog,7,REQUIRED,HF,lure,-,-,-,conservative,no,m,1,0.866766700859,3,708
2019_Nov_06,217,001,4,recog,8,STAFF,HF,target,left,aqua,pleasantness,liberal,no,z,1,0.533479437511,3,711
2019_Nov_06,217,001,4,recog,9,JOCKEYS,LF,lure,-,-,-,liberal,no,m,1,0.653431749577,1,712
2019_Nov_06,217,001,4,recog,10,NUANCE,LF,lure,-,-,-,conservative,no,m,1,1.07992861474,3,715
2019_Nov_06,217,001,4,recog,11,WITHIN,HF,lure,-,-,-,conservative,no,m,1,0.813172765379,3,718
2019_Nov_06,217,001,4,recog,12,QUESTION,HF,lure,-,-,-,liberal,no,m,1,0.653567026697,1,719
2019_Nov_06,217,001,4,recog,13,SPICED,LF,target,right,yellow,imageability,liberal,no,z,1,0.89339942971,3,722
2019_Nov_06,217,001,4,recog,14,PICTURE,HF,lure,-,-,-,liberal,no,m,1,0.813357167524,1,723
2019_Nov_06,217,001,4,recog,15,DIVAN,LF,lure,-,-,-,conservative,no,m,1,0.693416586808,3,726
2019_Nov_06,217,001,4,recog,16,THEORY,HF,target,right,yellow,imageability,liberal,no,z,1,0.546848043101,3,729
2019_Nov_06,217,001,4,recog,17,TOGETHER,HF,target,right,yellow,imageability,conservative,no,z,1,0.800073980821,1,730
2019_Nov_06,217,001,4,recog,18,GASEOUS,LF,lure,-,-,-,conservative,no,m,1,0.613496403975,3,733
2019_Nov_06,217,001,4,recog,19,RINSING,LF,target,left,aqua,pleasantness,conservative,no,z,1,0.959808764344,1,734
2019_Nov_06,217,001,4,recog,20,PRIVATE,HF,lure,-,-,-,conservative,no,m,1,0.786802525466,3,737
2019_Nov_06,217,001,4,recog,21,WEIRDLY,LF,lure,-,-,-,liberal,no,m,1,0.813146736448,1,738
2019_Nov_06,217,001,4,recog,22,VIBRATE,LF,lure,-,-,-,liberal,no,m,1,1.29322323951,1,739
2019_Nov_06,217,001,4,recog,23,CALLED,HF,lure,-,-,-,liberal,no,m,1,0.960084817655,1,740
2019_Nov_06,217,001,4,recog,24,MOMENT,HF,target,left,aqua,pleasantness,liberal,no,z,1,0.666798888748,3,743
2019_Nov_06,217,001,4,recog,25,STRAIGHT,HF,lure,-,-,-,conservative,no,m,1,1.63975849551,3,746
2019_Nov_06,217,001,4,recog,26,HINDERED,LF,lure,-,-,-,conservative,no,m,1,0.773451883505,3,749
2019_Nov_06,217,001,4,recog,27,TRYING,HF,target,right,yellow,imageability,liberal,no,z,1,0.706873544121,3,752
2019_Nov_06,217,001,4,recog,28,RATHER,HF,target,left,aqua,pleasantness,liberal,no,z,1,0.853171900193,3,755
2019_Nov_06,217,001,4,recog,29,ELICIT,LF,target,right,yellow,imageability,liberal,no,z,1,0.599884006285,3,758
2019_Nov_06,217,001,4,recog,30,ENOUGH,HF,lure,-,-,-,liberal,no,z,0,0.880066018167,-1,757
2019_Nov_06,217,001,4,recog,31,CUFFED,LF,target,right,yellow,imageability,conservative,no,z,1,1.06663626292,1,758
2019_Nov_06,217,001,4,recog,32,NOTHING,HF,target,right,yellow,imageability,conservative,no,z,1,0.893327941801,1,759
2019_Nov_06,217,001,4,recog,33,DOWDY,LF,target,left,aqua,pleasantness,conservative,yes,m,0,1.26672578778,-1,758
2019_Nov_06,217,001,4,recog,34,EFFECT,HF,target,left,aqua,pleasantness,conservative,no,z,1,1.86639496373,1,759
2019_Nov_06,217,001,4,recog,35,PIECE,HF,target,left,aqua,pleasantness,liberal,no,z,1,0.600147961642,3,762
2019_Nov_06,217,001,4,recog,36,HURDLES,LF,target,left,aqua,pleasantness,conservative,no,z,1,0.760138268614,1,763
2019_Nov_06,217,001,4,recog,37,PROBABLY,HF,lure,-,-,-,conservative,no,m,1,1.23989802525,3,766
2019_Nov_06,217,001,4,recog,38,FESTERING,LF,target,right,yellow,imageability,conservative,no,z,1,0.77344125197,1,767
2019_Nov_06,217,001,4,recog,39,NAPPY,LF,lure,-,-,-,liberal,no,m,1,0.800014224261,1,768
2019_Nov_06,217,001,4,recog,40,TUFTS,LF,target,right,yellow,imageability,liberal,no,z,1,0.720110538638,3,771
2019_Nov_06,217,001,4,recog,41,WAITING,HF,target,right,yellow,imageability,conservative,no,z,1,1.00027751973,1,772
2019_Nov_06,217,001,4,recog,42,ARBITER,LF,target,left,aqua,pleasantness,liberal,no,z,1,1.01314607656,3,775
2019_Nov_06,217,001,4,recog,43,RUDIMENTS,LF,target,right,yellow,imageability,conservative,yes,z,1,2.17282953543,1,776
2019_Nov_06,217,001,4,recog,44,TURNED,HF,lure,-,-,-,conservative,no,m,1,1.87965028848,3,779
2019_Nov_06,217,001,4,recog,45,CULINARY,LF,target,left,aqua,pleasantness,liberal,no,z,1,0.666777992282,3,782
2019_Nov_06,217,001,4,recog,46,UNABATED,LF,lure,-,-,-,liberal,no,m,1,0.866458386338,1,783
2019_Nov_06,217,001,4,recog,47,CYNIC,LF,lure,-,-,-,liberal,no,m,1,3.0124729904,1,784
2019_Nov_06,217,001,4,recog,48,FLOOR,HF,lure,-,-,-,conservative,no,m,1,0.693407421692,3,787
2019_Nov_06,217,001,4,recog,49,NADIR,LF,target,left,aqua,pleasantness,liberal,no,z,1,0.826704143439,3,790
2019_Nov_06,217,001,4,recog,50,SULKED,LF,target,right,yellow,imageability,liberal,no,z,1,1.14664149803,3,793
2019_Nov_06,217,001,4,recog,51,SPEAK,HF,lure,-,-,-,conservative,no,m,1,1.57308630534,3,796
2019_Nov_06,217,001,4,recog,52,ORDER,HF,target,left,aqua,pleasantness,conservative,no,z,1,0.94678660016,1,797
2019_Nov_06,217,001,4,recog,53,ROADWAY,LF,target,right,yellow,imageability,conservative,no,m,0,0.773164098845,-1,796
2019_Nov_06,217,001,4,recog,54,ALLOWED,HF,target,left,aqua,pleasantness,conservative,no,m,0,1.69306647936,-1,795
2019_Nov_06,217,001,4,recog,55,YOUNG,HF,lure,-,-,-,liberal,no,m,1,1.06519037413,1,796
2019_Nov_06,217,001,4,recog,56,WEEKS,HF,lure,-,-,-,liberal,no,m,1,0.746731902744,1,797
2019_Nov_06,217,001,4,recog,57,GYPSIES,LF,lure,-,-,-,liberal,no,m,1,0.853502577598,1,798
2019_Nov_06,217,001,4,recog,58,CHLORIDE,LF,lure,-,-,-,conservative,no,m,1,0.760197658569,3,801
2019_Nov_06,217,001,4,recog,59,SOCIAL,HF,target,right,yellow,imageability,conservative,no,m,0,0.733375028504,-1,800
2019_Nov_06,217,001,4,recog,60,LIGHT,HF,lure,-,-,-,liberal,no,m,1,3.45240408339,1,801
2019_Nov_06,217,001,4,recog,61,ENCLOSE,LF,target,left,aqua,pleasantness,liberal,no,z,1,1.892918811,3,804
2019_Nov_06,217,001,4,recog,62,BUNGALOWS,LF,target,left,aqua,pleasantness,conservative,no,z,1,0.813125839983,1,805
2019_Nov_06,217,001,4,recog,63,SUMMER,HF,target,right,yellow,imageability,liberal,no,z,1,0.733466313064,3,808
2019_Nov_06,217,001,4,recog,64,BAUXITE,LF,lure,-,-,-,conservative,no,m,1,0.680058979358,3,811
2019_Nov_06,217,001,4,recog,65,SCYTHE,LF,target,right,yellow,imageability,conservative,no,z,1,0.813343236547,1,812
2019_Nov_06,217,001,4,recog,66,LUNACY,LF,lure,-,-,-,conservative,no,m,1,1.05335747547,3,815
2019_Nov_06,217,001,4,recog,67,FORCE,HF,target,right,yellow,imageability,liberal,no,z,1,0.666558762694,3,818
2019_Nov_06,217,001,4,recog,68,VERBALLY,LF,lure,-,-,-,liberal,no,m,1,0.786710874301,1,819
2019_Nov_06,217,001,4,recog,69,GIBBERISH,LF,lure,-,-,-,liberal,no,m,1,0.680069244288,1,820
2019_Nov_06,217,001,4,recog,70,EMOTIVE,LF,lure,-,-,-,conservative,no,m,1,0.906682249808,3,823
2019_Nov_06,217,001,4,recog,71,TRADE,HF,target,right,yellow,imageability,liberal,no,z,1,1.23997244599,3,826
2019_Nov_06,217,001,4,recog,72,TERMS,HF,target,left,aqua,pleasantness,conservative,no,z,1,0.866668450809,1,827
2019_Nov_06,217,001,4,recog,73,TALKING,HF,target,left,aqua,pleasantness,conservative,yes,m,0,0.973355173195,-1,826
2019_Nov_06,217,001,4,recog,74,CAMPANILE,LF,lure,-,-,-,liberal,no,m,1,1.38650579565,1,827
2019_Nov_06,217,001,4,recog,75,CLEAR,HF,lure,-,-,-,conservative,no,m,1,1.50659668428,3,830
2019_Nov_06,217,001,4,recog,76,UNFAILING,LF,lure,-,-,-,conservative,no,m,1,0.693193324569,3,833
2019_Nov_06,217,001,4,recog,77,TOADS,LF,lure,-,-,-,conservative,no,m,1,0.946670386482,3,836
2019_Nov_06,217,001,4,recog,78,SYSTEM,HF,target,left,aqua,pleasantness,conservative,no,z,1,0.82673567144,1,837
2019_Nov_06,217,001,4,recog,79,VANDALS,LF,lure,-,-,-,liberal,no,m,1,1.34655285303,1,838
2019_Nov_06,217,001,4,recog,80,ZEBRA,LF,target,left,aqua,pleasantness,conservative,no,z,1,0.680129000848,1,839
2019_Nov_06,217,001,4,recog,81,ENGULF,LF,lure,-,-,-,conservative,no,m,1,0.746718704977,3,842
2019_Nov_06,217,001,4,recog,82,SOVIET,HF,lure,-,-,-,liberal,no,m,1,0.826751802045,1,843
2019_Nov_06,217,001,4,recog,83,WILDFOWL,LF,target,left,aqua,pleasantness,liberal,no,z,1,0.773315139966,3,846
2019_Nov_06,217,001,4,recog,84,ACIDITY,LF,target,right,yellow,imageability,conservative,no,z,1,0.866430524384,1,847
2019_Nov_06,217,001,4,recog,85,GIRLS,HF,lure,-,-,-,liberal,no,m,1,0.786730670953,1,848
2019_Nov_06,217,001,4,recog,86,REPORT,HF,lure,-,-,-,conservative,no,m,1,1.21301490541,3,851
2019_Nov_06,217,001,4,recog,87,HAIRDO,LF,target,left,aqua,pleasantness,conservative,no,z,1,0.759827387861,1,852
2019_Nov_06,217,001,4,recog,88,REACHED,HF,target,right,yellow,imageability,conservative,no,z,1,1.05331348291,1,853
2019_Nov_06,217,001,4,recog,89,ADDED,HF,target,left,aqua,pleasantness,liberal,yes,z,1,1.11998054062,3,856
2019_Nov_06,217,001,4,recog,90,SIPHON,LF,target,right,yellow,imageability,liberal,no,z,1,1.02667525499,3,859
2019_Nov_06,217,001,4,recog,91,LEVEL,HF,lure,-,-,-,liberal,no,m,1,0.786564965646,1,860
2019_Nov_06,217,001,4,recog,92,CAUGHT,HF,lure,-,-,-,liberal,no,m,1,0.706814887375,1,861
2019_Nov_06,217,001,4,recog,93,WHOLE,HF,target,right,yellow,imageability,liberal,no,z,1,0.69341438718,3,864
2019_Nov_06,217,001,4,recog,94,NIGHT,HF,target,left,aqua,pleasantness,liberal,no,z,1,0.840015192097,3,867
2019_Nov_06,217,001,4,recog,95,DEGREE,HF,lure,-,-,-,conservative,no,m,1,0.813427922224,3,870
