date,subj,session,cycle,task,trial,item,wf,type,source,colour,encoding,bias,null,response,corr,rt,points,total
2019_Nov_07,218,001,0,source,0,FLOOR,HF,target,right,aqua,imageability,conservative,no,7,1,3.6789264603,-,-
2019_Nov_07,218,001,0,source,1,BIDDER,LF,target,right,aqua,imageability,liberal,no,7,1,3.66535800543,-,-
2019_Nov_07,218,001,0,source,2,HEIFERS,LF,target,right,aqua,imageability,conservative,no,2,0,3.85233000113,-,-
2019_Nov_07,218,001,0,source,3,ATTACK,HF,target,left,yellow,pleasantness,liberal,no,1,1,4.3050983164,-,-
2019_Nov_07,218,001,0,source,4,TUSKS,LF,target,right,aqua,imageability,conservative,no,7,1,3.79874686735,-,-
2019_Nov_07,218,001,0,source,5,BOVINE,LF,target,left,yellow,pleasantness,liberal,no,1,1,2.01269813222,-,-
2019_Nov_07,218,001,0,source,6,INVOLVED,HF,target,left,yellow,pleasantness,conservative,no,7,0,3.37260258003,-,-
2019_Nov_07,218,001,0,source,7,SENSE,HF,target,left,yellow,pleasantness,conservative,no,8,0,3.50543126797,-,-
2019_Nov_07,218,001,0,source,8,CANNOT,HF,target,left,yellow,pleasantness,liberal,yes,2,1,1.7861810799,-,-
2019_Nov_07,218,001,0,source,9,AWAITS,LF,target,right,aqua,imageability,conservative,no,7,1,2.1059967944,-,-
2019_Nov_07,218,001,0,source,10,GOUGED,LF,target,left,yellow,pleasantness,liberal,no,2,1,5.43825951599,-,-
2019_Nov_07,218,001,0,source,11,EGOISM,LF,target,right,aqua,imageability,liberal,no,9,1,2.47941800563,-,-
2019_Nov_07,218,001,0,source,12,SPEAK,HF,target,right,aqua,imageability,conservative,no,8,1,1.90632116739,-,-
2019_Nov_07,218,001,0,source,13,PEACEABLY,LF,target,left,yellow,pleasantness,conservative,no,2,1,1.86635451387,-,-
2019_Nov_07,218,001,0,source,14,DIABETIC,LF,target,left,yellow,pleasantness,conservative,no,2,1,2.45281670726,-,-
2019_Nov_07,218,001,0,source,15,BLOOD,HF,target,right,aqua,imageability,liberal,yes,1,0,1.42623300598,-,-
2019_Nov_07,218,001,0,source,16,OUTSIDE,HF,target,right,aqua,imageability,liberal,no,8,1,2.10604481978,-,-
2019_Nov_07,218,001,0,source,17,APART,HF,target,left,yellow,pleasantness,conservative,no,8,0,2.8527189701,-,-
2019_Nov_07,218,001,0,source,18,HUMAN,HF,target,left,yellow,pleasantness,conservative,no,2,1,3.66561023036,-,-
2019_Nov_07,218,001,0,source,19,HOVELS,LF,target,left,yellow,pleasantness,conservative,no,2,1,1.07994063916,-,-
2019_Nov_07,218,001,0,source,20,HONKING,LF,target,right,aqua,imageability,conservative,no,8,1,1.07995273715,-,-
2019_Nov_07,218,001,0,source,21,APPEARED,HF,target,left,yellow,pleasantness,liberal,no,8,0,2.46584551809,-,-
2019_Nov_07,218,001,0,source,22,ANGERS,LF,target,right,aqua,imageability,liberal,no,8,1,1.1866299523,-,-
2019_Nov_07,218,001,0,source,23,HAVING,HF,target,right,aqua,imageability,conservative,no,8,1,2.57274086381,-,-
2019_Nov_07,218,001,0,source,24,CORNER,HF,target,left,yellow,pleasantness,liberal,no,2,1,1.10660865982,-,-
2019_Nov_07,218,001,0,source,25,ROWAN,LF,target,right,aqua,imageability,liberal,no,8,1,1.98597108798,-,-
2019_Nov_07,218,001,0,source,26,FOLLOWED,HF,target,left,yellow,pleasantness,liberal,no,2,1,4.51834459791,-,-
2019_Nov_07,218,001,0,source,27,KENNEL,LF,target,left,yellow,pleasantness,conservative,no,2,1,1.15994433454,-,-
2019_Nov_07,218,001,0,source,28,ENOUGH,HF,target,right,aqua,imageability,liberal,no,8,1,1.17324773328,-,-
2019_Nov_07,218,001,0,source,29,AVAILABLE,HF,target,left,yellow,pleasantness,liberal,no,2,1,1.79979536053,-,-
2019_Nov_07,218,001,0,source,30,KIDNAP,LF,target,left,yellow,pleasantness,conservative,no,2,1,1.2399091697,-,-
2019_Nov_07,218,001,0,source,31,PIECE,HF,target,right,aqua,imageability,conservative,no,8,1,3.45236578188,-,-
2019_Nov_07,218,001,0,source,32,ALMOST,HF,target,right,aqua,imageability,conservative,no,8,1,1.17341490561,-,-
2019_Nov_07,218,001,0,source,33,BIJOU,LF,target,right,aqua,imageability,conservative,no,9,1,2.9059127683,-,-
2019_Nov_07,218,001,0,source,34,EXHALED,LF,target,left,yellow,pleasantness,liberal,no,3,1,2.01286677098,-,-
2019_Nov_07,218,001,0,source,35,LOCAL,HF,target,left,yellow,pleasantness,conservative,no,1,1,4.77190544205,-,-
2019_Nov_07,218,001,0,source,36,PIRACY,LF,target,left,yellow,pleasantness,liberal,no,1,1,1.19967489379,-,-
2019_Nov_07,218,001,0,source,37,ALIAS,LF,target,right,aqua,imageability,liberal,no,3,0,1.71946721882,-,-
2019_Nov_07,218,001,0,source,38,FAMILY,HF,target,right,aqua,imageability,liberal,no,8,1,2.01290929727,-,-
2019_Nov_07,218,001,0,source,39,REFECTORY,LF,target,left,yellow,pleasantness,conservative,yes,9,0,1.38648741588,-,-
2019_Nov_07,218,001,0,source,40,VOWEL,LF,target,right,aqua,imageability,conservative,no,8,1,2.18619222473,-,-
2019_Nov_07,218,001,0,source,41,SOUND,HF,target,right,aqua,imageability,liberal,yes,8,1,0.559927250704,-,-
2019_Nov_07,218,001,0,source,42,AVENGE,LF,target,right,aqua,imageability,liberal,no,9,1,1.98632229654,-,-
2019_Nov_07,218,001,0,source,43,HEMMED,LF,target,left,yellow,pleasantness,liberal,no,2,1,1.59952253234,-,-
2019_Nov_07,218,001,0,source,44,TRYING,HF,target,right,aqua,imageability,liberal,no,8,1,1.26655776024,-,-
2019_Nov_07,218,001,0,source,45,NOMAD,LF,target,left,yellow,pleasantness,liberal,no,1,1,1.61277057356,-,-
2019_Nov_07,218,001,0,source,46,TREES,HF,target,right,aqua,imageability,conservative,no,9,1,2.30614460994,-,-
2019_Nov_07,218,001,0,source,47,RUNNING,HF,target,left,yellow,pleasantness,conservative,no,2,1,4.49204464968,-,-
2019_Nov_07,218,001,0,recog,0,APPEARED,HF,target,left,yellow,pleasantness,liberal,no,z,1,2.05292360957,3,3
2019_Nov_07,218,001,0,recog,1,VEERED,LF,lure,-,-,-,conservative,no,m,1,3.07922429102,3,6
2019_Nov_07,218,001,0,recog,2,INVOLVED,HF,target,left,yellow,pleasantness,conservative,no,z,1,2.7461968293,1,7
2019_Nov_07,218,001,0,recog,3,HEMMED,LF,target,left,yellow,pleasantness,liberal,no,z,1,1.29299225288,3,10
2019_Nov_07,218,001,0,recog,4,APART,HF,target,left,yellow,pleasantness,conservative,no,z,1,5.47823900072,1,11
2019_Nov_07,218,001,0,recog,5,TITAN,LF,lure,-,-,-,liberal,no,m,1,0.920042863574,1,12
2019_Nov_07,218,001,0,recog,6,FIELD,HF,lure,-,-,-,conservative,no,m,1,1.54622535125,3,15
2019_Nov_07,218,001,0,recog,7,AWAITS,LF,target,right,aqua,imageability,conservative,no,z,1,1.13336246629,1,16
2019_Nov_07,218,001,0,recog,8,ASSERTIVE,LF,lure,-,-,-,conservative,no,m,1,1.41292484137,3,19
2019_Nov_07,218,001,0,recog,9,TATTERS,LF,lure,-,-,-,liberal,no,z,0,3.15898529323,-1,18
2019_Nov_07,218,001,0,recog,10,POLICE,HF,lure,-,-,-,liberal,yes,m,1,1.653037844,1,19
2019_Nov_07,218,001,0,recog,11,SOUND,HF,target,right,aqua,imageability,liberal,no,m,0,2.18620029006,-3,16
2019_Nov_07,218,001,0,recog,12,TRYING,HF,target,right,aqua,imageability,liberal,no,z,1,1.78613158809,3,19
2019_Nov_07,218,001,0,recog,13,NOMAD,LF,target,left,yellow,pleasantness,liberal,no,z,1,0.880025618428,3,22
2019_Nov_07,218,001,0,recog,14,PIECE,HF,target,right,aqua,imageability,conservative,no,z,1,1.74613707252,1,23
2019_Nov_07,218,001,0,recog,15,EGOISM,LF,target,right,aqua,imageability,liberal,no,z,1,1.59974946146,3,26
2019_Nov_07,218,001,0,recog,16,ROWAN,LF,target,right,aqua,imageability,liberal,no,z,1,0.719843356586,3,29
2019_Nov_07,218,001,0,recog,17,CANNOT,HF,target,left,yellow,pleasantness,liberal,no,m,0,1.13338556247,-3,26
2019_Nov_07,218,001,0,recog,18,GODMOTHER,LF,lure,-,-,-,liberal,no,m,1,1.42673745584,1,27
2019_Nov_07,218,001,0,recog,19,DOCTOR,HF,lure,-,-,-,liberal,no,m,1,0.866812404774,1,28
2019_Nov_07,218,001,0,recog,20,PIRACY,LF,target,left,yellow,pleasantness,liberal,no,z,1,0.893378508969,3,31
2019_Nov_07,218,001,0,recog,21,TYCOONS,LF,lure,-,-,-,liberal,no,m,1,0.853406722968,1,32
2019_Nov_07,218,001,0,recog,22,HAVING,HF,target,right,aqua,imageability,conservative,no,z,1,1.43959176222,1,33
2019_Nov_07,218,001,0,recog,23,DIMMED,LF,lure,-,-,-,conservative,no,m,1,1.25316014377,3,36
2019_Nov_07,218,001,0,recog,24,BATCHES,LF,lure,-,-,-,conservative,no,m,1,0.866720386667,3,39
2019_Nov_07,218,001,0,recog,25,ERADICATE,LF,lure,-,-,-,liberal,no,m,1,1.6264039177,1,40
2019_Nov_07,218,001,0,recog,26,TREES,HF,target,right,aqua,imageability,conservative,no,z,1,1.01332686152,1,41
2019_Nov_07,218,001,0,recog,27,BEGAN,HF,lure,-,-,-,conservative,no,z,0,2.59946057592,-3,38
2019_Nov_07,218,001,0,recog,28,HOVELS,LF,target,left,yellow,pleasantness,conservative,yes,m,0,0.760065167884,-1,37
2019_Nov_07,218,001,0,recog,29,SENSE,HF,target,left,yellow,pleasantness,conservative,no,z,1,2.37253072525,1,38
2019_Nov_07,218,001,0,recog,30,ALMOST,HF,target,right,aqua,imageability,conservative,no,z,1,1.50638700983,1,39
2019_Nov_07,218,001,0,recog,31,AVENGE,LF,target,right,aqua,imageability,liberal,no,z,1,0.893208037177,3,42
2019_Nov_07,218,001,0,recog,32,ENOUGH,HF,target,right,aqua,imageability,liberal,no,z,1,1.13342222307,3,45
2019_Nov_07,218,001,0,recog,33,OUTSIDE,HF,target,right,aqua,imageability,liberal,no,z,1,0.653547059747,3,48
2019_Nov_07,218,001,0,recog,34,EVENING,HF,lure,-,-,-,liberal,yes,z,0,0.813382878913,-1,47
2019_Nov_07,218,001,0,recog,35,CENTRAL,HF,lure,-,-,-,liberal,no,m,1,1.31992239684,1,48
2019_Nov_07,218,001,0,recog,36,FRONT,HF,lure,-,-,-,liberal,no,z,0,1.87968394163,-1,47
2019_Nov_07,218,001,0,recog,37,FAMILY,HF,target,right,aqua,imageability,liberal,no,z,1,0.840042834246,3,50
2019_Nov_07,218,001,0,recog,38,SHORT,HF,lure,-,-,-,conservative,no,m,1,1.45294611918,3,53
2019_Nov_07,218,001,0,recog,39,FIVER,LF,lure,-,-,-,liberal,no,m,1,1.1999681786,1,54
2019_Nov_07,218,001,0,recog,40,HEIFERS,LF,target,right,aqua,imageability,conservative,no,z,1,1.01331842958,1,55
2019_Nov_07,218,001,0,recog,41,CORNER,HF,target,left,yellow,pleasantness,liberal,no,z,1,0.96002528115,3,58
2019_Nov_07,218,001,0,recog,42,ANGERS,LF,target,right,aqua,imageability,liberal,no,z,1,1.06653752359,3,61
2019_Nov_07,218,001,0,recog,43,EXHALED,LF,target,left,yellow,pleasantness,liberal,no,z,1,0.69352874411,3,64
2019_Nov_07,218,001,0,recog,44,BIDDER,LF,target,right,aqua,imageability,liberal,no,z,1,0.706771652851,3,67
2019_Nov_07,218,001,0,recog,45,HICKORY,LF,lure,-,-,-,conservative,no,m,1,1.62642481424,3,70
2019_Nov_07,218,001,0,recog,46,SILENCER,LF,lure,-,-,-,liberal,no,m,1,1.37332662689,1,71
2019_Nov_07,218,001,0,recog,47,SPEAK,HF,target,right,aqua,imageability,conservative,no,z,1,1.14659034418,1,72
2019_Nov_07,218,001,0,recog,48,MONEY,HF,lure,-,-,-,liberal,no,m,1,1.2532660929,1,73
2019_Nov_07,218,001,0,recog,49,TOFFEE,LF,lure,-,-,-,conservative,no,m,1,1.46647974648,3,76
2019_Nov_07,218,001,0,recog,50,FLOOR,HF,target,right,aqua,imageability,conservative,no,z,1,0.86678710896,1,77
2019_Nov_07,218,001,0,recog,51,NIPPED,LF,lure,-,-,-,liberal,no,m,1,0.906833682587,1,78
2019_Nov_07,218,001,0,recog,52,PASSED,HF,lure,-,-,-,liberal,no,m,1,1.01330926443,1,79
2019_Nov_07,218,001,0,recog,53,TESTIFIES,LF,lure,-,-,-,liberal,no,m,1,0.880176660102,1,80
2019_Nov_07,218,001,0,recog,54,IRISES,LF,lure,-,-,-,liberal,no,m,1,0.666798400425,1,81
2019_Nov_07,218,001,0,recog,55,BETTER,HF,lure,-,-,-,conservative,no,m,1,1.73305510382,3,84
2019_Nov_07,218,001,0,recog,56,ALIAS,LF,target,right,aqua,imageability,liberal,no,z,1,1.09330306145,3,87
2019_Nov_07,218,001,0,recog,57,OFTEN,HF,lure,-,-,-,liberal,no,m,1,0.773473049326,1,88
2019_Nov_07,218,001,0,recog,58,DOGMAS,LF,lure,-,-,-,conservative,no,m,1,1.10657749831,3,91
2019_Nov_07,218,001,0,recog,59,ATTACK,HF,target,left,yellow,pleasantness,liberal,no,m,0,0.919921883592,-3,88
2019_Nov_07,218,001,0,recog,60,REFECTORY,LF,target,left,yellow,pleasantness,conservative,no,z,1,1.01331293049,1,89
2019_Nov_07,218,001,0,recog,61,BLOOD,HF,target,right,aqua,imageability,liberal,no,z,1,1.08007371714,3,92
2019_Nov_07,218,001,0,recog,62,VOWEL,LF,target,right,aqua,imageability,conservative,no,z,1,1.02672741084,1,93
2019_Nov_07,218,001,0,recog,63,THANK,HF,lure,-,-,-,conservative,no,m,1,1.04007333587,3,96
2019_Nov_07,218,001,0,recog,64,ASKED,HF,lure,-,-,-,conservative,no,m,1,1.21300798761,3,99
2019_Nov_07,218,001,0,recog,65,KIDNAP,LF,target,left,yellow,pleasantness,conservative,no,z,1,0.813389477821,1,100
2019_Nov_07,218,001,0,recog,66,GROUND,HF,lure,-,-,-,liberal,no,z,0,1.39983480733,-1,99
2019_Nov_07,218,001,0,recog,67,BIJOU,LF,target,right,aqua,imageability,conservative,no,z,1,1.06664457254,1,100
2019_Nov_07,218,001,0,recog,68,FOLLOWED,HF,target,left,yellow,pleasantness,liberal,no,z,1,0.746904745495,3,103
2019_Nov_07,218,001,0,recog,69,HUNDRED,HF,lure,-,-,-,conservative,no,m,1,0.879815919792,3,106
2019_Nov_07,218,001,0,recog,70,MAJOR,HF,lure,-,-,-,liberal,no,z,0,1.33353191159,-1,105
2019_Nov_07,218,001,0,recog,71,RUFFLES,LF,lure,-,-,-,conservative,no,m,1,1.54651680302,3,108
2019_Nov_07,218,001,0,recog,72,JAMMING,LF,lure,-,-,-,liberal,no,m,1,0.946686321637,1,109
2019_Nov_07,218,001,0,recog,73,LOCAL,HF,target,left,yellow,pleasantness,conservative,no,z,1,0.986668372607,1,110
2019_Nov_07,218,001,0,recog,74,MOBILIZE,LF,lure,-,-,-,conservative,no,m,1,1.21311283693,3,113
2019_Nov_07,218,001,0,recog,75,HUMAN,HF,target,left,yellow,pleasantness,conservative,no,z,1,0.973396501992,1,114
2019_Nov_07,218,001,0,recog,76,ROUND,HF,lure,-,-,-,liberal,no,z,0,1.18666954575,-1,113
2019_Nov_07,218,001,0,recog,77,DIABETIC,LF,target,left,yellow,pleasantness,conservative,no,z,1,0.986422013371,1,114
2019_Nov_07,218,001,0,recog,78,DUCHY,LF,lure,-,-,-,conservative,no,m,1,1.02661779564,3,117
2019_Nov_07,218,001,0,recog,79,KENNEL,LF,target,left,yellow,pleasantness,conservative,no,z,1,1.00014994186,1,118
2019_Nov_07,218,001,0,recog,80,PEACEABLY,LF,target,left,yellow,pleasantness,conservative,no,m,0,0.973330512911,-1,117
2019_Nov_07,218,001,0,recog,81,PUFFS,LF,lure,-,-,-,conservative,no,m,1,1.18665561472,3,120
2019_Nov_07,218,001,0,recog,82,RENAMED,LF,lure,-,-,-,conservative,no,m,1,2.186208722,3,123
2019_Nov_07,218,001,0,recog,83,HONKING,LF,target,right,aqua,imageability,conservative,no,z,1,0.813175013308,1,124
2019_Nov_07,218,001,0,recog,84,TOWARDS,HF,lure,-,-,-,conservative,no,m,1,1.47979047734,3,127
2019_Nov_07,218,001,0,recog,85,LEARN,HF,lure,-,-,-,conservative,no,z,0,1.1999744109,-3,124
2019_Nov_07,218,001,0,recog,86,VULTURE,LF,lure,-,-,-,liberal,no,z,0,0.973345910363,-1,123
2019_Nov_07,218,001,0,recog,87,TUSKS,LF,target,right,aqua,imageability,conservative,no,z,1,1.00012244641,1,124
2019_Nov_07,218,001,0,recog,88,GOUGED,LF,target,left,yellow,pleasantness,liberal,no,z,1,0.733434907637,3,127
2019_Nov_07,218,001,0,recog,89,BOVINE,LF,target,left,yellow,pleasantness,liberal,no,z,1,0.586597104399,3,130
2019_Nov_07,218,001,0,recog,90,RUNNING,HF,target,left,yellow,pleasantness,conservative,no,m,0,0.973452226105,-1,129
2019_Nov_07,218,001,0,recog,91,SOCIAL,HF,lure,-,-,-,liberal,no,z,0,2.07958209848,-1,128
2019_Nov_07,218,001,0,recog,92,NECESSARY,HF,lure,-,-,-,conservative,yes,m,1,0.960062674963,3,131
2019_Nov_07,218,001,0,recog,93,CERTAIN,HF,lure,-,-,-,conservative,no,m,1,2.30604525971,3,134
2019_Nov_07,218,001,0,recog,94,NUMBER,HF,lure,-,-,-,conservative,no,m,1,0.840127520233,3,137
2019_Nov_07,218,001,0,recog,95,AVAILABLE,HF,target,left,yellow,pleasantness,liberal,no,m,0,1.58642993206,-3,134
2019_Nov_07,218,001,1,source,0,KNUCKLE,LF,target,right,aqua,imageability,liberal,no,8,1,3.63880033317,-,-
2019_Nov_07,218,001,1,source,1,SAVOURED,LF,target,right,aqua,imageability,conservative,no,8,1,1.39957415046,-,-
2019_Nov_07,218,001,1,source,2,FEELING,HF,target,right,aqua,imageability,liberal,no,2,0,1.30627915434,-,-
2019_Nov_07,218,001,1,source,3,SUSPEND,LF,target,left,yellow,pleasantness,conservative,no,8,0,1.31963754397,-,-
2019_Nov_07,218,001,1,source,4,EIGHT,HF,target,left,yellow,pleasantness,conservative,no,2,1,0.946704651937,-,-
2019_Nov_07,218,001,1,source,5,DELEGATED,LF,target,right,aqua,imageability,conservative,no,2,0,0.906702804243,-,-
2019_Nov_07,218,001,1,source,6,DEXTERITY,LF,target,right,aqua,imageability,liberal,no,8,1,1.42656845047,-,-
2019_Nov_07,218,001,1,source,7,PHRASED,LF,target,right,aqua,imageability,liberal,no,8,1,1.23988863976,-,-
2019_Nov_07,218,001,1,source,8,ENROLMENT,LF,target,left,yellow,pleasantness,liberal,no,2,1,0.826786361083,-,-
2019_Nov_07,218,001,1,source,9,AMULETS,LF,target,left,yellow,pleasantness,conservative,no,2,1,0.733470101814,-,-
2019_Nov_07,218,001,1,source,10,POWER,HF,target,right,aqua,imageability,conservative,no,2,0,1.2000598301,-,-
2019_Nov_07,218,001,1,source,11,AMONG,HF,target,right,aqua,imageability,liberal,no,8,1,3.69233287532,-,-
2019_Nov_07,218,001,1,source,12,SNEAKED,LF,target,left,yellow,pleasantness,liberal,no,8,0,2.71912334239,-,-
2019_Nov_07,218,001,1,source,13,NUCLEAR,HF,target,left,yellow,pleasantness,conservative,no,2,1,1.386287249,-,-
2019_Nov_07,218,001,1,source,14,EARLIER,HF,target,right,aqua,imageability,liberal,yes,2,0,0.99976500555,-,-
2019_Nov_07,218,001,1,source,15,GLASS,HF,target,right,aqua,imageability,liberal,no,8,1,1.73309836332,-,-
2019_Nov_07,218,001,1,source,16,FARAWAY,LF,target,left,yellow,pleasantness,liberal,no,2,1,1.47980734121,-,-
2019_Nov_07,218,001,1,source,17,NOSTRIL,LF,target,right,aqua,imageability,conservative,no,8,1,1.21308020899,-,-
2019_Nov_07,218,001,1,source,18,MENFOLK,LF,target,right,aqua,imageability,conservative,no,8,1,0.95998862055,-,-
2019_Nov_07,218,001,1,source,19,WATCH,HF,target,left,yellow,pleasantness,conservative,no,2,1,1.47985463339,-,-
2019_Nov_07,218,001,1,source,20,MIGHTILY,LF,target,left,yellow,pleasantness,conservative,no,2,1,1.0799432054,-,-
2019_Nov_07,218,001,1,source,21,GIVEN,HF,target,left,yellow,pleasantness,liberal,no,8,0,1.06670066326,-,-
2019_Nov_07,218,001,1,source,22,SKYLIGHT,LF,target,left,yellow,pleasantness,liberal,no,2,1,1.05332687618,-,-
2019_Nov_07,218,001,1,source,23,EXCEPT,HF,target,left,yellow,pleasantness,conservative,no,8,0,1.87975946247,-,-
2019_Nov_07,218,001,1,source,24,TAKEN,HF,target,right,aqua,imageability,conservative,no,8,1,1.15997256321,-,-
2019_Nov_07,218,001,1,source,25,PITCHER,LF,target,left,yellow,pleasantness,liberal,no,3,1,0.946842495795,-,-
2019_Nov_07,218,001,1,source,26,SLEEP,HF,target,left,yellow,pleasantness,conservative,no,1,1,1.91961943364,-,-
2019_Nov_07,218,001,1,source,27,LIKELY,HF,target,right,aqua,imageability,conservative,no,8,1,2.06622370885,-,-
2019_Nov_07,218,001,1,source,28,EQUALLED,LF,target,left,yellow,pleasantness,conservative,no,1,1,1.02641799537,-,-
2019_Nov_07,218,001,1,source,29,JOSTLED,LF,target,right,aqua,imageability,conservative,no,7,1,2.07955643606,-,-
2019_Nov_07,218,001,1,source,30,UPKEEP,LF,target,right,aqua,imageability,conservative,no,8,1,2.78573821985,-,-
2019_Nov_07,218,001,1,source,31,MEMBERS,HF,target,right,aqua,imageability,liberal,no,9,1,3.6522929006,-,-
2019_Nov_07,218,001,1,source,32,TAWNY,LF,target,right,aqua,imageability,liberal,no,9,1,1.17336431398,-,-
2019_Nov_07,218,001,1,source,33,LICENSING,LF,target,left,yellow,pleasantness,conservative,no,2,1,1.71971101182,-,-
2019_Nov_07,218,001,1,source,34,PEGGED,LF,target,right,aqua,imageability,liberal,no,7,1,2.23926027707,-,-
2019_Nov_07,218,001,1,source,35,USELESSLY,LF,target,left,yellow,pleasantness,conservative,yes,7,0,1.41321849278,-,-
2019_Nov_07,218,001,1,source,36,LONGER,HF,target,right,aqua,imageability,conservative,no,2,0,0.906453145553,-,-
2019_Nov_07,218,001,1,source,37,LEVEL,HF,target,left,yellow,pleasantness,conservative,no,2,1,1.58642919885,-,-
2019_Nov_07,218,001,1,source,38,WRITE,HF,target,left,yellow,pleasantness,liberal,no,8,0,1.93294849479,-,-
2019_Nov_07,218,001,1,source,39,MOPED,LF,target,left,yellow,pleasantness,liberal,no,8,0,1.54619932222,-,-
2019_Nov_07,218,001,1,source,40,CLASS,HF,target,left,yellow,pleasantness,liberal,no,2,1,0.919839397241,-,-
2019_Nov_07,218,001,1,source,41,SIMILAR,HF,target,right,aqua,imageability,conservative,no,8,1,1.49348284504,-,-
2019_Nov_07,218,001,1,source,42,BOOKS,HF,target,left,yellow,pleasantness,liberal,no,2,1,1.01336058927,-,-
2019_Nov_07,218,001,1,source,43,BEHIND,HF,target,right,aqua,imageability,conservative,no,8,1,2.41280496121,-,-
2019_Nov_07,218,001,1,source,44,QUICKLY,HF,target,right,aqua,imageability,liberal,no,8,1,1.0000058657,-,-
2019_Nov_07,218,001,1,source,45,CHIEF,HF,target,left,yellow,pleasantness,liberal,no,2,1,0.906769893142,-,-
2019_Nov_07,218,001,1,source,46,SACRAMENT,LF,target,right,aqua,imageability,liberal,yes,8,1,0.879792090402,-,-
2019_Nov_07,218,001,1,source,47,FINAL,HF,target,left,yellow,pleasantness,liberal,yes,8,0,0.426896562849,-,-
2019_Nov_07,218,001,1,recog,0,STUDENT,HF,lure,-,-,-,conservative,no,z,0,3.17248959206,-3,131
2019_Nov_07,218,001,1,recog,1,FARAWAY,LF,target,left,yellow,pleasantness,liberal,no,z,1,0.840367647167,3,134
2019_Nov_07,218,001,1,recog,2,OTHERS,HF,lure,-,-,-,liberal,no,m,1,1.03998864988,1,135
2019_Nov_07,218,001,1,recog,3,CLASS,HF,target,left,yellow,pleasantness,liberal,no,z,1,0.933404919266,3,138
2019_Nov_07,218,001,1,recog,4,SIMILAR,HF,target,right,aqua,imageability,conservative,no,z,1,1.55983853205,1,139
2019_Nov_07,218,001,1,recog,5,TAILED,LF,lure,-,-,-,conservative,no,m,1,0.906701337819,3,142
2019_Nov_07,218,001,1,recog,6,BASIC,HF,lure,-,-,-,liberal,no,m,1,1.3998813663,1,143
2019_Nov_07,218,001,1,recog,7,TODAY,HF,lure,-,-,-,conservative,no,m,1,1.22659367297,3,146
2019_Nov_07,218,001,1,recog,8,FALCON,LF,lure,-,-,-,conservative,no,m,1,0.773510443139,3,149
2019_Nov_07,218,001,1,recog,9,CRUCIALLY,LF,lure,-,-,-,liberal,no,m,1,0.973326113639,1,150
2019_Nov_07,218,001,1,recog,10,FECKLESS,LF,lure,-,-,-,conservative,no,m,1,1.5731738255,3,153
2019_Nov_07,218,001,1,recog,11,LITANY,LF,lure,-,-,-,conservative,no,m,1,0.733439673515,3,156
2019_Nov_07,218,001,1,recog,12,EQUALLED,LF,target,left,yellow,pleasantness,conservative,no,z,1,0.78674491994,1,157
2019_Nov_07,218,001,1,recog,13,AMULETS,LF,target,left,yellow,pleasantness,conservative,no,z,1,1.00002162975,1,158
2019_Nov_07,218,001,1,recog,14,LEVEL,HF,target,left,yellow,pleasantness,conservative,no,z,1,1.19968259252,1,159
2019_Nov_07,218,001,1,recog,15,SOFTENING,LF,lure,-,-,-,liberal,no,m,1,1.04032812704,1,160
2019_Nov_07,218,001,1,recog,16,EIGHT,HF,target,left,yellow,pleasantness,conservative,no,z,1,0.800213291374,1,161
2019_Nov_07,218,001,1,recog,17,POSITION,HF,lure,-,-,-,conservative,no,m,1,2.15984168486,3,164
2019_Nov_07,218,001,1,recog,18,GLASS,HF,target,right,aqua,imageability,liberal,no,z,1,1.05329644788,3,167
2019_Nov_07,218,001,1,recog,19,AUSPICES,LF,lure,-,-,-,conservative,no,m,1,2.47917127979,3,170
2019_Nov_07,218,001,1,recog,20,SNEAKED,LF,target,left,yellow,pleasantness,liberal,no,z,1,4.23872099963,3,173
2019_Nov_07,218,001,1,recog,21,USING,HF,lure,-,-,-,conservative,no,m,1,2.63932787921,3,176
2019_Nov_07,218,001,1,recog,22,LIKELY,HF,target,right,aqua,imageability,conservative,no,m,0,2.70606960235,-1,175
2019_Nov_07,218,001,1,recog,23,MIGHTILY,LF,target,left,yellow,pleasantness,conservative,no,z,1,1.47980184212,1,176
2019_Nov_07,218,001,1,recog,24,SKYLIGHT,LF,target,left,yellow,pleasantness,liberal,yes,z,1,0.760088264062,3,179
2019_Nov_07,218,001,1,recog,25,PHRASED,LF,target,right,aqua,imageability,liberal,no,z,1,1.45313418806,3,182
2019_Nov_07,218,001,1,recog,26,SACRAMENT,LF,target,right,aqua,imageability,liberal,no,z,1,0.853368595943,3,185
2019_Nov_07,218,001,1,recog,27,TAWNY,LF,target,right,aqua,imageability,liberal,no,z,1,0.693469353937,3,188
2019_Nov_07,218,001,1,recog,28,TROUBLE,HF,lure,-,-,-,conservative,no,z,0,1.73280581173,-3,185
2019_Nov_07,218,001,1,recog,29,LETTER,HF,lure,-,-,-,liberal,no,z,0,0.813463532234,-1,184
2019_Nov_07,218,001,1,recog,30,FATHER,HF,lure,-,-,-,liberal,no,m,1,4.27887572203,1,185
2019_Nov_07,218,001,1,recog,31,SEABED,LF,lure,-,-,-,liberal,no,m,1,1.35989564927,1,186
2019_Nov_07,218,001,1,recog,32,SNIGGERED,LF,lure,-,-,-,conservative,no,m,1,0.973200734385,3,189
2019_Nov_07,218,001,1,recog,33,PITCHER,LF,target,left,yellow,pleasantness,liberal,no,z,1,0.786854901742,3,192
2019_Nov_07,218,001,1,recog,34,ITSELF,HF,lure,-,-,-,liberal,no,m,1,1.41316826776,1,193
2019_Nov_07,218,001,1,recog,35,PNEUMATIC,LF,lure,-,-,-,liberal,no,m,1,1.10645175245,1,194
2019_Nov_07,218,001,1,recog,36,HANDS,HF,lure,-,-,-,conservative,no,z,0,1.13331297448,-3,191
2019_Nov_07,218,001,1,recog,37,ALONE,HF,lure,-,-,-,liberal,no,z,0,0.733545256045,-1,190
2019_Nov_07,218,001,1,recog,38,UPKEEP,LF,target,right,aqua,imageability,conservative,no,z,1,0.946671657396,1,191
2019_Nov_07,218,001,1,recog,39,USELESSLY,LF,target,left,yellow,pleasantness,conservative,no,m,0,1.62639365273,-1,190
2019_Nov_07,218,001,1,recog,40,GIVEN,HF,target,left,yellow,pleasantness,liberal,no,z,1,1.30651671503,3,193
2019_Nov_07,218,001,1,recog,41,DEXTERITY,LF,target,right,aqua,imageability,liberal,no,z,1,0.773415858789,3,196
2019_Nov_07,218,001,1,recog,42,RAGES,LF,lure,-,-,-,liberal,no,m,1,1.08002202569,1,197
2019_Nov_07,218,001,1,recog,43,HOURS,HF,lure,-,-,-,liberal,no,m,1,0.973465790527,1,198
2019_Nov_07,218,001,1,recog,44,WRITE,HF,target,left,yellow,pleasantness,liberal,no,z,1,0.680179519629,3,201
2019_Nov_07,218,001,1,recog,45,DELEGATED,LF,target,right,aqua,imageability,conservative,no,z,1,1.14661417357,1,202
2019_Nov_07,218,001,1,recog,46,FINAL,HF,target,left,yellow,pleasantness,liberal,no,z,1,0.733262969421,3,205
2019_Nov_07,218,001,1,recog,47,WIPERS,LF,lure,-,-,-,liberal,no,m,1,1.05333824097,1,206
2019_Nov_07,218,001,1,recog,48,BOOKS,HF,target,left,yellow,pleasantness,liberal,no,z,1,0.813518523135,3,209
2019_Nov_07,218,001,1,recog,49,ENROLMENT,LF,target,left,yellow,pleasantness,liberal,no,z,1,0.853397191211,3,212
2019_Nov_07,218,001,1,recog,50,MOTHER,HF,lure,-,-,-,liberal,no,z,0,0.920071092237,-1,211
2019_Nov_07,218,001,1,recog,51,MEMBERS,HF,target,right,aqua,imageability,liberal,no,z,1,0.706531892523,3,214
2019_Nov_07,218,001,1,recog,52,SLEEP,HF,target,left,yellow,pleasantness,conservative,no,z,1,1.41314517158,1,215
2019_Nov_07,218,001,1,recog,53,WITHIN,HF,lure,-,-,-,conservative,yes,m,1,0.773399361519,3,218
2019_Nov_07,218,001,1,recog,54,TOXICITY,LF,lure,-,-,-,liberal,no,m,1,1.33325659048,1,219
2019_Nov_07,218,001,1,recog,55,MENFOLK,LF,target,right,aqua,imageability,conservative,no,z,1,1.06664127309,1,220
2019_Nov_07,218,001,1,recog,56,KETCHUP,LF,lure,-,-,-,liberal,no,m,1,4.23884271283,1,221
2019_Nov_07,218,001,1,recog,57,JINGLE,LF,lure,-,-,-,conservative,no,m,1,0.946726281691,3,224
2019_Nov_07,218,001,1,recog,58,TIRADE,LF,lure,-,-,-,conservative,no,m,1,1.30651928128,3,227
2019_Nov_07,218,001,1,recog,59,MALIGNED,LF,lure,-,-,-,conservative,no,m,1,2.31919431731,3,230
2019_Nov_07,218,001,1,recog,60,NOSTRIL,LF,target,right,aqua,imageability,conservative,no,z,1,1.02672044532,1,231
2019_Nov_07,218,001,1,recog,61,TAKEN,HF,target,right,aqua,imageability,conservative,no,z,1,1.23989267243,1,232
2019_Nov_07,218,001,1,recog,62,QUICKLY,HF,target,right,aqua,imageability,liberal,no,m,0,1.07998646491,-3,229
2019_Nov_07,218,001,1,recog,63,MISFITS,LF,lure,-,-,-,liberal,no,m,1,0.973347376787,1,230
2019_Nov_07,218,001,1,recog,64,REREAD,LF,lure,-,-,-,conservative,no,m,1,1.15991757231,3,233
2019_Nov_07,218,001,1,recog,65,CHIEF,HF,target,left,yellow,pleasantness,liberal,no,z,1,0.786740154062,3,236
2019_Nov_07,218,001,1,recog,66,GENERAL,HF,lure,-,-,-,liberal,no,z,0,0.906714169029,-1,235
2019_Nov_07,218,001,1,recog,67,TUFTS,LF,lure,-,-,-,liberal,yes,m,1,0.653450275761,1,236
2019_Nov_07,218,001,1,recog,68,POWER,HF,target,right,aqua,imageability,conservative,no,z,1,0.147000209698,1,237
2019_Nov_07,218,001,1,recog,69,GIRLS,HF,lure,-,-,-,conservative,no,z,0,0.2003039897,-3,234
2019_Nov_07,218,001,1,recog,70,JOSTLED,LF,target,right,aqua,imageability,conservative,no,z,1,1.71974253993,1,235
2019_Nov_07,218,001,1,recog,71,VOLITION,LF,lure,-,-,-,liberal,no,m,1,1.43985535193,1,236
2019_Nov_07,218,001,1,recog,72,AMONG,HF,target,right,aqua,imageability,liberal,no,z,1,0.840138151807,3,239
2019_Nov_07,218,001,1,recog,73,PEGGED,LF,target,right,aqua,imageability,liberal,no,m,0,1.07994173897,-3,236
2019_Nov_07,218,001,1,recog,74,STRAIGHT,HF,lure,-,-,-,liberal,no,m,1,1.01333052758,1,237
2019_Nov_07,218,001,1,recog,75,LABOUR,HF,lure,-,-,-,liberal,no,m,1,0.826783428235,1,238
2019_Nov_07,218,001,1,recog,76,LONGER,HF,target,right,aqua,imageability,conservative,no,z,1,1.37292665974,1,239
2019_Nov_07,218,001,1,recog,77,NUCLEAR,HF,target,left,yellow,pleasantness,conservative,no,z,1,2.06634212259,1,240
2019_Nov_07,218,001,1,recog,78,LICENSING,LF,target,left,yellow,pleasantness,conservative,no,z,1,0.733136123743,1,241
2019_Nov_07,218,001,1,recog,79,SUSPEND,LF,target,left,yellow,pleasantness,conservative,no,m,0,1.21330933775,-1,240
2019_Nov_07,218,001,1,recog,80,HOMESTEAD,LF,lure,-,-,-,conservative,no,m,1,1.10660939303,3,243
2019_Nov_07,218,001,1,recog,81,FEELING,HF,target,right,aqua,imageability,liberal,no,z,1,0.853452915324,3,246
2019_Nov_07,218,001,1,recog,82,WATCH,HF,target,left,yellow,pleasantness,conservative,no,z,1,2.97257457133,1,247
2019_Nov_07,218,001,1,recog,83,EARLIER,HF,target,right,aqua,imageability,liberal,no,z,1,4.94524592664,3,250
2019_Nov_07,218,001,1,recog,84,LOOKED,HF,lure,-,-,-,conservative,no,m,1,0.933728998975,3,253
2019_Nov_07,218,001,1,recog,85,DULLED,LF,lure,-,-,-,conservative,no,m,1,1.43980476031,3,256
2019_Nov_07,218,001,1,recog,86,MYSELF,HF,lure,-,-,-,conservative,no,m,1,1.33317300431,3,259
2019_Nov_07,218,001,1,recog,87,MOPED,LF,target,left,yellow,pleasantness,liberal,no,m,0,1.9993771364,-3,256
2019_Nov_07,218,001,1,recog,88,TRUTH,HF,lure,-,-,-,conservative,no,z,0,1.34657905272,-3,253
2019_Nov_07,218,001,1,recog,89,KNUCKLE,LF,target,right,aqua,imageability,liberal,no,z,1,0.98672959581,3,256
2019_Nov_07,218,001,1,recog,90,GURGLE,LF,lure,-,-,-,liberal,no,m,1,1.14661307376,1,257
2019_Nov_07,218,001,1,recog,91,BEHIND,HF,target,right,aqua,imageability,conservative,yes,m,0,0.600215784295,-1,256
2019_Nov_07,218,001,1,recog,92,NATIONAL,HF,lure,-,-,-,conservative,no,m,1,1.34658015254,3,259
2019_Nov_07,218,001,1,recog,93,SAVOURED,LF,target,right,aqua,imageability,conservative,no,z,1,2.78565023441,1,260
2019_Nov_07,218,001,1,recog,94,EXCEPT,HF,target,left,yellow,pleasantness,conservative,no,z,1,1.319651475,1,261
2019_Nov_07,218,001,1,recog,95,CALLED,HF,lure,-,-,-,liberal,no,m,1,0.800057850427,1,262
2019_Nov_07,218,001,2,source,0,CATALYST,LF,target,right,aqua,imageability,liberal,no,8,1,2.9859168303,-,-
2019_Nov_07,218,001,2,source,1,PHYSICAL,HF,target,right,aqua,imageability,conservative,no,8,1,1.5730939054,-,-
2019_Nov_07,218,001,2,source,2,OLDER,HF,target,left,yellow,pleasantness,conservative,no,2,1,1.05336976908,-,-
2019_Nov_07,218,001,2,source,3,ZIGZAG,LF,target,right,aqua,imageability,conservative,no,8,1,0.920087589507,-,-
2019_Nov_07,218,001,2,source,4,LEFTISTS,LF,target,left,yellow,pleasantness,liberal,no,2,1,0.826729903759,-,-
2019_Nov_07,218,001,2,source,5,HYENA,LF,target,left,yellow,pleasantness,liberal,no,2,1,0.826889010765,-,-
2019_Nov_07,218,001,2,source,6,VOICE,HF,target,right,aqua,imageability,conservative,no,2,0,1.37295122234,-,-
2019_Nov_07,218,001,2,source,7,NIGHT,HF,target,right,aqua,imageability,liberal,no,8,1,0.69348841745,-,-
2019_Nov_07,218,001,2,source,8,FIFTIETH,LF,target,right,aqua,imageability,liberal,no,8,1,0.733194414098,-,-
2019_Nov_07,218,001,2,source,9,SEDAN,LF,target,left,yellow,pleasantness,conservative,yes,8,0,0.640199668295,-,-
2019_Nov_07,218,001,2,source,10,WALKED,HF,target,left,yellow,pleasantness,conservative,no,2,1,1.78636145006,-,-
2019_Nov_07,218,001,2,source,11,ENZYME,LF,target,right,aqua,imageability,conservative,no,8,1,0.813174646702,-,-
2019_Nov_07,218,001,2,source,12,ROPED,LF,target,left,yellow,pleasantness,conservative,yes,8,0,0.773422091091,-,-
2019_Nov_07,218,001,2,source,13,KITCHEN,HF,target,left,yellow,pleasantness,conservative,no,2,1,2.01275605596,-,-
2019_Nov_07,218,001,2,source,14,EGGSHELL,LF,target,right,aqua,imageability,liberal,no,8,1,2.07962865744,-,-
2019_Nov_07,218,001,2,source,15,GAZELLE,LF,target,left,yellow,pleasantness,liberal,no,2,1,0.973359841392,-,-
2019_Nov_07,218,001,2,source,16,RUPTURE,LF,target,left,yellow,pleasantness,liberal,no,2,1,0.77358193131,-,-
2019_Nov_07,218,001,2,source,17,PERHAPS,HF,target,left,yellow,pleasantness,liberal,no,2,1,0.746764335395,-,-
2019_Nov_07,218,001,2,source,18,ALREADY,HF,target,left,yellow,pleasantness,liberal,no,2,1,0.760049770431,-,-
2019_Nov_07,218,001,2,source,19,PAPER,HF,target,right,aqua,imageability,conservative,no,2,0,1.0397272598,-,-
2019_Nov_07,218,001,2,source,20,GUMMED,LF,target,right,aqua,imageability,conservative,no,8,1,1.89308632398,-,-
2019_Nov_07,218,001,2,source,21,PREPARED,HF,target,right,aqua,imageability,liberal,no,8,1,3.6389304783,-,-
2019_Nov_07,218,001,2,source,22,PESTERED,LF,target,left,yellow,pleasantness,conservative,no,2,1,1.06638354907,-,-
2019_Nov_07,218,001,2,source,23,DEGREE,HF,target,left,yellow,pleasantness,liberal,no,2,1,0.866713421153,-,-
2019_Nov_07,218,001,2,source,24,SCHOOL,HF,target,right,aqua,imageability,liberal,no,8,1,1.62646294127,-,-
2019_Nov_07,218,001,2,source,25,YOUNG,HF,target,right,aqua,imageability,conservative,no,8,1,5.39826023454,-,-
2019_Nov_07,218,001,2,source,26,KILOWATT,LF,target,right,aqua,imageability,liberal,no,8,1,0.973464324103,-,-
2019_Nov_07,218,001,2,source,27,KIMONO,LF,target,left,yellow,pleasantness,conservative,no,2,1,0.986455007911,-,-
2019_Nov_07,218,001,2,source,28,VETOED,LF,target,right,aqua,imageability,liberal,yes,2,0,0.840036601944,-,-
2019_Nov_07,218,001,2,source,29,LOGGED,LF,target,right,aqua,imageability,conservative,no,None,-1,-1,-,-
2019_Nov_07,218,001,2,source,30,MATERIAL,HF,target,right,aqua,imageability,conservative,no,8,1,4.74404155259,-,-
2019_Nov_07,218,001,2,source,31,PRACTICE,HF,target,left,yellow,pleasantness,liberal,no,2,1,1.45317084866,-,-
2019_Nov_07,218,001,2,source,32,BUSINESS,HF,target,right,aqua,imageability,liberal,no,8,1,1.13302885483,-,-
2019_Nov_07,218,001,2,source,33,ARRIVED,HF,target,left,yellow,pleasantness,liberal,no,8,0,2.26590556816,-,-
2019_Nov_07,218,001,2,source,34,NORTH,HF,target,right,aqua,imageability,liberal,no,8,1,0.839810772644,-,-
2019_Nov_07,218,001,2,source,35,ADDED,HF,target,right,aqua,imageability,liberal,no,2,0,0.94666945776,-,-
2019_Nov_07,218,001,2,source,36,ORBITAL,LF,target,right,aqua,imageability,liberal,no,8,1,0.959784421004,-,-
2019_Nov_07,218,001,2,source,37,OFFER,HF,target,left,yellow,pleasantness,conservative,no,2,1,0.786839137684,-,-
2019_Nov_07,218,001,2,source,38,TRADE,HF,target,left,yellow,pleasantness,conservative,no,2,1,1.34656328866,-,-
2019_Nov_07,218,001,2,source,39,TIMES,HF,target,right,aqua,imageability,conservative,no,2,0,0.906692172668,-,-
2019_Nov_07,218,001,2,source,40,BORAX,LF,target,left,yellow,pleasantness,liberal,no,2,1,0.866521686212,-,-
2019_Nov_07,218,001,2,source,41,JABBED,LF,target,left,yellow,pleasantness,conservative,no,2,1,0.946801069316,-,-
2019_Nov_07,218,001,2,source,42,SIPHON,LF,target,left,yellow,pleasantness,liberal,no,8,0,0.920130849016,-,-
2019_Nov_07,218,001,2,source,43,STEADFAST,LF,target,left,yellow,pleasantness,conservative,no,2,1,0.853394624969,-,-
2019_Nov_07,218,001,2,source,44,IRONICAL,LF,target,right,aqua,imageability,conservative,no,8,1,0.906684473943,-,-
2019_Nov_07,218,001,2,source,45,ORDER,HF,target,left,yellow,pleasantness,conservative,no,2,1,1.14670362544,-,-
2019_Nov_07,218,001,2,source,46,UNDER,HF,target,left,yellow,pleasantness,liberal,no,2,1,2.02597660174,-,-
2019_Nov_07,218,001,2,source,47,UNHEEDED,LF,target,right,aqua,imageability,conservative,yes,2,0,0.853388392667,-,-
2019_Nov_07,218,001,2,recog,0,INORGANIC,LF,lure,-,-,-,liberal,no,z,0,2.63938763599,-1,261
2019_Nov_07,218,001,2,recog,1,HITCHING,LF,lure,-,-,-,liberal,no,z,0,1.71979569781,-1,260
2019_Nov_07,218,001,2,recog,2,SCHOOL,HF,target,right,aqua,imageability,liberal,no,z,1,1.01338771811,3,263
2019_Nov_07,218,001,2,recog,3,SYSTEM,HF,lure,-,-,-,liberal,no,m,1,0.986657374426,1,264
2019_Nov_07,218,001,2,recog,4,BORAX,LF,target,left,yellow,pleasantness,liberal,no,z,1,0.680120496062,3,267
2019_Nov_07,218,001,2,recog,5,PESTERED,LF,target,left,yellow,pleasantness,conservative,no,z,1,1.0933059943,1,268
2019_Nov_07,218,001,2,recog,6,EAVES,LF,lure,-,-,-,liberal,no,m,1,0.800094877634,1,269
2019_Nov_07,218,001,2,recog,7,ELICIT,LF,lure,-,-,-,liberal,no,m,1,0.746504411737,1,270
2019_Nov_07,218,001,2,recog,8,ABHORRENT,LF,lure,-,-,-,conservative,no,m,1,0.999758773248,3,273
2019_Nov_07,218,001,2,recog,9,ALREADY,HF,target,left,yellow,pleasantness,liberal,no,z,1,1.07970711113,3,276
2019_Nov_07,218,001,2,recog,10,YOUNG,HF,target,right,aqua,imageability,conservative,no,z,1,1.50649992448,1,277
2019_Nov_07,218,001,2,recog,11,SWOOPING,LF,lure,-,-,-,liberal,no,m,1,0.666831028359,1,278
2019_Nov_07,218,001,2,recog,12,UNHEEDED,LF,target,right,aqua,imageability,conservative,no,m,0,1.09331259321,-1,277
2019_Nov_07,218,001,2,recog,13,ORDER,HF,target,left,yellow,pleasantness,conservative,no,z,1,1.3865006137,1,278
2019_Nov_07,218,001,2,recog,14,WAITING,HF,lure,-,-,-,liberal,no,z,0,1.7997143406,-1,277
2019_Nov_07,218,001,2,recog,15,MATERIAL,HF,target,right,aqua,imageability,conservative,no,z,1,0.920072192055,1,278
2019_Nov_07,218,001,2,recog,16,AHEAD,HF,lure,-,-,-,conservative,no,z,0,2.05298483278,-3,275
2019_Nov_07,218,001,2,recog,17,IRONICAL,LF,target,right,aqua,imageability,conservative,no,z,1,1.26631763331,1,276
2019_Nov_07,218,001,2,recog,18,GUMMED,LF,target,right,aqua,imageability,conservative,no,z,1,0.880095640175,1,277
2019_Nov_07,218,001,2,recog,19,OLDER,HF,target,left,yellow,pleasantness,conservative,no,z,1,1.61310675127,1,278
2019_Nov_07,218,001,2,recog,20,MODERN,HF,lure,-,-,-,conservative,no,m,1,1.63974177739,3,281
2019_Nov_07,218,001,2,recog,21,PREPARED,HF,target,right,aqua,imageability,liberal,no,z,1,0.866766945629,3,284
2019_Nov_07,218,001,2,recog,22,MORNING,HF,lure,-,-,-,conservative,no,m,1,1.50646326388,3,287
2019_Nov_07,218,001,2,recog,23,EGGSHELL,LF,target,right,aqua,imageability,liberal,no,z,1,0.999978736852,3,290
2019_Nov_07,218,001,2,recog,24,UNDER,HF,target,left,yellow,pleasantness,liberal,no,z,1,1.00008615241,3,293
2019_Nov_07,218,001,2,recog,25,KRAALS,LF,lure,-,-,-,conservative,no,m,1,1.013307798,3,296
2019_Nov_07,218,001,2,recog,26,COUNCIL,HF,lure,-,-,-,conservative,no,m,1,0.853344399947,3,299
2019_Nov_07,218,001,2,recog,27,TRADE,HF,target,left,yellow,pleasantness,conservative,no,z,1,0.906710869575,1,300
2019_Nov_07,218,001,2,recog,28,FORCE,HF,lure,-,-,-,liberal,no,z,0,2.33282252897,-1,299
2019_Nov_07,218,001,2,recog,29,VOICE,HF,target,right,aqua,imageability,conservative,no,m,0,2.18619919024,-1,298
2019_Nov_07,218,001,2,recog,30,ADDED,HF,target,right,aqua,imageability,liberal,no,z,1,2.8257188044,3,301
2019_Nov_07,218,001,2,recog,31,KIMONO,LF,target,left,yellow,pleasantness,conservative,no,z,1,0.706784117455,1,302
2019_Nov_07,218,001,2,recog,32,PHYSICAL,HF,target,right,aqua,imageability,conservative,no,m,0,1.25327892411,-1,301
2019_Nov_07,218,001,2,recog,33,ASPIRED,LF,lure,-,-,-,conservative,no,z,0,1.16002352144,-3,298
2019_Nov_07,218,001,2,recog,34,STYLED,LF,lure,-,-,-,conservative,no,z,0,2.73276988434,-3,295
2019_Nov_07,218,001,2,recog,35,FLAGGED,LF,lure,-,-,-,conservative,no,m,1,2.98596815514,3,298
2019_Nov_07,218,001,2,recog,36,LEFTISTS,LF,target,left,yellow,pleasantness,liberal,no,z,1,1.31988133697,3,301
2019_Nov_07,218,001,2,recog,37,GAZELLE,LF,target,left,yellow,pleasantness,liberal,no,z,1,4.11875981588,3,304
2019_Nov_07,218,001,2,recog,38,SUDDENLY,HF,lure,-,-,-,conservative,no,m,1,2.61257370614,3,307
2019_Nov_07,218,001,2,recog,39,BUSINESS,HF,target,right,aqua,imageability,liberal,yes,z,1,0.560139515582,3,310
2019_Nov_07,218,001,2,recog,40,PERHAPS,HF,target,left,yellow,pleasantness,liberal,no,z,1,0.880078043087,3,313
2019_Nov_07,218,001,2,recog,41,ACCORDING,HF,lure,-,-,-,liberal,no,z,0,0.826840252166,-1,312
2019_Nov_07,218,001,2,recog,42,ORBITAL,LF,target,right,aqua,imageability,liberal,no,z,1,0.520268179625,3,315
2019_Nov_07,218,001,2,recog,43,PAPER,HF,target,right,aqua,imageability,conservative,no,z,1,1.6131819055,1,316
2019_Nov_07,218,001,2,recog,44,HIGHER,HF,lure,-,-,-,liberal,no,m,1,0.866830001862,1,317
2019_Nov_07,218,001,2,recog,45,UNGAINLY,LF,lure,-,-,-,liberal,no,m,1,0.866706455638,1,318
2019_Nov_07,218,001,2,recog,46,PLACE,HF,lure,-,-,-,conservative,no,z,0,1.43984655339,-3,315
2019_Nov_07,218,001,2,recog,47,HYENA,LF,target,left,yellow,pleasantness,liberal,no,z,1,0.946423831737,3,318
2019_Nov_07,218,001,2,recog,48,CRYPT,LF,lure,-,-,-,conservative,no,z,0,1.7597363223,-3,315
2019_Nov_07,218,001,2,recog,49,SUCCESS,HF,lure,-,-,-,conservative,no,m,1,1.46647937988,3,318
2019_Nov_07,218,001,2,recog,50,WALKED,HF,target,left,yellow,pleasantness,conservative,no,m,0,0.959817048939,-1,317
2019_Nov_07,218,001,2,recog,51,ENZYME,LF,target,right,aqua,imageability,conservative,no,z,1,1.0933789489,1,318
2019_Nov_07,218,001,2,recog,52,DEGREE,HF,target,left,yellow,pleasantness,liberal,no,z,1,1.02650451439,3,321
2019_Nov_07,218,001,2,recog,53,SPOKE,HF,lure,-,-,-,conservative,no,m,1,1.91968982199,3,324
2019_Nov_07,218,001,2,recog,54,NIGHT,HF,target,right,aqua,imageability,liberal,no,z,1,1.4931081737,3,327
2019_Nov_07,218,001,2,recog,55,TULIPS,LF,lure,-,-,-,liberal,no,m,1,0.906606386863,1,328
2019_Nov_07,218,001,2,recog,56,LOGGED,LF,target,right,aqua,imageability,conservative,no,z,1,2.29282068127,1,329
2019_Nov_07,218,001,2,recog,57,AEONS,LF,lure,-,-,-,conservative,no,m,1,3.59873176318,3,332
2019_Nov_07,218,001,2,recog,58,JABBED,LF,target,left,yellow,pleasantness,conservative,no,m,0,1.49313017006,-1,331
2019_Nov_07,218,001,2,recog,59,ROPED,LF,target,left,yellow,pleasantness,conservative,no,z,1,1.58642993206,1,332
2019_Nov_07,218,001,2,recog,60,REDDENED,LF,lure,-,-,-,conservative,no,m,1,1.62650730059,3,335
2019_Nov_07,218,001,2,recog,61,VETOED,LF,target,right,aqua,imageability,liberal,no,z,1,0.973316215277,3,338
2019_Nov_07,218,001,2,recog,62,SIPHON,LF,target,left,yellow,pleasantness,liberal,no,z,1,0.786768382725,3,341
2019_Nov_07,218,001,2,recog,63,ARRIVED,HF,target,left,yellow,pleasantness,liberal,no,z,1,0.84006996309,3,344
2019_Nov_07,218,001,2,recog,64,WANTED,HF,lure,-,-,-,conservative,no,z,0,1.78637244824,-3,341
2019_Nov_07,218,001,2,recog,65,SEQUEL,LF,lure,-,-,-,liberal,no,m,1,1.83969565836,1,342
2019_Nov_07,218,001,2,recog,66,SOVIET,HF,lure,-,-,-,liberal,no,m,1,0.733570185253,1,343
2019_Nov_07,218,001,2,recog,67,ZIGZAG,LF,target,right,aqua,imageability,conservative,no,z,1,1.09304423761,1,344
2019_Nov_07,218,001,2,recog,68,SLIGHTLY,HF,lure,-,-,-,liberal,no,m,1,0.853411488845,1,345
2019_Nov_07,218,001,2,recog,69,CATALYST,LF,target,right,aqua,imageability,liberal,no,z,1,0.720061487159,3,348
2019_Nov_07,218,001,2,recog,70,TIMES,HF,target,right,aqua,imageability,conservative,no,z,1,1.55986382787,1,349
2019_Nov_07,218,001,2,recog,71,RUPTURE,LF,target,left,yellow,pleasantness,liberal,no,z,1,0.813542719131,3,352
2019_Nov_07,218,001,2,recog,72,DECIDED,HF,lure,-,-,-,liberal,no,z,0,0.799827621856,-1,351
2019_Nov_07,218,001,2,recog,73,SEDAN,LF,target,left,yellow,pleasantness,conservative,no,m,0,1.39961044446,-1,350
2019_Nov_07,218,001,2,recog,74,OFFER,HF,target,left,yellow,pleasantness,conservative,no,z,1,3.58563073097,1,351
2019_Nov_07,218,001,2,recog,75,ICEBOX,LF,lure,-,-,-,conservative,no,z,0,0.920097121263,-3,348
2019_Nov_07,218,001,2,recog,76,EBONY,LF,lure,-,-,-,conservative,no,z,0,1.70637351873,-3,345
2019_Nov_07,218,001,2,recog,77,TOLERABLY,LF,lure,-,-,-,conservative,no,z,0,2.42618351417,-3,342
2019_Nov_07,218,001,2,recog,78,PLEASE,HF,lure,-,-,-,liberal,no,z,0,2.10624791951,-1,341
2019_Nov_07,218,001,2,recog,79,KITCHEN,HF,target,left,yellow,pleasantness,conservative,no,m,0,1.74664738808,-1,340
2019_Nov_07,218,001,2,recog,80,THUDDING,LF,lure,-,-,-,liberal,no,m,1,1.20000007332,1,341
2019_Nov_07,218,001,2,recog,81,WRONG,HF,lure,-,-,-,conservative,no,m,1,1.04000624697,3,344
2019_Nov_07,218,001,2,recog,82,KILOWATT,LF,target,right,aqua,imageability,liberal,no,z,1,0.89332791734,3,347
2019_Nov_07,218,001,2,recog,83,OCCUPANCY,LF,lure,-,-,-,liberal,no,z,0,1.17328292745,-1,346
2019_Nov_07,218,001,2,recog,84,WASHBASIN,LF,lure,-,-,-,liberal,no,m,1,1.8132417356,1,347
2019_Nov_07,218,001,2,recog,85,FREEDOM,HF,lure,-,-,-,conservative,no,m,1,1.89274354737,3,350
2019_Nov_07,218,001,2,recog,86,FIFTIETH,LF,target,right,aqua,imageability,liberal,no,z,1,0.86681093835,3,353
2019_Nov_07,218,001,2,recog,87,STEADFAST,LF,target,left,yellow,pleasantness,conservative,no,z,1,5.43795523301,1,354
2019_Nov_07,218,001,2,recog,88,PROBABLY,HF,lure,-,-,-,liberal,no,m,1,2.94589921854,1,355
2019_Nov_07,218,001,2,recog,89,SPACE,HF,lure,-,-,-,liberal,yes,m,1,0.680213613987,1,356
2019_Nov_07,218,001,2,recog,90,COVER,HF,lure,-,-,-,liberal,no,z,0,1.35970464754,-1,355
2019_Nov_07,218,001,2,recog,91,PRACTICE,HF,target,left,yellow,pleasantness,liberal,yes,z,1,0.75985803549,3,358
2019_Nov_07,218,001,2,recog,92,NEITHER,HF,lure,-,-,-,conservative,no,m,1,2.29281188273,3,361
2019_Nov_07,218,001,2,recog,93,GULLIBLE,LF,lure,-,-,-,conservative,no,m,1,2.43946968242,3,364
2019_Nov_07,218,001,2,recog,94,SMOCK,LF,lure,-,-,-,liberal,no,m,1,0.947068691701,1,365
2019_Nov_07,218,001,2,recog,95,NORTH,HF,target,right,aqua,imageability,liberal,yes,z,1,6.70442170835,3,368
2019_Nov_07,218,001,3,source,0,SUMMER,HF,target,right,aqua,imageability,liberal,no,8,1,2.98588126951,-,-
2019_Nov_07,218,001,3,source,1,SMIRK,LF,target,right,aqua,imageability,conservative,no,8,1,1.39984067303,-,-
2019_Nov_07,218,001,3,source,2,RECENT,HF,target,right,aqua,imageability,liberal,no,2,0,0.85340562315,-,-
2019_Nov_07,218,001,3,source,3,REOPEN,LF,target,left,yellow,pleasantness,liberal,yes,2,1,0.600198187207,-,-
2019_Nov_07,218,001,3,source,4,SEVEN,HF,target,right,aqua,imageability,liberal,yes,2,0,0.440232589514,-,-
2019_Nov_07,218,001,3,source,5,COMES,HF,target,right,aqua,imageability,conservative,no,2,0,0.813400842607,-,-
2019_Nov_07,218,001,3,source,6,WAFER,LF,target,right,aqua,imageability,liberal,yes,2,0,0.573312769181,-,-
2019_Nov_07,218,001,3,source,7,MIDDLE,HF,target,right,aqua,imageability,liberal,no,8,1,0.853156331066,-,-
2019_Nov_07,218,001,3,source,8,SODDING,LF,target,left,yellow,pleasantness,conservative,no,2,1,1.06642057628,-,-
2019_Nov_07,218,001,3,source,9,BAGGY,LF,target,left,yellow,pleasantness,conservative,no,8,0,0.786798444417,-,-
2019_Nov_07,218,001,3,source,10,SIZZLING,LF,target,left,yellow,pleasantness,liberal,no,2,1,1.25322246679,-,-
2019_Nov_07,218,001,3,source,11,DUELLING,LF,target,left,yellow,pleasantness,conservative,no,8,0,0.92003773109,-,-
2019_Nov_07,218,001,3,source,12,LIVED,HF,target,left,yellow,pleasantness,liberal,no,8,0,0.706546556763,-,-
2019_Nov_07,218,001,3,source,13,TOOTHACHE,LF,target,right,aqua,imageability,conservative,no,8,1,2.19928519161,-,-
2019_Nov_07,218,001,3,source,14,SECOND,HF,target,left,yellow,pleasantness,liberal,no,2,1,0.893387307513,-,-
2019_Nov_07,218,001,3,source,15,JARRED,LF,target,right,aqua,imageability,conservative,no,2,0,0.933187155299,-,-
2019_Nov_07,218,001,3,source,16,CODING,LF,target,right,aqua,imageability,liberal,no,8,1,0.880054213696,-,-
2019_Nov_07,218,001,3,source,17,BOWER,LF,target,right,aqua,imageability,liberal,yes,8,1,0.520209156058,-,-
2019_Nov_07,218,001,3,source,18,MERELY,HF,target,left,yellow,pleasantness,conservative,no,8,0,1.03975475525,-,-
2019_Nov_07,218,001,3,source,19,WESTERN,HF,target,left,yellow,pleasantness,conservative,no,2,1,2.11931595719,-,-
2019_Nov_07,218,001,3,source,20,LATER,HF,target,right,aqua,imageability,conservative,no,2,0,0.866713054546,-,-
2019_Nov_07,218,001,3,source,21,ROLLERS,LF,target,left,yellow,pleasantness,conservative,no,8,0,0.986681203817,-,-
2019_Nov_07,218,001,3,source,22,MEETING,HF,target,left,yellow,pleasantness,conservative,no,2,1,0.666932211617,-,-
2019_Nov_07,218,001,3,source,23,ANAEMIC,LF,target,right,aqua,imageability,conservative,no,8,1,0.693469720543,-,-
2019_Nov_07,218,001,3,source,24,FUTURE,HF,target,left,yellow,pleasantness,conservative,no,2,1,0.773411092911,-,-
2019_Nov_07,218,001,3,source,25,UPSTART,LF,target,left,yellow,pleasantness,conservative,no,2,1,1.99937163731,-,-
2019_Nov_07,218,001,3,source,26,VIGILANT,LF,target,left,yellow,pleasantness,liberal,no,2,1,0.826455682467,-,-
2019_Nov_07,218,001,3,source,27,MAGGOT,LF,target,right,aqua,imageability,liberal,no,8,1,0.733419143579,-,-
2019_Nov_07,218,001,3,source,28,AREAS,HF,target,left,yellow,pleasantness,liberal,no,2,1,1.00010704895,-,-
2019_Nov_07,218,001,3,source,29,BAIZE,LF,target,left,yellow,pleasantness,liberal,no,2,1,0.85317246173,-,-
2019_Nov_07,218,001,3,source,30,QUESTION,HF,target,left,yellow,pleasantness,liberal,no,2,1,1.99966162266,-,-
2019_Nov_07,218,001,3,source,31,PUBLIC,HF,target,right,aqua,imageability,conservative,no,8,1,0.893434966295,-,-
2019_Nov_07,218,001,3,source,32,LUCERNE,LF,target,right,aqua,imageability,conservative,no,2,0,1.57324861313,-,-
2019_Nov_07,218,001,3,source,33,ANIMAL,HF,target,left,yellow,pleasantness,liberal,no,2,1,1.54647537654,-,-
2019_Nov_07,218,001,3,source,34,PRIVATE,HF,target,right,aqua,imageability,liberal,no,2,0,1.25324702939,-,-
2019_Nov_07,218,001,3,source,35,WHATEVER,HF,target,right,aqua,imageability,conservative,no,8,1,0.373565654003,-,-
2019_Nov_07,218,001,3,source,36,BLACK,HF,target,right,aqua,imageability,conservative,no,8,1,0.920063026905,-,-
2019_Nov_07,218,001,3,source,37,MOODILY,LF,target,left,yellow,pleasantness,liberal,no,2,1,1.05337820102,-,-
2019_Nov_07,218,001,3,source,38,SORRY,HF,target,left,yellow,pleasantness,liberal,no,8,0,2.092896862,-,-
2019_Nov_07,218,001,3,source,39,MOUTH,HF,target,left,yellow,pleasantness,conservative,no,8,0,2.61271961533,-,-
2019_Nov_07,218,001,3,source,40,ECONOMIC,HF,target,left,yellow,pleasantness,conservative,no,2,1,0.82684905071,-,-
2019_Nov_07,218,001,3,source,41,OBNOXIOUS,LF,target,right,aqua,imageability,liberal,no,2,0,1.33317520394,-,-
2019_Nov_07,218,001,3,source,42,RETURN,HF,target,right,aqua,imageability,liberal,no,2,0,1.45314775249,-,-
2019_Nov_07,218,001,3,source,43,RABBIS,LF,target,right,aqua,imageability,liberal,no,8,1,0.773459484904,-,-
2019_Nov_07,218,001,3,source,44,LOVELIEST,LF,target,right,aqua,imageability,conservative,no,8,1,1.62644497757,-,-
2019_Nov_07,218,001,3,source,45,ADENOIDS,LF,target,left,yellow,pleasantness,liberal,no,8,0,1.90636516011,-,-
2019_Nov_07,218,001,3,source,46,KNOWLEDGE,HF,target,right,aqua,imageability,conservative,no,8,1,1.18635939707,-,-
2019_Nov_07,218,001,3,source,47,GEOLOGIST,LF,target,left,yellow,pleasantness,conservative,no,8,0,2.15953960151,-,-
2019_Nov_07,218,001,3,recog,0,ANIMAL,HF,target,left,yellow,pleasantness,liberal,no,z,1,1.69309871527,3,371
2019_Nov_07,218,001,3,recog,1,RETURN,HF,target,right,aqua,imageability,liberal,no,z,1,0.69340116522,3,374
2019_Nov_07,218,001,3,recog,2,LUCERNE,LF,target,right,aqua,imageability,conservative,no,z,1,0.893415902782,1,375
2019_Nov_07,218,001,3,recog,3,IMPORTANT,HF,lure,-,-,-,conservative,no,m,1,1.09331186,3,378
2019_Nov_07,218,001,3,recog,4,SECOND,HF,target,left,yellow,pleasantness,liberal,no,z,1,0.653227745916,3,381
2019_Nov_07,218,001,3,recog,5,NOTHING,HF,lure,-,-,-,conservative,no,z,0,0.786732821942,-3,378
2019_Nov_07,218,001,3,recog,6,MOUTH,HF,target,left,yellow,pleasantness,conservative,no,z,1,0.773421724485,1,379
2019_Nov_07,218,001,3,recog,7,ODOURS,LF,lure,-,-,-,conservative,no,m,1,0.760108060786,3,382
2019_Nov_07,218,001,3,recog,8,ABOVE,HF,lure,-,-,-,conservative,no,z,0,1.02640076489,-3,379
2019_Nov_07,218,001,3,recog,9,BOWER,LF,target,right,aqua,imageability,liberal,no,z,1,0.640187570297,3,382
2019_Nov_07,218,001,3,recog,10,RATHER,HF,lure,-,-,-,liberal,yes,m,1,0.719873784884,1,383
2019_Nov_07,218,001,3,recog,11,THING,HF,lure,-,-,-,conservative,no,z,0,1.09324953698,-3,380
2019_Nov_07,218,001,3,recog,12,GEOLOGIST,LF,target,left,yellow,pleasantness,conservative,no,z,1,0.946707218179,1,381
2019_Nov_07,218,001,3,recog,13,EVOCATION,LF,lure,-,-,-,conservative,no,m,1,1.66616637167,3,384
2019_Nov_07,218,001,3,recog,14,ATROCITY,LF,lure,-,-,-,liberal,no,m,1,0.893360545275,1,385
2019_Nov_07,218,001,3,recog,15,MEETING,HF,target,left,yellow,pleasantness,conservative,no,z,1,0.94677687332,1,386
2019_Nov_07,218,001,3,recog,16,THEORY,HF,lure,-,-,-,liberal,no,m,1,0.826450549982,1,387
2019_Nov_07,218,001,3,recog,17,URBANE,LF,lure,-,-,-,liberal,no,m,1,0.9470503614,1,388
2019_Nov_07,218,001,3,recog,18,SORRY,HF,target,left,yellow,pleasantness,liberal,no,z,1,0.893127017249,3,391
2019_Nov_07,218,001,3,recog,19,WOMAN,HF,lure,-,-,-,liberal,no,m,1,0.800094144422,1,392
2019_Nov_07,218,001,3,recog,20,BAGGY,LF,target,left,yellow,pleasantness,conservative,no,z,1,2.01293459309,1,393
2019_Nov_07,218,001,3,recog,21,ADENOIDS,LF,target,left,yellow,pleasantness,liberal,yes,z,1,0.653332595233,3,396
2019_Nov_07,218,001,3,recog,22,ANAEMIC,LF,target,right,aqua,imageability,conservative,no,m,0,2.67916365439,-1,395
2019_Nov_07,218,001,3,recog,23,TOOTHACHE,LF,target,right,aqua,imageability,conservative,yes,m,0,0.626868040902,-1,394
2019_Nov_07,218,001,3,recog,24,MIDDLE,HF,target,right,aqua,imageability,liberal,no,z,1,1.49323391956,3,397
2019_Nov_07,218,001,3,recog,25,WAFER,LF,target,right,aqua,imageability,liberal,no,m,0,2.62578362034,-3,394
2019_Nov_07,218,001,3,recog,26,WESTERN,HF,target,left,yellow,pleasantness,conservative,no,z,1,0.999716613558,1,395
2019_Nov_07,218,001,3,recog,27,BOGEY,LF,lure,-,-,-,conservative,no,z,0,0.0403728529718,-3,392
2019_Nov_07,218,001,3,recog,28,AUGMENT,LF,lure,-,-,-,liberal,no,z,0,1.3862931147,-1,391
2019_Nov_07,218,001,3,recog,29,SUMMER,HF,target,right,aqua,imageability,liberal,no,z,1,1.31987473806,3,394
2019_Nov_07,218,001,3,recog,30,PUBLIC,HF,target,right,aqua,imageability,conservative,no,m,0,1.31993412823,-1,393
2019_Nov_07,218,001,3,recog,31,SMIRK,LF,target,right,aqua,imageability,conservative,no,z,1,0.866715620788,1,394
2019_Nov_07,218,001,3,recog,32,LAXATIVE,LF,lure,-,-,-,conservative,no,m,1,0.97340493393,3,397
2019_Nov_07,218,001,3,recog,33,DUELLING,LF,target,left,yellow,pleasantness,conservative,no,m,0,1.26652696534,-1,396
2019_Nov_07,218,001,3,recog,34,GARDEN,HF,lure,-,-,-,conservative,no,z,0,1.94627425649,-3,393
2019_Nov_07,218,001,3,recog,35,QUESTION,HF,target,left,yellow,pleasantness,liberal,no,m,0,0.87978219204,-3,390
2019_Nov_07,218,001,3,recog,36,UNWARY,LF,lure,-,-,-,conservative,no,m,1,1.02664969036,3,393
2019_Nov_07,218,001,3,recog,37,COMES,HF,target,right,aqua,imageability,conservative,no,z,1,0.866670161644,1,394
2019_Nov_07,218,001,3,recog,38,QUALITY,HF,lure,-,-,-,liberal,no,m,1,0.946721882419,1,395
2019_Nov_07,218,001,3,recog,39,RABBIS,LF,target,right,aqua,imageability,liberal,no,z,1,0.866648531889,3,398
2019_Nov_07,218,001,3,recog,40,FITFUL,LF,lure,-,-,-,conservative,no,m,1,0.973340044668,3,401
2019_Nov_07,218,001,3,recog,41,MERELY,HF,target,left,yellow,pleasantness,conservative,no,z,1,0.693445524547,1,402
2019_Nov_07,218,001,3,recog,42,SODDING,LF,target,left,yellow,pleasantness,conservative,no,z,1,1.13300979131,1,403
2019_Nov_07,218,001,3,recog,43,NERVY,LF,lure,-,-,-,liberal,no,m,1,0.733683099903,1,404
2019_Nov_07,218,001,3,recog,44,WHATEVER,HF,target,right,aqua,imageability,conservative,no,m,0,1.05336646963,-1,403
2019_Nov_07,218,001,3,recog,45,BOMBARDED,LF,lure,-,-,-,liberal,no,z,0,0.719890648761,-1,402
2019_Nov_07,218,001,3,recog,46,HYDRAULIC,LF,lure,-,-,-,liberal,no,z,0,0.640003167476,-1,401
2019_Nov_07,218,001,3,recog,47,AREAS,HF,target,left,yellow,pleasantness,liberal,no,z,1,0.613636496947,3,404
2019_Nov_07,218,001,3,recog,48,FUTURE,HF,target,left,yellow,pleasantness,conservative,no,z,1,1.10646824972,1,405
2019_Nov_07,218,001,3,recog,49,OUGHT,HF,lure,-,-,-,conservative,no,m,1,0.800190195196,3,408
2019_Nov_07,218,001,3,recog,50,JARRED,LF,target,right,aqua,imageability,conservative,no,z,1,0.720101080608,1,409
2019_Nov_07,218,001,3,recog,51,GETTING,HF,lure,-,-,-,liberal,no,m,1,0.760175516291,1,410
2019_Nov_07,218,001,3,recog,52,LIVED,HF,target,left,yellow,pleasantness,liberal,yes,z,1,1.79964798491,3,413
2019_Nov_07,218,001,3,recog,53,TAGGED,LF,lure,-,-,-,conservative,no,m,1,2.02625742194,3,416
2019_Nov_07,218,001,3,recog,54,UNLESS,HF,lure,-,-,-,liberal,no,m,1,2.22626959326,1,417
2019_Nov_07,218,001,3,recog,55,CLUBBED,LF,lure,-,-,-,liberal,no,m,1,2.51939235788,1,418
2019_Nov_07,218,001,3,recog,56,FRIEND,HF,lure,-,-,-,conservative,no,m,1,1.47988139562,3,421
2019_Nov_07,218,001,3,recog,57,EDICT,LF,lure,-,-,-,liberal,no,m,1,0.866460463009,1,422
2019_Nov_07,218,001,3,recog,58,CODING,LF,target,right,aqua,imageability,liberal,no,z,1,1.41315140388,3,425
2019_Nov_07,218,001,3,recog,59,ROLLERS,LF,target,left,yellow,pleasantness,conservative,no,m,0,1.25319093867,-1,424
2019_Nov_07,218,001,3,recog,60,RECENT,HF,target,right,aqua,imageability,liberal,no,m,0,0.613463825519,-3,421
2019_Nov_07,218,001,3,recog,61,ECONOMIC,HF,target,left,yellow,pleasantness,conservative,no,z,1,1.70641824466,1,422
2019_Nov_07,218,001,3,recog,62,FIGURE,HF,lure,-,-,-,conservative,no,m,1,0.999954540855,3,425
2019_Nov_07,218,001,3,recog,63,CHURCH,HF,lure,-,-,-,conservative,no,z,0,1.0667453892,-3,422
2019_Nov_07,218,001,3,recog,64,RANGE,HF,lure,-,-,-,liberal,no,z,0,0.826782328417,-1,421
2019_Nov_07,218,001,3,recog,65,LATER,HF,target,right,aqua,imageability,conservative,no,z,1,0.773503111019,1,422
2019_Nov_07,218,001,3,recog,66,CLICKS,LF,lure,-,-,-,liberal,no,m,1,0.840227237066,1,423
2019_Nov_07,218,001,3,recog,67,REOPEN,LF,target,left,yellow,pleasantness,liberal,no,z,1,1.10647264899,3,426
2019_Nov_07,218,001,3,recog,68,SIZZLING,LF,target,left,yellow,pleasantness,liberal,no,z,1,1.86610888785,3,429
2019_Nov_07,218,001,3,recog,69,INSIDE,HF,lure,-,-,-,liberal,no,z,0,0.853388759273,-1,428
2019_Nov_07,218,001,3,recog,70,UNJUSTLY,LF,lure,-,-,-,liberal,no,z,0,0.666551307977,-1,427
2019_Nov_07,218,001,3,recog,71,MAGGOT,LF,target,right,aqua,imageability,liberal,no,z,1,0.640092619341,3,430
2019_Nov_07,218,001,3,recog,72,ENMESHED,LF,lure,-,-,-,liberal,no,m,1,0.773396428671,1,431
2019_Nov_07,218,001,3,recog,73,NEARLY,HF,lure,-,-,-,liberal,no,m,1,0.880041749092,1,432
2019_Nov_07,218,001,3,recog,74,CHAIR,HF,lure,-,-,-,liberal,no,m,1,0.76010402812,1,433
2019_Nov_07,218,001,3,recog,75,SEVEN,HF,target,right,aqua,imageability,liberal,no,z,1,0.933371191514,3,436
2019_Nov_07,218,001,3,recog,76,MOODILY,LF,target,left,yellow,pleasantness,liberal,no,m,0,2.1063084095,-3,433
2019_Nov_07,218,001,3,recog,77,BRUISING,LF,lure,-,-,-,liberal,no,z,0,3.78557691321,-1,432
2019_Nov_07,218,001,3,recog,78,UPTIGHT,LF,lure,-,-,-,conservative,no,m,1,0.813145684827,3,435
2019_Nov_07,218,001,3,recog,79,PRIVATE,HF,target,right,aqua,imageability,liberal,no,z,1,1.27994437854,3,438
2019_Nov_07,218,001,3,recog,80,BLACK,HF,target,right,aqua,imageability,conservative,no,z,1,1.04010266435,1,439
2019_Nov_07,218,001,3,recog,81,NOURISH,LF,lure,-,-,-,conservative,no,m,1,1.09331772569,3,442
2019_Nov_07,218,001,3,recog,82,IRRIGATED,LF,lure,-,-,-,conservative,no,m,1,1.37295305537,3,445
2019_Nov_07,218,001,3,recog,83,CONCERNED,HF,lure,-,-,-,conservative,no,z,0,1.34666300549,-3,442
2019_Nov_07,218,001,3,recog,84,UPSTART,LF,target,left,yellow,pleasantness,conservative,no,z,1,1.07995786964,1,443
2019_Nov_07,218,001,3,recog,85,MOVED,HF,lure,-,-,-,conservative,no,m,1,0.82673247,3,446
2019_Nov_07,218,001,3,recog,86,USUAL,HF,lure,-,-,-,liberal,no,z,0,0.586811935518,-1,445
2019_Nov_07,218,001,3,recog,87,LOVELIEST,LF,target,right,aqua,imageability,conservative,no,z,1,0.919975408069,1,446
2019_Nov_07,218,001,3,recog,88,EVIDENCE,HF,lure,-,-,-,liberal,no,m,1,0.853371895397,1,447
2019_Nov_07,218,001,3,recog,89,OBNOXIOUS,LF,target,right,aqua,imageability,liberal,no,m,0,0.71987048543,-3,444
2019_Nov_07,218,001,3,recog,90,KNOWLEDGE,HF,target,right,aqua,imageability,conservative,no,z,1,0.919828399061,1,445
2019_Nov_07,218,001,3,recog,91,DAGGERS,LF,lure,-,-,-,conservative,no,z,0,1.37316018776,-3,442
2019_Nov_07,218,001,3,recog,92,LIMELIGHT,LF,lure,-,-,-,conservative,no,m,1,0.586897354718,3,445
2019_Nov_07,218,001,3,recog,93,INDEED,HF,lure,-,-,-,conservative,no,m,1,1.58620483597,3,448
2019_Nov_07,218,001,3,recog,94,VIGILANT,LF,target,left,yellow,pleasantness,liberal,no,m,0,1.23965694476,-3,445
2019_Nov_07,218,001,3,recog,95,BAIZE,LF,target,left,yellow,pleasantness,liberal,no,z,1,2.23954109727,3,448
2019_Nov_07,218,001,4,source,0,TURNED,HF,target,left,yellow,pleasantness,conservative,no,8,0,2.82602638683,-,-
2019_Nov_07,218,001,4,source,1,WEEKS,HF,target,left,yellow,pleasantness,liberal,no,3,1,3.37225430432,-,-
2019_Nov_07,218,001,4,source,2,GREATER,HF,target,right,aqua,imageability,conservative,no,7,1,0.893344781217,-,-
2019_Nov_07,218,001,4,source,3,EITHER,HF,target,left,yellow,pleasantness,liberal,no,3,1,0.7334631363,-,-
2019_Nov_07,218,001,4,source,4,DOODLE,LF,target,left,yellow,pleasantness,liberal,no,3,1,1.09344273834,-,-
2019_Nov_07,218,001,4,source,5,MARKET,HF,target,left,yellow,pleasantness,liberal,no,7,0,0.466629321735,-,-
2019_Nov_07,218,001,4,source,6,TERMS,HF,target,right,aqua,imageability,liberal,no,7,1,0.933359826727,-,-
2019_Nov_07,218,001,4,source,7,TWOFOLD,LF,target,right,aqua,imageability,liberal,no,7,1,0.866700589942,-,-
2019_Nov_07,218,001,4,source,8,EXPECT,HF,target,right,aqua,imageability,liberal,no,7,1,0.813393877093,-,-
2019_Nov_07,218,001,4,source,9,PLODDED,LF,target,right,aqua,imageability,conservative,no,7,1,0.906454978583,-,-
2019_Nov_07,218,001,4,source,10,ACIDITY,LF,target,left,yellow,pleasantness,liberal,no,3,1,0.786762517029,-,-
2019_Nov_07,218,001,4,source,11,ANVIL,LF,target,right,aqua,imageability,liberal,no,7,1,0.81315558319,-,-
2019_Nov_07,218,001,4,source,12,MUTATIONS,LF,target,right,aqua,imageability,liberal,no,7,1,1.57305064589,-,-
2019_Nov_07,218,001,4,source,13,ENCLOSE,LF,target,right,aqua,imageability,conservative,no,3,0,1.11970565937,-,-
2019_Nov_07,218,001,4,source,14,TONAL,LF,target,left,yellow,pleasantness,conservative,no,7,0,0.893349180489,-,-
2019_Nov_07,218,001,4,source,15,BYPASS,LF,target,left,yellow,pleasantness,conservative,no,7,0,0.986741327202,-,-
2019_Nov_07,218,001,4,source,16,INCLUDING,HF,target,left,yellow,pleasantness,liberal,no,7,0,1.08015547027,-,-
2019_Nov_07,218,001,4,source,17,SEEMED,HF,target,left,yellow,pleasantness,liberal,no,3,1,0.639954775483,-,-
2019_Nov_07,218,001,4,source,18,CLOSE,HF,target,left,yellow,pleasantness,conservative,no,3,1,0.786856368166,-,-
2019_Nov_07,218,001,4,source,19,MURPHY,LF,target,right,aqua,imageability,conservative,yes,7,1,0.999968471883,-,-
2019_Nov_07,218,001,4,source,20,ERRANT,LF,target,left,yellow,pleasantness,conservative,no,7,0,0.93349363792,-,-
2019_Nov_07,218,001,4,source,21,ALDER,LF,target,right,aqua,imageability,liberal,no,3,0,0.440280981507,-,-
2019_Nov_07,218,001,4,source,22,REQUIRED,HF,target,right,aqua,imageability,liberal,no,7,1,1.03996262085,-,-
2019_Nov_07,218,001,4,source,23,CAPITAL,HF,target,right,aqua,imageability,liberal,no,3,0,0.520178361154,-,-
2019_Nov_07,218,001,4,source,24,BILATERAL,LF,target,left,yellow,pleasantness,liberal,no,3,1,0.919978707523,-,-
2019_Nov_07,218,001,4,source,25,CICADAS,LF,target,left,yellow,pleasantness,liberal,no,3,1,0.760159019021,-,-
2019_Nov_07,218,001,4,source,26,DEITIES,LF,target,right,aqua,imageability,conservative,no,3,0,0.866797740534,-,-
2019_Nov_07,218,001,4,source,27,SHEARING,LF,target,left,yellow,pleasantness,conservative,no,7,0,0.90669657194,-,-
2019_Nov_07,218,001,4,source,28,GANGWAY,LF,target,right,aqua,imageability,conservative,no,7,1,1.03974485688,-,-
2019_Nov_07,218,001,4,source,29,AEGIS,LF,target,left,yellow,pleasantness,liberal,no,7,0,1.06642607537,-,-
2019_Nov_07,218,001,4,source,30,ENTIRELY,HF,target,right,aqua,imageability,conservative,yes,8,1,0.973329046487,-,-
2019_Nov_07,218,001,4,source,31,ADOPTIVE,LF,target,right,aqua,imageability,liberal,yes,8,1,0.546583158707,-,-
2019_Nov_07,218,001,4,source,32,MADDENED,LF,target,right,aqua,imageability,conservative,no,3,0,1.43986744993,-,-
2019_Nov_07,218,001,4,source,33,SERIOUS,HF,target,left,yellow,pleasantness,conservative,no,7,0,1.05339763114,-,-
2019_Nov_07,218,001,4,source,34,SUFFERER,LF,target,left,yellow,pleasantness,liberal,no,3,1,1.57321561859,-,-
2019_Nov_07,218,001,4,source,35,DRINK,HF,target,right,aqua,imageability,conservative,no,8,1,2.19965399725,-,-
2019_Nov_07,218,001,4,source,36,SLOWLY,HF,target,right,aqua,imageability,liberal,no,7,1,1.5461919901,-,-
2019_Nov_07,218,001,4,source,37,NIMBLE,LF,target,left,yellow,pleasantness,conservative,no,3,1,0.773451786178,-,-
2019_Nov_07,218,001,4,source,38,CARRIED,HF,target,right,aqua,imageability,conservative,no,7,1,0.880034050366,-,-
2019_Nov_07,218,001,4,source,39,FEVERS,LF,target,right,aqua,imageability,liberal,no,7,1,0.946739479507,-,-
2019_Nov_07,218,001,4,source,40,CASES,HF,target,right,aqua,imageability,liberal,no,3,0,0.906695472122,-,-
2019_Nov_07,218,001,4,source,41,MINISTER,HF,target,left,yellow,pleasantness,conservative,no,3,1,1.00010338289,-,-
2019_Nov_07,218,001,4,source,42,DOING,HF,target,left,yellow,pleasantness,conservative,no,7,0,1.51958739227,-,-
2019_Nov_07,218,001,4,source,43,MAKES,HF,target,right,aqua,imageability,conservative,no,3,0,1.13336393271,-,-
2019_Nov_07,218,001,4,source,44,CUFFED,LF,target,left,yellow,pleasantness,conservative,no,7,0,0.573781658261,-,-
2019_Nov_07,218,001,4,source,45,SUBJECT,HF,target,left,yellow,pleasantness,conservative,yes,7,0,0.586812302125,-,-
2019_Nov_07,218,001,4,source,46,HEALTH,HF,target,right,aqua,imageability,conservative,no,7,1,1.37303150905,-,-
2019_Nov_07,218,001,4,source,47,LANGUAGE,HF,target,left,yellow,pleasantness,liberal,no,3,1,0.999766471974,-,-
2019_Nov_07,218,001,4,recog,0,ENAMELLED,LF,lure,-,-,-,liberal,no,m,1,2.25281553412,1,449
2019_Nov_07,218,001,4,recog,1,DOODLE,LF,target,left,yellow,pleasantness,liberal,no,z,1,0.693536442837,3,452
2019_Nov_07,218,001,4,recog,2,TURNED,HF,target,left,yellow,pleasantness,conservative,no,z,1,0.746751504184,1,453
2019_Nov_07,218,001,4,recog,3,CAPITAL,HF,target,right,aqua,imageability,liberal,no,z,1,0.560163711578,3,456
2019_Nov_07,218,001,4,recog,4,MAKES,HF,target,right,aqua,imageability,conservative,no,m,0,0.733437473879,-1,455
2019_Nov_07,218,001,4,recog,5,ERRANT,LF,target,left,yellow,pleasantness,conservative,no,z,1,0.666808665393,1,456
2019_Nov_07,218,001,4,recog,6,LANGUAGE,HF,target,left,yellow,pleasantness,liberal,no,z,1,0.573252645795,3,459
2019_Nov_07,218,001,4,recog,7,ENCLOSE,LF,target,right,aqua,imageability,conservative,no,z,1,1.10670837665,1,460
2019_Nov_07,218,001,4,recog,8,LIZARD,LF,lure,-,-,-,liberal,no,m,1,0.813191877184,1,461
2019_Nov_07,218,001,4,recog,9,STAFF,HF,lure,-,-,-,conservative,no,z,0,0.853767829883,-3,458
2019_Nov_07,218,001,4,recog,10,BILATERAL,LF,target,left,yellow,pleasantness,liberal,no,z,1,0.693456522727,3,461
2019_Nov_07,218,001,4,recog,11,DENIALS,LF,lure,-,-,-,liberal,no,m,1,0.933330498247,1,462
2019_Nov_07,218,001,4,recog,12,REQUIRED,HF,target,right,aqua,imageability,liberal,no,z,1,0.746878716468,3,465
2019_Nov_07,218,001,4,recog,13,CLOSE,HF,target,left,yellow,pleasantness,conservative,no,z,1,0.879830584033,1,466
2019_Nov_07,218,001,4,recog,14,TONAL,LF,target,left,yellow,pleasantness,conservative,no,z,1,0.626654676206,1,467
2019_Nov_07,218,001,4,recog,15,ENTIRELY,HF,target,right,aqua,imageability,conservative,no,z,1,0.666783369578,1,468
2019_Nov_07,218,001,4,recog,16,SWAGGER,LF,lure,-,-,-,conservative,no,z,0,0.613635030524,-3,465
2019_Nov_07,218,001,4,recog,17,SLOWLY,HF,target,right,aqua,imageability,liberal,no,z,1,0.680190884415,3,468
2019_Nov_07,218,001,4,recog,18,CAUGHT,HF,lure,-,-,-,liberal,no,z,0,0.493809857596,-1,467
2019_Nov_07,218,001,4,recog,19,TWOFOLD,LF,target,right,aqua,imageability,liberal,no,z,1,0.533512188184,3,470
2019_Nov_07,218,001,4,recog,20,BYPASS,LF,target,left,yellow,pleasantness,conservative,no,z,1,1.10659326237,1,471
2019_Nov_07,218,001,4,recog,21,ADOPTIVE,LF,target,right,aqua,imageability,liberal,no,z,1,0.546598922765,3,474
2019_Nov_07,218,001,4,recog,22,EITHER,HF,target,left,yellow,pleasantness,liberal,no,z,1,1.06639088119,3,477
2019_Nov_07,218,001,4,recog,23,LUNACY,LF,lure,-,-,-,liberal,no,m,1,0.786734654972,1,478
2019_Nov_07,218,001,4,recog,24,DIFFERENT,HF,lure,-,-,-,conservative,no,m,1,1.47978534485,3,481
2019_Nov_07,218,001,4,recog,25,FOAMING,LF,lure,-,-,-,conservative,no,m,1,0.520333068888,3,484
2019_Nov_07,218,001,4,recog,26,SEEMED,HF,target,left,yellow,pleasantness,liberal,no,z,1,0.653471538909,3,487
2019_Nov_07,218,001,4,recog,27,BEAUTIFUL,HF,lure,-,-,-,conservative,no,m,1,0.706768720002,3,490
2019_Nov_07,218,001,4,recog,28,HEDGED,LF,lure,-,-,-,conservative,no,m,1,0.719910445485,3,493
2019_Nov_07,218,001,4,recog,29,APOSTLE,LF,lure,-,-,-,conservative,no,m,1,0.386994431988,3,496
2019_Nov_07,218,001,4,recog,30,HOWEVER,HF,lure,-,-,-,liberal,no,m,1,0.613487288304,1,497
2019_Nov_07,218,001,4,recog,31,PLODDED,LF,target,right,aqua,imageability,conservative,no,z,1,1.43958369688,1,498
2019_Nov_07,218,001,4,recog,32,CASES,HF,target,right,aqua,imageability,liberal,no,m,0,1.42650392782,-3,495
2019_Nov_07,218,001,4,recog,33,MINISTER,HF,target,left,yellow,pleasantness,conservative,no,z,1,2.71912260918,1,496
2019_Nov_07,218,001,4,recog,34,HOPPER,LF,lure,-,-,-,conservative,no,z,0,0.773414392365,-3,493
2019_Nov_07,218,001,4,recog,35,SUBJECT,HF,target,left,yellow,pleasantness,conservative,no,z,1,0.666781536548,1,494
2019_Nov_07,218,001,4,recog,36,ANVIL,LF,target,right,aqua,imageability,liberal,no,z,1,0.746514676705,3,497
2019_Nov_07,218,001,4,recog,37,FUSELAGE,LF,lure,-,-,-,liberal,no,m,1,1.2397566616,1,498
2019_Nov_07,218,001,4,recog,38,BELIEVE,HF,lure,-,-,-,conservative,yes,m,1,0.866727718787,3,501
2019_Nov_07,218,001,4,recog,39,VALUE,HF,lure,-,-,-,conservative,no,z,0,2.612687354,-3,498
2019_Nov_07,218,001,4,recog,40,PEPPERED,LF,lure,-,-,-,liberal,no,z,0,0.506850033215,-1,497
2019_Nov_07,218,001,4,recog,41,EDUCATION,HF,lure,-,-,-,conservative,no,z,0,2.10624352024,-3,494
2019_Nov_07,218,001,4,recog,42,NIMBLE,LF,target,left,yellow,pleasantness,conservative,no,m,0,0.773497245323,-1,493
2019_Nov_07,218,001,4,recog,43,UNION,HF,lure,-,-,-,liberal,no,z,0,0.453635705079,-1,492
2019_Nov_07,218,001,4,recog,44,FEIGNED,LF,lure,-,-,-,conservative,no,m,1,1.69316947022,3,495
2019_Nov_07,218,001,4,recog,45,TYRANTS,LF,lure,-,-,-,liberal,no,z,0,2.0932143428,-1,494
2019_Nov_07,218,001,4,recog,46,LIGHT,HF,lure,-,-,-,conservative,no,m,1,1.89297817521,3,497
2019_Nov_07,218,001,4,recog,47,POINT,HF,lure,-,-,-,liberal,yes,m,1,1.25323089873,1,498
2019_Nov_07,218,001,4,recog,48,AEGIS,LF,target,left,yellow,pleasantness,liberal,no,m,0,1.74618399809,-3,495
2019_Nov_07,218,001,4,recog,49,SHEARING,LF,target,left,yellow,pleasantness,conservative,no,m,0,1.71975683757,-1,494
2019_Nov_07,218,001,4,recog,50,FEVERS,LF,target,right,aqua,imageability,liberal,no,z,1,1.89301116975,3,497
2019_Nov_07,218,001,4,recog,51,CARRIED,HF,target,right,aqua,imageability,conservative,no,m,0,2.27948575442,-1,496
2019_Nov_07,218,001,4,recog,52,GOVERNS,LF,lure,-,-,-,liberal,no,z,0,0.760100728666,-1,495
2019_Nov_07,218,001,4,recog,53,NEWMARKET,LF,lure,-,-,-,conservative,no,m,1,2.23932699936,3,498
2019_Nov_07,218,001,4,recog,54,BROUGHT,HF,lure,-,-,-,liberal,no,m,1,2.55938760666,1,499
2019_Nov_07,218,001,4,recog,55,WARDROBES,LF,lure,-,-,-,liberal,no,m,1,1.86632041951,1,500
2019_Nov_07,218,001,4,recog,56,GREATER,HF,target,right,aqua,imageability,conservative,no,z,1,0.920116551381,1,501
2019_Nov_07,218,001,4,recog,57,INCLUDING,HF,target,left,yellow,pleasantness,liberal,yes,m,0,0.559964644517,-3,498
2019_Nov_07,218,001,4,recog,58,DRYER,LF,lure,-,-,-,liberal,no,z,0,0.640103984128,-1,497
2019_Nov_07,218,001,4,recog,59,ASCEND,LF,lure,-,-,-,conservative,yes,m,1,1.05337013569,3,500
2019_Nov_07,218,001,4,recog,60,ALDER,LF,target,right,aqua,imageability,liberal,no,z,1,1.26654529564,3,503
2019_Nov_07,218,001,4,recog,61,MADDENED,LF,target,right,aqua,imageability,conservative,no,z,1,0.97337010636,1,504
2019_Nov_07,218,001,4,recog,62,DYEING,LF,lure,-,-,-,conservative,no,m,1,0.973109816096,3,507
2019_Nov_07,218,001,4,recog,63,NEEDED,HF,lure,-,-,-,liberal,no,z,0,0.880005821703,-1,506
2019_Nov_07,218,001,4,recog,64,BEECHES,LF,lure,-,-,-,liberal,no,m,1,1.47983593648,1,507
2019_Nov_07,218,001,4,recog,65,DRINK,HF,target,right,aqua,imageability,conservative,no,z,1,1.12002937247,1,508
2019_Nov_07,218,001,4,recog,66,WHITE,HF,lure,-,-,-,conservative,no,m,1,0.693822395521,3,511
2019_Nov_07,218,001,4,recog,67,EXPECT,HF,target,right,aqua,imageability,liberal,no,z,1,0.786877264708,3,514
2019_Nov_07,218,001,4,recog,68,MUTATIONS,LF,target,right,aqua,imageability,liberal,no,z,1,0.826772430055,3,517
2019_Nov_07,218,001,4,recog,69,HEALTH,HF,target,right,aqua,imageability,conservative,no,z,1,0.773576798826,1,518
2019_Nov_07,218,001,4,recog,70,JUDICIOUS,LF,lure,-,-,-,liberal,no,m,1,0.933127765125,1,519
2019_Nov_07,218,001,4,recog,71,TELEPHONE,HF,lure,-,-,-,conservative,no,m,1,1.41320382854,3,522
2019_Nov_07,218,001,4,recog,72,TERMS,HF,target,right,aqua,imageability,liberal,no,m,0,0.45356495012,-3,519
2019_Nov_07,218,001,4,recog,73,BUMBLING,LF,lure,-,-,-,conservative,no,m,1,0.906697671759,3,522
2019_Nov_07,218,001,4,recog,74,CLEAR,HF,lure,-,-,-,conservative,no,z,0,0.866838433801,-3,519
2019_Nov_07,218,001,4,recog,75,CUFFED,LF,target,left,yellow,pleasantness,conservative,no,m,0,0.506839035034,-1,518
2019_Nov_07,218,001,4,recog,76,RESEARCH,HF,lure,-,-,-,liberal,no,z,0,0.559913686282,-1,517
2019_Nov_07,218,001,4,recog,77,TOTAL,HF,lure,-,-,-,liberal,no,z,0,0.893360178669,-1,516
2019_Nov_07,218,001,4,recog,78,GANGWAY,LF,target,right,aqua,imageability,conservative,no,z,1,0.74669871292,1,517
2019_Nov_07,218,001,4,recog,79,SERIOUS,HF,target,left,yellow,pleasantness,conservative,no,m,0,0.426949354114,-1,516
2019_Nov_07,218,001,4,recog,80,MARKET,HF,target,left,yellow,pleasantness,liberal,no,z,1,1.87963371661,3,519
2019_Nov_07,218,001,4,recog,81,PELTED,LF,lure,-,-,-,conservative,no,m,1,0.813594777184,3,522
2019_Nov_07,218,001,4,recog,82,MOMENT,HF,lure,-,-,-,liberal,no,z,0,1.04007003641,-1,521
2019_Nov_07,218,001,4,recog,83,ACIDITY,LF,target,left,yellow,pleasantness,liberal,no,z,1,0.74675187079,3,524
2019_Nov_07,218,001,4,recog,84,DEITIES,LF,target,right,aqua,imageability,conservative,no,z,1,0.746707144858,1,525
2019_Nov_07,218,001,4,recog,85,SUFFERER,LF,target,left,yellow,pleasantness,liberal,no,z,1,0.893345147823,3,528
2019_Nov_07,218,001,4,recog,86,MURPHY,LF,target,right,aqua,imageability,conservative,no,z,1,1.14636304846,1,529
2019_Nov_07,218,001,4,recog,87,HAPPEN,HF,lure,-,-,-,conservative,no,m,1,0.893381075211,3,532
2019_Nov_07,218,001,4,recog,88,SOMEONE,HF,lure,-,-,-,liberal,no,m,1,1.05335143878,1,533
2019_Nov_07,218,001,4,recog,89,FURTHER,HF,lure,-,-,-,liberal,no,m,1,0.760070300368,1,534
2019_Nov_07,218,001,4,recog,90,CICADAS,LF,target,left,yellow,pleasantness,liberal,no,z,1,0.799948601838,3,537
2019_Nov_07,218,001,4,recog,91,TABLE,HF,lure,-,-,-,conservative,no,m,1,1.15973793536,3,540
2019_Nov_07,218,001,4,recog,92,DINER,LF,lure,-,-,-,conservative,no,z,0,0.733493197992,-3,537
2019_Nov_07,218,001,4,recog,93,WEEKS,HF,target,left,yellow,pleasantness,liberal,no,m,0,0.560171043698,-3,534
2019_Nov_07,218,001,4,recog,94,DOING,HF,target,left,yellow,pleasantness,conservative,no,z,1,1.55986932696,1,535
2019_Nov_07,218,001,4,recog,95,DEVELOPED,HF,lure,-,-,-,liberal,no,z,0,0.853378494305,-1,534
