date,subj,session,cycle,task,trial,item,wf,type,source,colour,encoding,bias,null,response,corr,rt,points,total
2019_Oct_25,22,001,0,source,0,PHOBIC,LF,target,left,yellow,pleasantness,liberal,no,None,-1,-1,-,-
2019_Oct_25,22,001,0,source,1,HATCHES,LF,target,right,aqua,imageability,liberal,no,1,0,3.94986369589,-,-
2019_Oct_25,22,001,0,source,2,ECLECTIC,LF,target,right,aqua,imageability,conservative,no,2,0,3.93320841845,-,-
2019_Oct_25,22,001,0,source,3,CONCERNED,HF,target,right,aqua,imageability,conservative,no,2,0,2.13351680742,-,-
2019_Oct_25,22,001,0,source,4,PAYOFF,LF,target,right,aqua,imageability,conservative,no,2,0,2.8835219399,-,-
2019_Oct_25,22,001,0,source,5,ABETTED,LF,target,right,aqua,imageability,liberal,no,2,0,1.79996033323,-,-
2019_Oct_25,22,001,0,source,6,AREAS,HF,target,right,aqua,imageability,liberal,no,9,1,3.48339641401,-,-
2019_Oct_25,22,001,0,source,7,CADDIE,LF,target,left,yellow,pleasantness,liberal,no,8,0,2.73348366624,-,-
2019_Oct_25,22,001,0,source,8,SOPHISTS,LF,target,right,aqua,imageability,liberal,no,9,1,3.48343930691,-,-
2019_Oct_25,22,001,0,source,9,UNION,HF,target,left,yellow,pleasantness,conservative,no,1,1,2.50021886379,-,-
2019_Oct_25,22,001,0,source,10,TIRADE,LF,target,right,aqua,imageability,liberal,no,2,0,3.21678182983,-,-
2019_Oct_25,22,001,0,source,11,PEEKED,LF,target,left,yellow,pleasantness,conservative,no,1,1,1.38338336283,-,-
2019_Oct_25,22,001,0,source,12,FRIEND,HF,target,left,yellow,pleasantness,liberal,no,2,1,6.94991905339,-,-
2019_Oct_25,22,001,0,source,13,NATIONAL,HF,target,right,aqua,imageability,conservative,no,9,1,5.80000395934,-,-
2019_Oct_25,22,001,0,source,14,BEFALL,LF,target,right,aqua,imageability,conservative,no,1,0,2.95018264311,-,-
2019_Oct_25,22,001,0,source,15,VANDALS,LF,target,left,yellow,pleasantness,liberal,no,1,1,1.25026468954,-,-
2019_Oct_25,22,001,0,source,16,MANDARIN,LF,target,left,yellow,pleasantness,conservative,no,1,1,5.08340653233,-,-
2019_Oct_25,22,001,0,source,17,FREEDOM,HF,target,right,aqua,imageability,liberal,no,1,0,2.23347670072,-,-
2019_Oct_25,22,001,0,source,18,ZOOLOGY,LF,target,right,aqua,imageability,conservative,no,7,1,3.50014114331,-,-
2019_Oct_25,22,001,0,source,19,EPIDEMICS,LF,target,left,yellow,pleasantness,liberal,no,1,1,6.29996363268,-,-
2019_Oct_25,22,001,0,source,20,AMONG,HF,target,left,yellow,pleasantness,conservative,no,1,1,5.38336466593,-,-
2019_Oct_25,22,001,0,source,21,LARGE,HF,target,left,yellow,pleasantness,liberal,no,1,1,1.76678872203,-,-
2019_Oct_25,22,001,0,source,22,LATER,HF,target,left,yellow,pleasantness,conservative,no,1,1,0.983356820558,-,-
2019_Oct_25,22,001,0,source,23,FORCE,HF,target,left,yellow,pleasantness,liberal,yes,7,0,5.03312945151,-,-
2019_Oct_25,22,001,0,source,24,LONGER,HF,target,right,aqua,imageability,liberal,yes,8,1,1.90026263654,-,-
2019_Oct_25,22,001,0,source,25,HIVES,LF,target,right,aqua,imageability,liberal,no,8,1,3.08348315299,-,-
2019_Oct_25,22,001,0,source,26,HOSPITAL,HF,target,left,yellow,pleasantness,conservative,no,1,1,1.36691688749,-,-
2019_Oct_25,22,001,0,source,27,SUGARY,LF,target,left,yellow,pleasantness,conservative,no,9,0,1.56666363606,-,-
2019_Oct_25,22,001,0,source,28,SWAGGER,LF,target,left,yellow,pleasantness,conservative,no,1,1,1.25022252985,-,-
2019_Oct_25,22,001,0,source,29,INVOLVED,HF,target,right,aqua,imageability,liberal,no,7,1,3.15019041516,-,-
2019_Oct_25,22,001,0,source,30,ICEBOX,LF,target,left,yellow,pleasantness,conservative,no,7,0,1.83349451777,-,-
2019_Oct_25,22,001,0,source,31,FOAMING,LF,target,left,yellow,pleasantness,liberal,no,7,0,2.25020419955,-,-
2019_Oct_25,22,001,0,source,32,CLOSE,HF,target,right,aqua,imageability,liberal,no,2,0,2.6335219399,-,-
2019_Oct_25,22,001,0,source,33,IDEAS,HF,target,left,yellow,pleasantness,liberal,yes,8,0,1.75019430118,-,-
2019_Oct_25,22,001,0,source,34,LANGUAGE,HF,target,right,aqua,imageability,conservative,no,9,1,4.66674340952,-,-
2019_Oct_25,22,001,0,source,35,EXPECT,HF,target,left,yellow,pleasantness,liberal,no,1,1,3.2501158475,-,-
2019_Oct_25,22,001,0,source,36,POUNDS,HF,target,left,yellow,pleasantness,liberal,no,7,0,5.46664691882,-,-
2019_Oct_25,22,001,0,source,37,AROUND,HF,target,right,aqua,imageability,conservative,no,7,1,2.18353726403,-,-
2019_Oct_25,22,001,0,source,38,COILING,LF,target,right,aqua,imageability,conservative,no,7,1,1.48342867534,-,-
2019_Oct_25,22,001,0,source,39,HAUNCHES,LF,target,left,yellow,pleasantness,liberal,no,2,1,1.80019276144,-,-
2019_Oct_25,22,001,0,source,40,ECONOMIC,HF,target,right,aqua,imageability,liberal,no,9,1,2.25016020682,-,-
2019_Oct_25,22,001,0,source,41,THANK,HF,target,left,yellow,pleasantness,conservative,no,2,1,3.86675081497,-,-
2019_Oct_25,22,001,0,source,42,WHITE,HF,target,left,yellow,pleasantness,conservative,no,2,1,1.81688983196,-,-
2019_Oct_25,22,001,0,source,43,EXACTLY,HF,target,right,aqua,imageability,conservative,no,2,0,3.84982754853,-,-
2019_Oct_25,22,001,0,source,44,YONDER,LF,target,right,aqua,imageability,liberal,no,2,0,1.15032275993,-,-
2019_Oct_25,22,001,0,source,45,IMPORTANT,HF,target,right,aqua,imageability,conservative,no,9,1,2.54993870348,-,-
2019_Oct_25,22,001,0,source,46,TOPICAL,LF,target,right,aqua,imageability,conservative,yes,9,1,0.71669861027,-,-
2019_Oct_25,22,001,0,source,47,HACKNEY,LF,target,left,yellow,pleasantness,conservative,no,2,1,5.78328379264,-,-
2019_Oct_25,22,001,0,recog,0,SWAGGER,LF,target,left,yellow,pleasantness,conservative,no,z,1,1.28342860201,1,1
2019_Oct_25,22,001,0,recog,1,INVOLVED,HF,target,right,aqua,imageability,liberal,no,z,1,0.800231255068,3,4
2019_Oct_25,22,001,0,recog,2,RUSSET,LF,lure,-,-,-,liberal,no,m,1,0.966892911452,1,5
2019_Oct_25,22,001,0,recog,3,BATCHES,LF,lure,-,-,-,liberal,no,z,0,1.00025552439,-1,4
2019_Oct_25,22,001,0,recog,4,SUGARY,LF,target,left,yellow,pleasantness,conservative,no,z,1,0.716933238114,1,5
2019_Oct_25,22,001,0,recog,5,ECONOMIC,HF,target,right,aqua,imageability,liberal,no,z,1,0.566922459897,3,8
2019_Oct_25,22,001,0,recog,6,FOAMING,LF,target,left,yellow,pleasantness,liberal,no,z,1,0.533561679994,3,11
2019_Oct_25,22,001,0,recog,7,CLOSE,HF,target,right,aqua,imageability,liberal,no,m,0,1.83331524744,-3,8
2019_Oct_25,22,001,0,recog,8,GEARING,LF,lure,-,-,-,conservative,no,m,1,0.950215637653,3,11
2019_Oct_25,22,001,0,recog,9,JAUNDICE,LF,lure,-,-,-,liberal,no,m,1,1.20005763046,1,12
2019_Oct_25,22,001,0,recog,10,COILING,LF,target,right,aqua,imageability,conservative,no,z,1,0.783573411386,1,13
2019_Oct_25,22,001,0,recog,11,ECLECTIC,LF,target,right,aqua,imageability,conservative,no,m,0,1.00022399627,-1,12
2019_Oct_25,22,001,0,recog,12,IMPORTANT,HF,target,right,aqua,imageability,conservative,no,z,1,0.950227735651,1,13
2019_Oct_25,22,001,0,recog,13,UPROOTED,LF,lure,-,-,-,conservative,no,m,1,1.55002742213,3,16
2019_Oct_25,22,001,0,recog,14,PEEKED,LF,target,left,yellow,pleasantness,conservative,no,z,1,0.700259263767,1,17
2019_Oct_25,22,001,0,recog,15,SUCCESS,HF,lure,-,-,-,conservative,no,z,0,1.85020112005,-3,14
2019_Oct_25,22,001,0,recog,16,TAWNY,LF,lure,-,-,-,liberal,no,m,1,0.683546429184,1,15
2019_Oct_25,22,001,0,recog,17,OPENED,HF,lure,-,-,-,liberal,no,m,1,1.98351116169,1,16
2019_Oct_25,22,001,0,recog,18,FREEDOM,HF,target,right,aqua,imageability,liberal,no,z,1,2.6834254492,3,19
2019_Oct_25,22,001,0,recog,19,GATEHOUSE,LF,lure,-,-,-,conservative,no,z,0,2.53350558927,-3,16
2019_Oct_25,22,001,0,recog,20,ANSWER,HF,lure,-,-,-,conservative,no,m,1,1.06684400621,3,19
2019_Oct_25,22,001,0,recog,21,WHITE,HF,target,left,yellow,pleasantness,conservative,yes,z,1,2.0835143145,1,20
2019_Oct_25,22,001,0,recog,22,EXPECT,HF,target,left,yellow,pleasantness,liberal,no,z,1,1.93350940198,3,23
2019_Oct_25,22,001,0,recog,23,IDEAS,HF,target,left,yellow,pleasantness,liberal,yes,z,1,0.916850825083,3,26
2019_Oct_25,22,001,0,recog,24,ZOOLOGY,LF,target,right,aqua,imageability,conservative,no,z,1,2.23351922702,1,27
2019_Oct_25,22,001,0,recog,25,POUNDS,HF,target,left,yellow,pleasantness,liberal,no,z,1,0.6003015701,3,30
2019_Oct_25,22,001,0,recog,26,CHAIR,HF,lure,-,-,-,conservative,no,m,1,0.750200533485,3,33
2019_Oct_25,22,001,0,recog,27,THANK,HF,target,left,yellow,pleasantness,conservative,no,z,1,0.73358704913,1,34
2019_Oct_25,22,001,0,recog,28,TREES,HF,lure,-,-,-,conservative,no,m,1,0.650241740001,3,37
2019_Oct_25,22,001,0,recog,29,TOADS,LF,lure,-,-,-,liberal,no,m,1,0.850260143622,1,38
2019_Oct_25,22,001,0,recog,30,MIDDLE,HF,lure,-,-,-,conservative,no,m,1,0.616944382937,3,41
2019_Oct_25,22,001,0,recog,31,EXACTLY,HF,target,right,aqua,imageability,conservative,no,m,0,1.35020881878,-1,40
2019_Oct_25,22,001,0,recog,32,LARGE,HF,target,left,yellow,pleasantness,liberal,no,z,1,0.68352113337,3,43
2019_Oct_25,22,001,0,recog,33,NATIONAL,HF,target,right,aqua,imageability,conservative,no,z,1,0.650269235451,1,44
2019_Oct_25,22,001,0,recog,34,RAREFIED,LF,lure,-,-,-,conservative,no,m,1,0.966870181881,3,47
2019_Oct_25,22,001,0,recog,35,CHOICE,HF,lure,-,-,-,conservative,no,m,1,0.78357304478,3,50
2019_Oct_25,22,001,0,recog,36,FIXTURE,LF,lure,-,-,-,conservative,no,m,1,0.800239687007,3,53
2019_Oct_25,22,001,0,recog,37,PERHAPS,HF,lure,-,-,-,liberal,no,m,1,0.933517833916,1,54
2019_Oct_25,22,001,0,recog,38,YANKED,LF,lure,-,-,-,conservative,no,m,1,0.650243206424,3,57
2019_Oct_25,22,001,0,recog,39,LOTTERY,LF,lure,-,-,-,liberal,no,m,1,0.883367232168,1,58
2019_Oct_25,22,001,0,recog,40,DUNGEON,LF,lure,-,-,-,liberal,no,m,1,1.48336598571,1,59
2019_Oct_25,22,001,0,recog,41,PIECE,HF,lure,-,-,-,conservative,no,m,1,0.66670711553,3,62
2019_Oct_25,22,001,0,recog,42,PHOBIC,LF,target,left,yellow,pleasantness,liberal,no,m,0,0.583612198302,-3,59
2019_Oct_25,22,001,0,recog,43,LANGUAGE,HF,target,right,aqua,imageability,conservative,no,z,1,0.666902883137,1,60
2019_Oct_25,22,001,0,recog,44,LONGER,HF,target,right,aqua,imageability,liberal,no,z,1,1.40018528268,3,63
2019_Oct_25,22,001,0,recog,45,VEGAN,LF,lure,-,-,-,conservative,no,m,1,1.13366528285,3,66
2019_Oct_25,22,001,0,recog,46,SUDDENLY,HF,lure,-,-,-,liberal,no,m,1,0.733416943943,1,67
2019_Oct_25,22,001,0,recog,47,CADDIE,LF,target,left,yellow,pleasantness,liberal,no,m,0,2.21682948861,-3,64
2019_Oct_25,22,001,0,recog,48,HATCHES,LF,target,right,aqua,imageability,liberal,no,z,1,0.80022648919,3,67
2019_Oct_25,22,001,0,recog,49,ORDER,HF,lure,-,-,-,conservative,no,m,1,1.86684649913,3,70
2019_Oct_25,22,001,0,recog,50,AMONG,HF,target,left,yellow,pleasantness,conservative,no,z,1,0.666944676221,1,71
2019_Oct_25,22,001,0,recog,51,CUBED,LF,lure,-,-,-,conservative,yes,z,0,0.750206399181,-3,68
2019_Oct_25,22,001,0,recog,52,CANNOT,HF,lure,-,-,-,liberal,no,m,1,2.03354444951,1,69
2019_Oct_25,22,001,0,recog,53,TOPICAL,LF,target,right,aqua,imageability,conservative,no,z,1,0.75003116151,1,70
2019_Oct_25,22,001,0,recog,54,TOGETHER,HF,lure,-,-,-,liberal,no,m,1,0.716931038477,1,71
2019_Oct_25,22,001,0,recog,55,ENTIRELY,HF,lure,-,-,-,conservative,no,m,1,1.150217544,3,74
2019_Oct_25,22,001,0,recog,56,CONCERNED,HF,target,right,aqua,imageability,conservative,no,m,0,1.35003871359,-1,73
2019_Oct_25,22,001,0,recog,57,GULLIBLE,LF,lure,-,-,-,conservative,no,m,1,1.35022458284,3,76
2019_Oct_25,22,001,0,recog,58,NEURAL,LF,lure,-,-,-,liberal,no,m,1,1.0668799336,1,77
2019_Oct_25,22,001,0,recog,59,LOYALIST,LF,lure,-,-,-,conservative,no,z,0,1.2835499486,-3,74
2019_Oct_25,22,001,0,recog,60,MEANS,HF,lure,-,-,-,conservative,no,m,1,1.43353763064,3,77
2019_Oct_25,22,001,0,recog,61,JASMINE,LF,lure,-,-,-,liberal,no,m,1,0.950226635833,1,78
2019_Oct_25,22,001,0,recog,62,EPIDEMICS,LF,target,left,yellow,pleasantness,liberal,no,z,1,1.40014092335,3,81
2019_Oct_25,22,001,0,recog,63,MAKES,HF,lure,-,-,-,liberal,no,m,1,1.45031095521,1,82
2019_Oct_25,22,001,0,recog,64,BEFALL,LF,target,right,aqua,imageability,conservative,no,m,0,0.833625029512,-1,81
2019_Oct_25,22,001,0,recog,65,ABLAZE,LF,lure,-,-,-,liberal,no,m,1,1.05002595571,1,82
2019_Oct_25,22,001,0,recog,66,HAUNCHES,LF,target,left,yellow,pleasantness,liberal,no,z,1,0.783577444053,3,85
2019_Oct_25,22,001,0,recog,67,UNION,HF,target,left,yellow,pleasantness,conservative,yes,m,0,1.01690200328,-1,84
2019_Oct_25,22,001,0,recog,68,ICEBOX,LF,target,left,yellow,pleasantness,conservative,no,z,1,2.9334800735,1,85
2019_Oct_25,22,001,0,recog,69,PAYOFF,LF,target,right,aqua,imageability,conservative,no,m,0,0.866885359369,-1,84
2019_Oct_25,22,001,0,recog,70,AROUND,HF,target,right,aqua,imageability,conservative,no,z,1,0.766799720207,1,85
2019_Oct_25,22,001,0,recog,71,ANIMAL,HF,lure,-,-,-,liberal,no,m,1,2.71679612747,1,86
2019_Oct_25,22,001,0,recog,72,VANDALS,LF,target,left,yellow,pleasantness,liberal,no,z,1,1.05032437299,3,89
2019_Oct_25,22,001,0,recog,73,KITCHEN,HF,lure,-,-,-,liberal,no,m,1,1.31684107336,1,90
2019_Oct_25,22,001,0,recog,74,FUTURE,HF,lure,-,-,-,conservative,no,m,1,1.96684891873,3,93
2019_Oct_25,22,001,0,recog,75,HOSPITAL,HF,target,left,yellow,pleasantness,conservative,no,z,1,0.71687934703,1,94
2019_Oct_25,22,001,0,recog,76,TRADE,HF,lure,-,-,-,liberal,no,m,1,2.53351255479,1,95
2019_Oct_25,22,001,0,recog,77,LETTER,HF,lure,-,-,-,liberal,no,m,1,0.733561020103,1,96
2019_Oct_25,22,001,0,recog,78,TIRADE,LF,target,right,aqua,imageability,liberal,no,m,0,0.900024342638,-3,93
2019_Oct_25,22,001,0,recog,79,YONDER,LF,target,right,aqua,imageability,liberal,no,m,0,2.21683168825,-3,90
2019_Oct_25,22,001,0,recog,80,UNDER,HF,lure,-,-,-,liberal,no,m,1,1.61685896374,1,91
2019_Oct_25,22,001,0,recog,81,HIVES,LF,target,right,aqua,imageability,liberal,no,z,1,1.10027554107,3,94
2019_Oct_25,22,001,0,recog,82,FRIEND,HF,target,left,yellow,pleasantness,liberal,no,m,0,1.55020009356,-3,91
2019_Oct_25,22,001,0,recog,83,ADDED,HF,lure,-,-,-,conservative,no,m,1,1.93349510434,3,94
2019_Oct_25,22,001,0,recog,84,SOPHISTS,LF,target,right,aqua,imageability,liberal,no,z,1,1.60022568266,3,97
2019_Oct_25,22,001,0,recog,85,HACKNEY,LF,target,left,yellow,pleasantness,conservative,no,z,1,0.70017641081,1,98
2019_Oct_25,22,001,0,recog,86,GAUCHE,LF,lure,-,-,-,conservative,no,z,0,0.766934997822,-3,95
2019_Oct_25,22,001,0,recog,87,TELEPHONE,HF,lure,-,-,-,liberal,no,m,1,2.1002102852,1,96
2019_Oct_25,22,001,0,recog,88,DERANGED,LF,lure,-,-,-,conservative,no,m,1,2.81683447446,3,99
2019_Oct_25,22,001,0,recog,89,SMUDGE,LF,lure,-,-,-,liberal,no,m,1,1.30021329137,1,100
2019_Oct_25,22,001,0,recog,90,FORCE,HF,target,left,yellow,pleasantness,liberal,no,z,1,1.83352604589,3,103
2019_Oct_25,22,001,0,recog,91,ABETTED,LF,target,right,aqua,imageability,liberal,no,z,1,0.81698001704,3,106
2019_Oct_25,22,001,0,recog,92,MANDARIN,LF,target,left,yellow,pleasantness,conservative,no,z,1,0.816858670451,1,107
2019_Oct_25,22,001,0,recog,93,LATER,HF,target,left,yellow,pleasantness,conservative,no,z,1,3.4001317582,1,108
2019_Oct_25,22,001,0,recog,94,BONANZA,LF,lure,-,-,-,liberal,no,m,1,1.16688711908,1,109
2019_Oct_25,22,001,0,recog,95,AREAS,HF,target,right,aqua,imageability,liberal,no,z,1,0.733578983797,3,112
2019_Oct_25,22,001,1,source,0,RUNNING,HF,target,left,yellow,pleasantness,liberal,no,7,0,6.96654683538,-,-
2019_Oct_25,22,001,1,source,1,FURTHER,HF,target,right,aqua,imageability,conservative,no,1,0,4.76671100155,-,-
2019_Oct_25,22,001,1,source,2,BREAK,HF,target,left,yellow,pleasantness,conservative,no,2,1,1.88347831379,-,-
2019_Oct_25,22,001,1,source,3,TYPHOID,LF,target,left,yellow,pleasantness,liberal,no,8,0,1.56685940366,-,-
2019_Oct_25,22,001,1,source,4,MITIGATE,LF,target,right,aqua,imageability,conservative,no,2,0,0.816975251162,-,-
2019_Oct_25,22,001,1,source,5,THING,HF,target,right,aqua,imageability,conservative,no,9,1,2.16662792863,-,-
2019_Oct_25,22,001,1,source,6,RECENT,HF,target,left,yellow,pleasantness,liberal,no,2,1,3.86655614718,-,-
2019_Oct_25,22,001,1,source,7,SERIOUS,HF,target,right,aqua,imageability,conservative,no,8,1,3.41676723891,-,-
2019_Oct_25,22,001,1,source,8,HICKORY,LF,target,right,aqua,imageability,liberal,no,9,1,2.21687824721,-,-
2019_Oct_25,22,001,1,source,9,SAINTLY,LF,target,right,aqua,imageability,conservative,no,9,1,2.40000051325,-,-
2019_Oct_25,22,001,1,source,10,BUBBLED,LF,target,right,aqua,imageability,conservative,no,9,1,0.850158960365,-,-
2019_Oct_25,22,001,1,source,11,TEACUP,LF,target,left,yellow,pleasantness,liberal,yes,1,1,2.6667723714,-,-
2019_Oct_25,22,001,1,source,12,RETURN,HF,target,right,aqua,imageability,conservative,no,9,1,3.81671606072,-,-
2019_Oct_25,22,001,1,source,13,FIELD,HF,target,right,aqua,imageability,liberal,no,9,1,2.10017729066,-,-
2019_Oct_25,22,001,1,source,14,HYSTERICS,LF,target,left,yellow,pleasantness,liberal,no,2,1,1.88330637557,-,-
2019_Oct_25,22,001,1,source,15,STYLED,LF,target,left,yellow,pleasantness,conservative,no,1,1,1.7001210533,-,-
2019_Oct_25,22,001,1,source,16,DIZZINESS,LF,target,left,yellow,pleasantness,conservative,no,1,1,2.35026051023,-,-
2019_Oct_25,22,001,1,source,17,SEGMENTED,LF,target,left,yellow,pleasantness,conservative,no,1,1,1.51685727735,-,-
2019_Oct_25,22,001,1,source,18,MEETING,HF,target,right,aqua,imageability,liberal,no,8,1,1.61682890204,-,-
2019_Oct_25,22,001,1,source,19,PRIVATE,HF,target,left,yellow,pleasantness,liberal,no,1,1,1.21687898042,-,-
2019_Oct_25,22,001,1,source,20,DESERTER,LF,target,right,aqua,imageability,conservative,no,9,1,1.93353249816,-,-
2019_Oct_25,22,001,1,source,21,EVIDENCE,HF,target,right,aqua,imageability,liberal,no,9,1,2.25017230482,-,-
2019_Oct_25,22,001,1,source,22,TOILED,LF,target,right,aqua,imageability,conservative,no,9,1,0.783407338866,-,-
2019_Oct_25,22,001,1,source,23,ENERGY,HF,target,left,yellow,pleasantness,conservative,no,8,0,1.50000036661,-,-
2019_Oct_25,22,001,1,source,24,ANYONE,HF,target,right,aqua,imageability,conservative,yes,9,1,0.783574877811,-,-
2019_Oct_25,22,001,1,source,25,WINDOW,HF,target,left,yellow,pleasantness,conservative,no,1,1,1.83353631086,-,-
2019_Oct_25,22,001,1,source,26,LOOKED,HF,target,left,yellow,pleasantness,liberal,yes,2,1,1.03359797399,-,-
2019_Oct_25,22,001,1,source,27,HITCHING,LF,target,left,yellow,pleasantness,liberal,yes,2,1,0.483592548219,-,-
2019_Oct_25,22,001,1,source,28,SWIFTNESS,LF,target,right,aqua,imageability,conservative,no,9,1,2.91680609915,-,-
2019_Oct_25,22,001,1,source,29,ARMAMENT,LF,target,right,aqua,imageability,liberal,no,9,1,0.816902663173,-,-
2019_Oct_25,22,001,1,source,30,DEDICATE,LF,target,right,aqua,imageability,liberal,no,1,0,1.95013718397,-,-
2019_Oct_25,22,001,1,source,31,ALCHEMIST,LF,target,left,yellow,pleasantness,liberal,no,1,1,1.06678864871,-,-
2019_Oct_25,22,001,1,source,32,BEQUEST,LF,target,right,aqua,imageability,liberal,no,2,0,1.13334853526,-,-
2019_Oct_25,22,001,1,source,33,BEHIND,HF,target,right,aqua,imageability,conservative,no,9,1,1.10020698575,-,-
2019_Oct_25,22,001,1,source,34,BEREAVED,LF,target,left,yellow,pleasantness,liberal,no,8,0,3.20008219307,-,-
2019_Oct_25,22,001,1,source,35,FICKLE,LF,target,left,yellow,pleasantness,conservative,no,8,0,1.01688587262,-,-
2019_Oct_25,22,001,1,source,36,ITSELF,HF,target,right,aqua,imageability,liberal,no,2,0,1.00019026852,-,-
2019_Oct_25,22,001,1,source,37,BURGH,LF,target,left,yellow,pleasantness,conservative,no,2,1,0.933538730458,-,-
2019_Oct_25,22,001,1,source,38,REACHED,HF,target,left,yellow,pleasantness,conservative,no,1,1,2.36690478949,-,-
2019_Oct_25,22,001,1,source,39,FOOLHARDY,LF,target,right,aqua,imageability,liberal,no,2,0,1.60016482606,-,-
2019_Oct_25,22,001,1,source,40,NIPPED,LF,target,right,aqua,imageability,liberal,no,9,1,1.10016849212,-,-
2019_Oct_25,22,001,1,source,41,NEARLY,HF,target,left,yellow,pleasantness,conservative,no,9,0,0.716859550307,-,-
2019_Oct_25,22,001,1,source,42,OBVIOUSLY,HF,target,right,aqua,imageability,liberal,no,8,1,2.75014077671,-,-
2019_Oct_25,22,001,1,source,43,CRACKLE,LF,target,left,yellow,pleasantness,conservative,no,8,0,1.01684297971,-,-
2019_Oct_25,22,001,1,source,44,TWENTY,HF,target,right,aqua,imageability,liberal,no,8,1,1.10028067356,-,-
2019_Oct_25,22,001,1,source,45,NUMBER,HF,target,left,yellow,pleasantness,liberal,no,8,0,0.883556400868,-,-
2019_Oct_25,22,001,1,source,46,GIVEN,HF,target,left,yellow,pleasantness,conservative,no,8,0,0.966733071235,-,-
2019_Oct_25,22,001,1,source,47,CASES,HF,target,left,yellow,pleasantness,liberal,no,8,0,1.56686930203,-,-
2019_Oct_25,22,001,1,recog,0,ALCHEMIST,LF,target,left,yellow,pleasantness,liberal,no,z,1,0.866875827614,3,115
2019_Oct_25,22,001,1,recog,1,ASSERTIVE,LF,lure,-,-,-,conservative,no,m,1,2.5335070557,3,118
2019_Oct_25,22,001,1,recog,2,WINDOW,HF,target,left,yellow,pleasantness,conservative,no,z,1,0.633637420795,1,119
2019_Oct_25,22,001,1,recog,3,RUNNING,HF,target,left,yellow,pleasantness,liberal,no,z,1,0.633357333806,3,122
2019_Oct_25,22,001,1,recog,4,DUSTER,LF,lure,-,-,-,conservative,no,m,1,1.11685236483,3,125
2019_Oct_25,22,001,1,recog,5,BEHIND,HF,target,right,aqua,imageability,conservative,no,z,1,0.600079040254,1,126
2019_Oct_25,22,001,1,recog,6,FIELD,HF,target,right,aqua,imageability,liberal,no,z,1,0.933516734098,3,129
2019_Oct_25,22,001,1,recog,7,LACING,LF,lure,-,-,-,liberal,no,m,1,0.883557500686,1,130
2019_Oct_25,22,001,1,recog,8,MISFITS,LF,lure,-,-,-,conservative,no,z,0,2.00014920864,-3,127
2019_Oct_25,22,001,1,recog,9,DIZZINESS,LF,target,left,yellow,pleasantness,conservative,no,z,1,0.666890785138,1,128
2019_Oct_25,22,001,1,recog,10,GIVEN,HF,target,left,yellow,pleasantness,conservative,no,z,1,3.76671283458,1,129
2019_Oct_25,22,001,1,recog,11,BEQUEST,LF,target,right,aqua,imageability,liberal,no,z,1,0.61693668421,3,132
2019_Oct_25,22,001,1,recog,12,MARKET,HF,lure,-,-,-,conservative,yes,z,0,2.33344979184,-3,129
2019_Oct_25,22,001,1,recog,13,LEPROSY,LF,lure,-,-,-,liberal,no,m,1,1.51687120838,1,130
2019_Oct_25,22,001,1,recog,14,ENERGY,HF,target,left,yellow,pleasantness,conservative,no,z,1,1.15020068013,1,131
2019_Oct_25,22,001,1,recog,15,BROUGHT,HF,lure,-,-,-,conservative,no,z,0,1.60019122169,-3,128
2019_Oct_25,22,001,1,recog,16,RANGE,HF,lure,-,-,-,liberal,no,m,1,1.23350529599,1,129
2019_Oct_25,22,001,1,recog,17,BREAK,HF,target,left,yellow,pleasantness,conservative,yes,m,0,1.06688983196,-1,128
2019_Oct_25,22,001,1,recog,18,RETURN,HF,target,right,aqua,imageability,conservative,no,z,1,1.41692121344,1,129
2019_Oct_25,22,001,1,recog,19,SWIFTNESS,LF,target,right,aqua,imageability,conservative,no,z,1,3.01674839537,1,130
2019_Oct_25,22,001,1,recog,20,TOILED,LF,target,right,aqua,imageability,conservative,no,z,1,0.600252811501,1,131
2019_Oct_25,22,001,1,recog,21,WONDROUS,LF,lure,-,-,-,liberal,no,m,1,0.900197380673,1,132
2019_Oct_25,22,001,1,recog,22,GLUTINOUS,LF,lure,-,-,-,liberal,no,m,1,2.08332807865,1,133
2019_Oct_25,22,001,1,recog,23,PICTURE,HF,lure,-,-,-,conservative,no,m,1,0.750390802002,3,136
2019_Oct_25,22,001,1,recog,24,INHABITS,LF,lure,-,-,-,conservative,no,m,1,0.833546209221,3,139
2019_Oct_25,22,001,1,recog,25,BLEACH,LF,lure,-,-,-,liberal,no,z,0,0.750239027116,-1,138
2019_Oct_25,22,001,1,recog,26,REACHED,HF,target,left,yellow,pleasantness,conservative,no,z,1,3.06676885198,1,139
2019_Oct_25,22,001,1,recog,27,WHATEVER,HF,lure,-,-,-,liberal,no,m,1,0.83352971195,1,140
2019_Oct_25,22,001,1,recog,28,POSITION,HF,lure,-,-,-,liberal,no,m,1,1.28354664915,1,141
2019_Oct_25,22,001,1,recog,29,LOOKED,HF,target,left,yellow,pleasantness,liberal,no,m,0,0.76665711047,-3,138
2019_Oct_25,22,001,1,recog,30,TWENTY,HF,target,right,aqua,imageability,liberal,yes,m,0,1.26684701238,-3,135
2019_Oct_25,22,001,1,recog,31,TEACUP,LF,target,left,yellow,pleasantness,liberal,no,z,1,3.666589435,3,138
2019_Oct_25,22,001,1,recog,32,FOOLHARDY,LF,target,right,aqua,imageability,liberal,no,z,1,0.78358954205,3,141
2019_Oct_25,22,001,1,recog,33,CASES,HF,target,left,yellow,pleasantness,liberal,no,m,0,2.93325497741,-3,138
2019_Oct_25,22,001,1,recog,34,ANYONE,HF,target,right,aqua,imageability,conservative,no,z,1,2.93343938023,1,139
2019_Oct_25,22,001,1,recog,35,OPTIC,LF,lure,-,-,-,liberal,no,z,0,1.50021336469,-1,138
2019_Oct_25,22,001,1,recog,36,MOUTH,HF,lure,-,-,-,liberal,yes,z,0,2.28350632249,-1,137
2019_Oct_25,22,001,1,recog,37,RIGGING,LF,lure,-,-,-,liberal,no,z,0,2.06684253979,-1,136
2019_Oct_25,22,001,1,recog,38,DUCHY,LF,lure,-,-,-,conservative,no,m,1,0.916891151744,3,139
2019_Oct_25,22,001,1,recog,39,DESERTER,LF,target,right,aqua,imageability,conservative,no,z,1,1.16688015356,1,140
2019_Oct_25,22,001,1,recog,40,HIMSELF,HF,lure,-,-,-,liberal,no,z,0,1.23351079508,-1,139
2019_Oct_25,22,001,1,recog,41,WEDGES,LF,lure,-,-,-,conservative,no,m,1,0.933557427365,3,142
2019_Oct_25,22,001,1,recog,42,MEETING,HF,target,right,aqua,imageability,liberal,no,z,1,4.11674714891,3,145
2019_Oct_25,22,001,1,recog,43,OOZED,LF,lure,-,-,-,conservative,no,m,1,0.733371484798,3,148
2019_Oct_25,22,001,1,recog,44,CLASS,HF,lure,-,-,-,liberal,no,m,1,0.716960366958,1,149
2019_Oct_25,22,001,1,recog,45,PLACE,HF,lure,-,-,-,conservative,no,m,1,3.03324199956,3,152
2019_Oct_25,22,001,1,recog,46,EVIDENCE,HF,target,right,aqua,imageability,liberal,no,z,1,0.633567032442,3,155
2019_Oct_25,22,001,1,recog,47,STYLED,LF,target,left,yellow,pleasantness,conservative,no,z,1,0.683614984508,1,156
2019_Oct_25,22,001,1,recog,48,TROUBLE,HF,lure,-,-,-,conservative,no,m,1,0.916927079133,3,159
2019_Oct_25,22,001,1,recog,49,FICKLE,LF,target,left,yellow,pleasantness,conservative,no,z,1,0.783570478538,1,160
2019_Oct_25,22,001,1,recog,50,SAINTLY,LF,target,right,aqua,imageability,conservative,no,z,1,1.13326348267,1,161
2019_Oct_25,22,001,1,recog,51,MITIGATE,LF,target,right,aqua,imageability,conservative,no,m,0,1.25021153167,-1,160
2019_Oct_25,22,001,1,recog,52,HICKORY,LF,target,right,aqua,imageability,liberal,no,z,1,1.20024423292,3,163
2019_Oct_25,22,001,1,recog,53,NIPPED,LF,target,right,aqua,imageability,liberal,no,z,1,0.766800820024,3,166
2019_Oct_25,22,001,1,recog,54,SULKED,LF,lure,-,-,-,liberal,no,m,1,0.866903323064,1,167
2019_Oct_25,22,001,1,recog,55,CRACKLE,LF,target,left,yellow,pleasantness,conservative,no,z,1,0.533555814298,1,168
2019_Oct_25,22,001,1,recog,56,WAITING,HF,lure,-,-,-,liberal,no,z,0,1.000219597,-1,167
2019_Oct_25,22,001,1,recog,57,RAFTERS,LF,lure,-,-,-,conservative,no,m,1,0.816897164083,3,170
2019_Oct_25,22,001,1,recog,58,OLDER,HF,lure,-,-,-,liberal,no,m,1,1.31688359966,1,171
2019_Oct_25,22,001,1,recog,59,TRIED,HF,lure,-,-,-,liberal,no,m,1,0.933671075226,1,172
2019_Oct_25,22,001,1,recog,60,SMEARING,LF,lure,-,-,-,liberal,no,m,1,0.833569672004,1,173
2019_Oct_25,22,001,1,recog,61,MONEY,HF,lure,-,-,-,liberal,no,m,1,0.716943869687,1,174
2019_Oct_25,22,001,1,recog,62,SEGMENTED,LF,target,left,yellow,pleasantness,conservative,no,z,1,1.35030523616,1,175
2019_Oct_25,22,001,1,recog,63,BEREAVED,LF,target,left,yellow,pleasantness,liberal,no,z,1,1.11689122507,3,178
2019_Oct_25,22,001,1,recog,64,THING,HF,target,right,aqua,imageability,conservative,no,z,1,0.63337163144,1,179
2019_Oct_25,22,001,1,recog,65,EVENING,HF,lure,-,-,-,conservative,no,m,1,1.13352963863,3,182
2019_Oct_25,22,001,1,recog,66,ARMAMENT,LF,target,right,aqua,imageability,liberal,no,z,1,0.883643286491,3,185
2019_Oct_25,22,001,1,recog,67,BURGH,LF,target,left,yellow,pleasantness,conservative,no,z,1,0.950195474322,1,186
2019_Oct_25,22,001,1,recog,68,RATHER,HF,lure,-,-,-,conservative,no,m,1,0.750232428207,3,189
2019_Oct_25,22,001,1,recog,69,FURTHER,HF,target,right,aqua,imageability,conservative,no,z,1,2.26679715396,1,190
2019_Oct_25,22,001,1,recog,70,BUBBLED,LF,target,right,aqua,imageability,conservative,no,z,1,0.650278400601,1,191
2019_Oct_25,22,001,1,recog,71,JABBED,LF,lure,-,-,-,liberal,no,m,1,1.75017157161,1,192
2019_Oct_25,22,001,1,recog,72,WEAKENS,LF,lure,-,-,-,conservative,no,m,1,2.93346284301,3,195
2019_Oct_25,22,001,1,recog,73,OTHERS,HF,lure,-,-,-,conservative,no,m,1,1.9165953007,3,198
2019_Oct_25,22,001,1,recog,74,MAJOR,HF,lure,-,-,-,liberal,no,m,1,0.766878173892,1,199
2019_Oct_25,22,001,1,recog,75,SLIGHTLY,HF,lure,-,-,-,conservative,no,m,1,0.966689811726,3,202
2019_Oct_25,22,001,1,recog,76,ITSELF,HF,target,right,aqua,imageability,liberal,no,z,1,0.950246799163,3,205
2019_Oct_25,22,001,1,recog,77,HAGGLING,LF,lure,-,-,-,conservative,no,z,0,1.13350470942,-3,202
2019_Oct_25,22,001,1,recog,78,OBVIOUSLY,HF,target,right,aqua,imageability,liberal,no,m,0,2.23347376787,-3,199
2019_Oct_25,22,001,1,recog,79,DEDICATE,LF,target,right,aqua,imageability,liberal,no,z,1,0.983588148948,3,202
2019_Oct_25,22,001,1,recog,80,UPSTART,LF,lure,-,-,-,conservative,no,m,1,0.866913221425,3,205
2019_Oct_25,22,001,1,recog,81,HITCHING,LF,target,left,yellow,pleasantness,liberal,no,z,1,0.90028573272,3,208
2019_Oct_25,22,001,1,recog,82,PRIVATE,HF,target,left,yellow,pleasantness,liberal,no,z,1,0.750217397362,3,211
2019_Oct_25,22,001,1,recog,83,ALTHOUGH,HF,lure,-,-,-,liberal,no,m,1,0.916896284228,1,212
2019_Oct_25,22,001,1,recog,84,HYSTERICS,LF,target,left,yellow,pleasantness,liberal,no,m,0,0.866867762281,-3,209
2019_Oct_25,22,001,1,recog,85,TOMBSTONE,LF,lure,-,-,-,conservative,no,m,1,2.38359636092,3,212
2019_Oct_25,22,001,1,recog,86,EITHER,HF,lure,-,-,-,conservative,no,m,1,3.16672177977,3,215
2019_Oct_25,22,001,1,recog,87,TYPHOID,LF,target,left,yellow,pleasantness,liberal,no,z,1,1.18351123501,3,218
2019_Oct_25,22,001,1,recog,88,SERIOUS,HF,target,right,aqua,imageability,conservative,no,m,0,0.783379476809,-1,217
2019_Oct_25,22,001,1,recog,89,NUMBER,HF,target,left,yellow,pleasantness,liberal,no,z,1,0.733595481068,3,220
2019_Oct_25,22,001,1,recog,90,PHYSICAL,HF,lure,-,-,-,conservative,no,m,1,0.983389081886,3,223
2019_Oct_25,22,001,1,recog,91,HUNDRED,HF,lure,-,-,-,conservative,no,z,0,1.31686013688,-3,220
2019_Oct_25,22,001,1,recog,92,PHANTOMS,LF,lure,-,-,-,liberal,no,m,1,1.63331187466,1,221
2019_Oct_25,22,001,1,recog,93,RECENT,HF,target,left,yellow,pleasantness,liberal,no,z,1,1.68348410616,3,224
2019_Oct_25,22,001,1,recog,94,VAULTED,LF,lure,-,-,-,liberal,no,z,0,0.91688418623,-1,223
2019_Oct_25,22,001,1,recog,95,NEARLY,HF,target,left,yellow,pleasantness,conservative,no,z,1,1.11686446283,1,224
2019_Oct_25,22,001,2,source,0,DEGREE,HF,target,left,yellow,pleasantness,liberal,no,2,1,2.14996311944,-,-
2019_Oct_25,22,001,2,source,1,HEIFERS,LF,target,left,yellow,pleasantness,liberal,no,2,1,1.00021739736,-,-
2019_Oct_25,22,001,2,source,2,SKYLIGHT,LF,target,right,aqua,imageability,liberal,no,9,1,1.36687802725,-,-
2019_Oct_25,22,001,2,source,3,CELLO,LF,target,left,yellow,pleasantness,liberal,no,2,1,3.3167820498,-,-
2019_Oct_25,22,001,2,source,4,SIMILAR,HF,target,right,aqua,imageability,liberal,yes,8,1,0.850230815141,-,-
2019_Oct_25,22,001,2,source,5,STRAIGHT,HF,target,left,yellow,pleasantness,conservative,no,8,0,2.65009729723,-,-
2019_Oct_25,22,001,2,source,6,LIVED,HF,target,right,aqua,imageability,conservative,no,2,0,0.700236900801,-,-
2019_Oct_25,22,001,2,source,7,MESSED,LF,target,left,yellow,pleasantness,conservative,no,2,1,1.11684063344,-,-
2019_Oct_25,22,001,2,source,8,TOFFEE,LF,target,right,aqua,imageability,conservative,no,8,1,1.06688433287,-,-
2019_Oct_25,22,001,2,source,9,LITANY,LF,target,right,aqua,imageability,conservative,no,9,1,1.46690390963,-,-
2019_Oct_25,22,001,2,source,10,KILOWATT,LF,target,left,yellow,pleasantness,conservative,no,1,1,4.43343058169,-,-
2019_Oct_25,22,001,2,source,11,GREATER,HF,target,right,aqua,imageability,liberal,no,9,1,1.28353858382,-,-
2019_Oct_25,22,001,2,source,12,KNUCKLE,LF,target,left,yellow,pleasantness,liberal,no,1,1,1.63352670578,-,-
2019_Oct_25,22,001,2,source,13,LEVEL,HF,target,right,aqua,imageability,liberal,no,2,0,1.30019789392,-,-
2019_Oct_25,22,001,2,source,14,TAGGED,LF,target,right,aqua,imageability,conservative,no,2,0,1.68355082846,-,-
2019_Oct_25,22,001,2,source,15,HARDLY,HF,target,right,aqua,imageability,liberal,yes,8,1,0.666901783318,-,-
2019_Oct_25,22,001,2,source,16,QUICKLY,HF,target,right,aqua,imageability,conservative,no,8,1,4.71669091154,-,-
2019_Oct_25,22,001,2,source,17,CARRIED,HF,target,right,aqua,imageability,liberal,no,8,1,2.95008512591,-,-
2019_Oct_25,22,001,2,source,18,RESEARCH,HF,target,left,yellow,pleasantness,liberal,yes,8,0,0.500187702275,-,-
2019_Oct_25,22,001,2,source,19,ROVERS,LF,target,right,aqua,imageability,liberal,no,8,1,0.850025882383,-,-
2019_Oct_25,22,001,2,source,20,FINAL,HF,target,left,yellow,pleasantness,liberal,no,1,1,1.13354870214,-,-
2019_Oct_25,22,001,2,source,21,LAWFUL,LF,target,right,aqua,imageability,conservative,no,1,0,1.5834901185,-,-
2019_Oct_25,22,001,2,source,22,BETTER,HF,target,left,yellow,pleasantness,liberal,no,1,1,0.716913074783,-,-
2019_Oct_25,22,001,2,source,23,IDLING,LF,target,left,yellow,pleasantness,conservative,no,9,0,1.30021989028,-,-
2019_Oct_25,22,001,2,source,24,SOMEONE,HF,target,right,aqua,imageability,conservative,no,9,1,0.616883159733,-,-
2019_Oct_25,22,001,2,source,25,OUGHT,HF,target,left,yellow,pleasantness,conservative,no,9,0,0.683571358393,-,-
2019_Oct_25,22,001,2,source,26,WIPERS,LF,target,right,aqua,imageability,liberal,no,2,0,1.06689166499,-,-
2019_Oct_25,22,001,2,source,27,CIPHER,LF,target,left,yellow,pleasantness,liberal,yes,8,0,0.483699230567,-,-
2019_Oct_25,22,001,2,source,28,JOCKEYS,LF,target,left,yellow,pleasantness,conservative,no,2,1,0.600210651811,-,-
2019_Oct_25,22,001,2,source,29,GLASS,HF,target,left,yellow,pleasantness,conservative,no,8,0,3.61675851369,-,-
2019_Oct_25,22,001,2,source,30,SEVEN,HF,target,left,yellow,pleasantness,conservative,no,2,1,3.26675499427,-,-
2019_Oct_25,22,001,2,source,31,HERSELF,HF,target,left,yellow,pleasantness,conservative,no,2,1,2.56687150166,-,-
2019_Oct_25,22,001,2,source,32,ADULATION,LF,target,left,yellow,pleasantness,conservative,no,1,1,1.46682288971,-,-
2019_Oct_25,22,001,2,source,33,TAKEN,HF,target,left,yellow,pleasantness,conservative,no,2,1,3.06659874679,-,-
2019_Oct_25,22,001,2,source,34,AHEAD,HF,target,right,aqua,imageability,conservative,no,2,0,3.38343725392,-,-
2019_Oct_25,22,001,2,source,35,EBONY,LF,target,left,yellow,pleasantness,liberal,no,8,0,0.716666348942,-,-
2019_Oct_25,22,001,2,source,36,REREAD,LF,target,left,yellow,pleasantness,conservative,no,8,0,0.700250831828,-,-
2019_Oct_25,22,001,2,source,37,AFIELD,LF,target,right,aqua,imageability,liberal,no,8,1,2.00012867871,-,-
2019_Oct_25,22,001,2,source,38,UNTIL,HF,target,left,yellow,pleasantness,liberal,no,8,0,1.08354290977,-,-
2019_Oct_25,22,001,2,source,39,BABBLED,LF,target,right,aqua,imageability,conservative,no,9,1,3.73316361919,-,-
2019_Oct_25,22,001,2,source,40,COVER,HF,target,right,aqua,imageability,conservative,no,9,1,0.666717747104,-,-
2019_Oct_25,22,001,2,source,41,INCLUDING,HF,target,right,aqua,imageability,liberal,no,8,1,1.16693624428,-,-
2019_Oct_25,22,001,2,source,42,DEEPEN,LF,target,right,aqua,imageability,conservative,no,9,1,0.85018682242,-,-
2019_Oct_25,22,001,2,source,43,MEDDLE,LF,target,right,aqua,imageability,liberal,no,2,0,1.23349796387,-,-
2019_Oct_25,22,001,2,source,44,NECESSARY,HF,target,right,aqua,imageability,conservative,no,2,0,1.85023998029,-,-
2019_Oct_25,22,001,2,source,45,SALAMI,LF,target,left,yellow,pleasantness,liberal,no,8,0,0.883573631349,-,-
2019_Oct_25,22,001,2,source,46,SECOND,HF,target,left,yellow,pleasantness,liberal,no,1,1,1.28352868545,-,-
2019_Oct_25,22,001,2,source,47,OATHS,LF,target,right,aqua,imageability,liberal,no,1,0,1.08362136345,-,-
2019_Oct_25,22,001,2,recog,0,RESEARCH,HF,target,left,yellow,pleasantness,liberal,no,z,1,1.36687839386,3,227
2019_Oct_25,22,001,2,recog,1,HEIFERS,LF,target,left,yellow,pleasantness,liberal,no,z,1,0.650212044914,3,230
2019_Oct_25,22,001,2,recog,2,GLASS,HF,target,left,yellow,pleasantness,conservative,yes,z,1,1.10025097847,1,231
2019_Oct_25,22,001,2,recog,3,PEPPERED,LF,lure,-,-,-,conservative,no,m,1,2.18353249816,3,234
2019_Oct_25,22,001,2,recog,4,BESOTTED,LF,lure,-,-,-,liberal,no,m,1,1.86680580587,1,235
2019_Oct_25,22,001,2,recog,5,LAWFUL,LF,target,right,aqua,imageability,conservative,no,z,1,1.66690324974,1,236
2019_Oct_25,22,001,2,recog,6,DEGREE,HF,target,left,yellow,pleasantness,liberal,no,m,0,2.74988928499,-3,233
2019_Oct_25,22,001,2,recog,7,LIVED,HF,target,right,aqua,imageability,conservative,no,z,1,0.833544742797,1,234
2019_Oct_25,22,001,2,recog,8,NECESSARY,HF,target,right,aqua,imageability,conservative,no,z,1,0.633524506145,1,235
2019_Oct_25,22,001,2,recog,9,VIBRATE,LF,lure,-,-,-,liberal,no,m,1,0.933397587146,1,236
2019_Oct_25,22,001,2,recog,10,HAPPEN,HF,lure,-,-,-,liberal,no,m,1,0.683328298611,1,237
2019_Oct_25,22,001,2,recog,11,MORNING,HF,lure,-,-,-,liberal,no,m,1,0.633580230257,1,238
2019_Oct_25,22,001,2,recog,12,DEEPEN,LF,target,right,aqua,imageability,conservative,no,z,1,0.650308462294,1,239
2019_Oct_25,22,001,2,recog,13,WANTED,HF,lure,-,-,-,liberal,no,m,1,1.38351754063,1,240
2019_Oct_25,22,001,2,recog,14,HERSELF,HF,target,left,yellow,pleasantness,conservative,no,z,1,0.950270261947,1,241
2019_Oct_25,22,001,2,recog,15,PAMPERED,LF,lure,-,-,-,liberal,no,m,1,0.833526779102,1,242
2019_Oct_25,22,001,2,recog,16,POOLED,LF,lure,-,-,-,liberal,no,m,1,0.800270848517,1,243
2019_Oct_25,22,001,2,recog,17,HIGHER,HF,lure,-,-,-,conservative,no,m,1,0.733608312277,3,246
2019_Oct_25,22,001,2,recog,18,AGILITY,LF,lure,-,-,-,conservative,no,m,1,1.08360816564,3,249
2019_Oct_25,22,001,2,recog,19,SIMILAR,HF,target,right,aqua,imageability,liberal,no,z,1,1.71686138334,3,252
2019_Oct_25,22,001,2,recog,20,GODMOTHER,LF,lure,-,-,-,liberal,no,m,1,1.90002250961,1,253
2019_Oct_25,22,001,2,recog,21,ROOFED,LF,lure,-,-,-,liberal,no,z,0,1.10024108011,-1,252
2019_Oct_25,22,001,2,recog,22,SOMEONE,HF,target,right,aqua,imageability,conservative,no,z,1,0.566870401844,1,253
2019_Oct_25,22,001,2,recog,23,CELLO,LF,target,left,yellow,pleasantness,liberal,no,z,1,0.850189755268,3,256
2019_Oct_25,22,001,2,recog,24,OUGHT,HF,target,left,yellow,pleasantness,conservative,no,z,1,0.566906329233,1,257
2019_Oct_25,22,001,2,recog,25,GREATER,HF,target,right,aqua,imageability,liberal,no,z,1,0.600383689846,3,260
2019_Oct_25,22,001,2,recog,26,MESSED,LF,target,left,yellow,pleasantness,conservative,no,z,1,1.40020911207,1,261
2019_Oct_25,22,001,2,recog,27,BABBLED,LF,target,right,aqua,imageability,conservative,no,z,1,0.517014184719,1,262
2019_Oct_25,22,001,2,recog,28,USUAL,HF,lure,-,-,-,conservative,no,m,1,0.983548188893,3,265
2019_Oct_25,22,001,2,recog,29,NIGHT,HF,lure,-,-,-,liberal,no,m,1,0.883533671295,1,266
2019_Oct_25,22,001,2,recog,30,FINAL,HF,target,left,yellow,pleasantness,liberal,no,z,1,0.60024474617,3,269
2019_Oct_25,22,001,2,recog,31,OFFER,HF,lure,-,-,-,liberal,no,m,1,1.866899657,1,270
2019_Oct_25,22,001,2,recog,32,MOODILY,LF,lure,-,-,-,liberal,no,z,0,0.900220843458,-1,269
2019_Oct_25,22,001,2,recog,33,MODERN,HF,lure,-,-,-,conservative,no,m,1,1.21691160836,3,272
2019_Oct_25,22,001,2,recog,34,ROVERS,LF,target,right,aqua,imageability,liberal,no,z,1,0.916711148196,3,275
2019_Oct_25,22,001,2,recog,35,REREAD,LF,target,left,yellow,pleasantness,conservative,no,z,1,0.866904789487,1,276
2019_Oct_25,22,001,2,recog,36,QUICKLY,HF,target,right,aqua,imageability,conservative,no,z,1,1.10020551933,1,277
2019_Oct_25,22,001,2,recog,37,TRUTH,HF,lure,-,-,-,conservative,no,m,1,0.866959413783,3,280
2019_Oct_25,22,001,2,recog,38,AFIELD,LF,target,right,aqua,imageability,liberal,no,z,1,0.866901123427,3,283
2019_Oct_25,22,001,2,recog,39,PAWNS,LF,lure,-,-,-,conservative,no,m,1,0.766938297276,3,286
2019_Oct_25,22,001,2,recog,40,MATERIAL,HF,lure,-,-,-,liberal,no,m,1,0.850273341438,1,287
2019_Oct_25,22,001,2,recog,41,INCLUDING,HF,target,right,aqua,imageability,liberal,no,z,1,0.833572971459,3,290
2019_Oct_25,22,001,2,recog,42,OATHS,LF,target,right,aqua,imageability,liberal,no,z,1,0.516925466066,3,293
2019_Oct_25,22,001,2,recog,43,WRITE,HF,lure,-,-,-,liberal,no,m,1,0.800274881183,1,294
2019_Oct_25,22,001,2,recog,44,COVER,HF,target,right,aqua,imageability,conservative,no,z,1,1.13355163499,1,295
2019_Oct_25,22,001,2,recog,45,UNTIL,HF,target,left,yellow,pleasantness,liberal,no,z,1,1.31690779566,3,298
2019_Oct_25,22,001,2,recog,46,REQUIRED,HF,lure,-,-,-,conservative,no,m,1,3.91677713728,3,301
2019_Oct_25,22,001,2,recog,47,JOCKEYS,LF,target,left,yellow,pleasantness,conservative,no,z,1,1.10022604926,1,302
2019_Oct_25,22,001,2,recog,48,CHLORIDE,LF,lure,-,-,-,liberal,no,z,0,1.19996267951,-1,301
2019_Oct_25,22,001,2,recog,49,KNUCKLE,LF,target,left,yellow,pleasantness,liberal,no,z,1,0.93356146003,3,304
2019_Oct_25,22,001,2,recog,50,TUMBLER,LF,lure,-,-,-,liberal,no,z,0,1.65023990697,-1,303
2019_Oct_25,22,001,2,recog,51,AHEAD,HF,target,right,aqua,imageability,conservative,no,z,1,1.01669047162,1,304
2019_Oct_25,22,001,2,recog,52,MEDDLE,LF,target,right,aqua,imageability,liberal,no,z,1,2.81677765053,3,307
2019_Oct_25,22,001,2,recog,53,TOFFEE,LF,target,right,aqua,imageability,conservative,no,z,1,0.683581623361,1,308
2019_Oct_25,22,001,2,recog,54,BAWLED,LF,lure,-,-,-,conservative,no,z,0,0.700267329099,-3,305
2019_Oct_25,22,001,2,recog,55,ADULATION,LF,target,left,yellow,pleasantness,conservative,no,z,1,0.866981410143,1,306
2019_Oct_25,22,001,2,recog,56,TAGGED,LF,target,right,aqua,imageability,conservative,no,z,1,0.583551708311,1,307
2019_Oct_25,22,001,2,recog,57,ACACIA,LF,lure,-,-,-,conservative,no,m,1,0.716911241753,3,310
2019_Oct_25,22,001,2,recog,58,LITANY,LF,target,right,aqua,imageability,conservative,no,m,0,1.35020881878,-1,309
2019_Oct_25,22,001,2,recog,59,IDLING,LF,target,left,yellow,pleasantness,conservative,no,z,1,0.600252811501,1,310
2019_Oct_25,22,001,2,recog,60,SKYLIGHT,LF,target,right,aqua,imageability,liberal,no,z,1,0.600284706224,3,313
2019_Oct_25,22,001,2,recog,61,CIPHER,LF,target,left,yellow,pleasantness,liberal,no,z,1,1.76660908508,3,316
2019_Oct_25,22,001,2,recog,62,WOBBLE,LF,lure,-,-,-,conservative,no,m,1,0.800271948335,3,319
2019_Oct_25,22,001,2,recog,63,MINISTER,HF,lure,-,-,-,conservative,no,m,1,1.03358697581,3,322
2019_Oct_25,22,001,2,recog,64,VIOLATING,LF,lure,-,-,-,conservative,no,m,1,1.23356981865,3,325
2019_Oct_25,22,001,2,recog,65,SECOND,HF,target,left,yellow,pleasantness,liberal,no,z,1,0.81674868865,3,328
2019_Oct_25,22,001,2,recog,66,PESTERED,LF,lure,-,-,-,conservative,yes,z,0,1.36682706902,-3,325
2019_Oct_25,22,001,2,recog,67,KERNEL,LF,lure,-,-,-,conservative,no,m,1,3.8835157076,3,328
2019_Oct_25,22,001,2,recog,68,WOMAN,HF,lure,-,-,-,conservative,no,m,1,0.983617110822,3,331
2019_Oct_25,22,001,2,recog,69,SALAMI,LF,target,left,yellow,pleasantness,liberal,no,z,1,2.2501649727,3,334
2019_Oct_25,22,001,2,recog,70,STRAIGHT,HF,target,left,yellow,pleasantness,conservative,no,z,1,0.633554201231,1,335
2019_Oct_25,22,001,2,recog,71,LEARN,HF,lure,-,-,-,liberal,no,m,1,1.01689650419,1,336
2019_Oct_25,22,001,2,recog,72,CARRIED,HF,target,right,aqua,imageability,liberal,no,z,1,1.0168906385,3,339
2019_Oct_25,22,001,2,recog,73,COUNCIL,HF,lure,-,-,-,conservative,no,m,1,0.783520253515,3,342
2019_Oct_25,22,001,2,recog,74,EIGHT,HF,lure,-,-,-,conservative,no,m,1,1.50022692912,3,345
2019_Oct_25,22,001,2,recog,75,INDEED,HF,lure,-,-,-,conservative,no,z,0,0.95018374293,-3,342
2019_Oct_25,22,001,2,recog,76,LEVEL,HF,target,right,aqua,imageability,liberal,no,z,1,0.916899217076,3,345
2019_Oct_25,22,001,2,recog,77,BELIEVE,HF,lure,-,-,-,conservative,no,m,1,1.43352259979,3,348
2019_Oct_25,22,001,2,recog,78,HARDLY,HF,target,right,aqua,imageability,liberal,no,z,1,0.600290571921,3,351
2019_Oct_25,22,001,2,recog,79,ENZYME,LF,lure,-,-,-,liberal,no,z,0,0.716945702718,-1,350
2019_Oct_25,22,001,2,recog,80,POINT,HF,lure,-,-,-,liberal,no,m,1,0.766705135857,1,351
2019_Oct_25,22,001,2,recog,81,WIPERS,LF,target,right,aqua,imageability,liberal,yes,m,0,0.916898117258,-3,348
2019_Oct_25,22,001,2,recog,82,STAFF,HF,lure,-,-,-,liberal,no,m,1,1.63332910514,1,349
2019_Oct_25,22,001,2,recog,83,JUBILANT,LF,lure,-,-,-,liberal,no,m,1,0.90022707576,1,350
2019_Oct_25,22,001,2,recog,84,MERELY,HF,lure,-,-,-,conservative,no,z,0,2.25015837379,-3,347
2019_Oct_25,22,001,2,recog,85,NARRATOR,LF,lure,-,-,-,conservative,no,m,1,0.916967405793,3,350
2019_Oct_25,22,001,2,recog,86,OVENS,LF,lure,-,-,-,conservative,no,m,1,1.48353939035,3,353
2019_Oct_25,22,001,2,recog,87,WETTER,LF,lure,-,-,-,liberal,no,m,1,0.7336218767,1,354
2019_Oct_25,22,001,2,recog,88,SPOKE,HF,lure,-,-,-,liberal,no,m,1,0.683679507164,1,355
2019_Oct_25,22,001,2,recog,89,KILOWATT,LF,target,left,yellow,pleasantness,conservative,yes,m,0,1.58358360303,-1,354
2019_Oct_25,22,001,2,recog,90,BETTER,HF,target,left,yellow,pleasantness,liberal,no,z,1,0.650224876124,3,357
2019_Oct_25,22,001,2,recog,91,REVERE,LF,lure,-,-,-,conservative,no,m,1,0.800137403931,3,360
2019_Oct_25,22,001,2,recog,92,EBONY,LF,target,left,yellow,pleasantness,liberal,no,z,1,0.783575611022,3,363
2019_Oct_25,22,001,2,recog,93,SHORT,HF,lure,-,-,-,liberal,no,m,1,0.616912121608,1,364
2019_Oct_25,22,001,2,recog,94,SEVEN,HF,target,left,yellow,pleasantness,conservative,no,z,1,0.650280966843,1,365
2019_Oct_25,22,001,2,recog,95,TAKEN,HF,target,left,yellow,pleasantness,conservative,no,m,0,0.71695010199,-1,364
2019_Oct_25,22,001,3,source,0,WHETHER,HF,target,left,yellow,pleasantness,conservative,no,2,1,3.80010147654,-,-
2019_Oct_25,22,001,3,source,1,BIRCHES,LF,target,right,aqua,imageability,liberal,no,2,0,1.75020859882,-,-
2019_Oct_25,22,001,3,source,2,BOOKS,HF,target,left,yellow,pleasantness,liberal,no,1,1,1.56686856881,-,-
2019_Oct_25,22,001,3,source,3,CICADAS,LF,target,left,yellow,pleasantness,liberal,no,2,1,1.40024174,-,-
2019_Oct_25,22,001,3,source,4,DUELLING,LF,target,left,yellow,pleasantness,liberal,no,8,0,1.23365670427,-,-
2019_Oct_25,22,001,3,source,5,CAUGHT,HF,target,right,aqua,imageability,conservative,no,8,1,1.01689540437,-,-
2019_Oct_25,22,001,3,source,6,FATHER,HF,target,right,aqua,imageability,conservative,no,9,1,0.700272094978,-,-
2019_Oct_25,22,001,3,source,7,SOUND,HF,target,left,yellow,pleasantness,conservative,no,1,1,1.30016893205,-,-
2019_Oct_25,22,001,3,source,8,HOTEL,HF,target,right,aqua,imageability,liberal,no,2,0,3.13346438276,-,-
2019_Oct_25,22,001,3,source,9,BUOYANCY,LF,target,right,aqua,imageability,liberal,no,2,0,1.71685625085,-,-
2019_Oct_25,22,001,3,source,10,WATCH,HF,target,right,aqua,imageability,conservative,no,9,1,0.966994461317,-,-
2019_Oct_25,22,001,3,source,11,YOUNG,HF,target,left,yellow,pleasantness,liberal,no,1,1,1.13333130478,-,-
2019_Oct_25,22,001,3,source,12,USING,HF,target,right,aqua,imageability,liberal,no,8,1,1.73353315805,-,-
2019_Oct_25,22,001,3,source,13,LOANED,LF,target,right,aqua,imageability,conservative,no,2,0,0.850061443166,-,-
2019_Oct_25,22,001,3,source,14,FEELING,HF,target,left,yellow,pleasantness,liberal,no,1,1,0.767003919752,-,-
2019_Oct_25,22,001,3,source,15,SKIDDED,LF,target,right,aqua,imageability,conservative,no,1,0,1.03357304478,-,-
2019_Oct_25,22,001,3,source,16,LEMURS,LF,target,right,aqua,imageability,conservative,no,2,0,0.766867175712,-,-
2019_Oct_25,22,001,3,source,17,FITFUL,LF,target,left,yellow,pleasantness,liberal,no,8,0,0.650309195505,-,-
2019_Oct_25,22,001,3,source,18,SOCIAL,HF,target,right,aqua,imageability,liberal,no,8,1,0.883347068839,-,-
2019_Oct_25,22,001,3,source,19,TAUNTED,LF,target,right,aqua,imageability,conservative,no,2,0,0.950200240201,-,-
2019_Oct_25,22,001,3,source,20,WITHIN,HF,target,left,yellow,pleasantness,liberal,no,8,0,6.39970172935,-,-
2019_Oct_25,22,001,3,source,21,FLECKED,LF,target,left,yellow,pleasantness,conservative,no,2,1,0.883563366381,-,-
2019_Oct_25,22,001,3,source,22,SAYING,HF,target,right,aqua,imageability,liberal,no,8,1,0.76689943704,-,-
2019_Oct_25,22,001,3,source,23,SCOFFED,LF,target,right,aqua,imageability,liberal,no,2,0,0.916957140825,-,-
2019_Oct_25,22,001,3,source,24,YACHTING,LF,target,right,aqua,imageability,liberal,no,8,1,1.95013461772,-,-
2019_Oct_25,22,001,3,source,25,TOTAL,HF,target,left,yellow,pleasantness,conservative,no,2,1,1.65014935529,-,-
2019_Oct_25,22,001,3,source,26,EXCEPT,HF,target,left,yellow,pleasantness,conservative,no,2,1,2.08355830722,-,-
2019_Oct_25,22,001,3,source,27,STOOD,HF,target,left,yellow,pleasantness,conservative,yes,2,1,0.716908675511,-,-
2019_Oct_25,22,001,3,source,28,DEITIES,LF,target,right,aqua,imageability,liberal,no,1,0,1.50027385469,-,-
2019_Oct_25,22,001,3,source,29,DOTTY,LF,target,left,yellow,pleasantness,conservative,no,1,1,0.98355772065,-,-
2019_Oct_25,22,001,3,source,30,PARENTS,HF,target,right,aqua,imageability,conservative,no,2,0,1.38350067675,-,-
2019_Oct_25,22,001,3,source,31,DOCTOR,HF,target,left,yellow,pleasantness,liberal,no,2,1,1.58352751231,-,-
2019_Oct_25,22,001,3,source,32,ALIAS,LF,target,left,yellow,pleasantness,conservative,no,2,1,2.60012046673,-,-
2019_Oct_25,22,001,3,source,33,PIANOS,LF,target,right,aqua,imageability,liberal,yes,2,0,0.816909628687,-,-
2019_Oct_25,22,001,3,source,34,FULCRUM,LF,target,left,yellow,pleasantness,liberal,no,2,1,1.33349928365,-,-
2019_Oct_25,22,001,3,source,35,TIDILY,LF,target,left,yellow,pleasantness,conservative,no,1,1,0.933566225909,-,-
2019_Oct_25,22,001,3,source,36,ALREADY,HF,target,right,aqua,imageability,liberal,no,8,1,0.966743336203,-,-
2019_Oct_25,22,001,3,source,37,HOURS,HF,target,left,yellow,pleasantness,conservative,no,8,0,1.96686981527,-,-
2019_Oct_25,22,001,3,source,38,ASHEN,LF,target,right,aqua,imageability,conservative,no,8,1,0.76690676916,-,-
2019_Oct_25,22,001,3,source,39,CERTAIN,HF,target,right,aqua,imageability,conservative,no,8,1,0.566929058805,-,-
2019_Oct_25,22,001,3,source,40,BECAME,HF,target,right,aqua,imageability,conservative,no,2,0,1.90013872371,-,-
2019_Oct_25,22,001,3,source,41,GLIDED,LF,target,left,yellow,pleasantness,liberal,no,2,1,3.08344502596,-,-
2019_Oct_25,22,001,3,source,42,WIRING,LF,target,left,yellow,pleasantness,conservative,no,8,0,4.3500940711,-,-
2019_Oct_25,22,001,3,source,43,EDUCATION,HF,target,right,aqua,imageability,liberal,no,2,0,0.833592034971,-,-
2019_Oct_25,22,001,3,source,44,SORRY,HF,target,left,yellow,pleasantness,liberal,yes,8,0,0.500306116015,-,-
2019_Oct_25,22,001,3,source,45,MADDENED,LF,target,left,yellow,pleasantness,conservative,no,2,1,1.06691256153,-,-
2019_Oct_25,22,001,3,source,46,HAWKED,LF,target,right,aqua,imageability,conservative,no,8,1,0.516754627668,-,-
2019_Oct_25,22,001,3,source,47,VERBALLY,LF,target,left,yellow,pleasantness,liberal,yes,8,0,0.516966159333,-,-
2019_Oct_25,22,001,3,recog,0,GROUND,HF,lure,-,-,-,conservative,no,z,0,1.85021431787,-3,361
2019_Oct_25,22,001,3,recog,1,KIDNAP,LF,lure,-,-,-,conservative,no,m,1,1.10017069176,3,364
2019_Oct_25,22,001,3,recog,2,WEEKS,HF,lure,-,-,-,liberal,no,m,1,1.15002287622,1,365
2019_Oct_25,22,001,3,recog,3,MUMBLES,LF,lure,-,-,-,conservative,no,z,0,1.53354701575,-3,362
2019_Oct_25,22,001,3,recog,4,PIGLETS,LF,lure,-,-,-,liberal,no,m,1,0.933565492696,1,363
2019_Oct_25,22,001,3,recog,5,HAWKED,LF,target,right,aqua,imageability,conservative,no,z,1,0.983564686163,1,364
2019_Oct_25,22,001,3,recog,6,SOUND,HF,target,left,yellow,pleasantness,conservative,no,z,1,0.966884112909,1,365
2019_Oct_25,22,001,3,recog,7,GIBBERISH,LF,lure,-,-,-,conservative,no,m,1,1.10025427793,3,368
2019_Oct_25,22,001,3,recog,8,HOURS,HF,target,left,yellow,pleasantness,conservative,no,z,1,0.850200386843,1,369
2019_Oct_25,22,001,3,recog,9,FEELING,HF,target,left,yellow,pleasantness,liberal,no,z,1,0.650246139273,3,372
2019_Oct_25,22,001,3,recog,10,PRACTICE,HF,lure,-,-,-,conservative,no,m,1,0.900185282675,3,375
2019_Oct_25,22,001,3,recog,11,LOBBIES,LF,lure,-,-,-,liberal,no,m,1,1.75018990191,1,376
2019_Oct_25,22,001,3,recog,12,PASSED,HF,lure,-,-,-,conservative,no,m,1,0.766896870798,3,379
2019_Oct_25,22,001,3,recog,13,FITFUL,LF,target,left,yellow,pleasantness,liberal,no,z,1,0.666937710706,3,382
2019_Oct_25,22,001,3,recog,14,MILES,HF,lure,-,-,-,conservative,no,z,0,0.933356893879,-3,379
2019_Oct_25,22,001,3,recog,15,WATCH,HF,target,right,aqua,imageability,conservative,no,z,1,0.566945189469,1,380
2019_Oct_25,22,001,3,recog,16,UMPIRE,LF,lure,-,-,-,conservative,no,m,1,0.783582943142,3,383
2019_Oct_25,22,001,3,recog,17,CICADAS,LF,target,left,yellow,pleasantness,liberal,no,z,1,0.983604646218,3,386
2019_Oct_25,22,001,3,recog,18,FLECKED,LF,target,left,yellow,pleasantness,conservative,no,z,1,0.833610731877,1,387
2019_Oct_25,22,001,3,recog,19,ALREADY,HF,target,right,aqua,imageability,liberal,yes,z,1,0.716870915093,3,390
2019_Oct_25,22,001,3,recog,20,FATHER,HF,target,right,aqua,imageability,conservative,no,m,0,2.76680668572,-1,389
2019_Oct_25,22,001,3,recog,21,SYSTEM,HF,lure,-,-,-,liberal,no,m,1,0.850279940346,1,390
2019_Oct_25,22,001,3,recog,22,SORRY,HF,target,left,yellow,pleasantness,liberal,no,z,1,0.91686585593,3,393
2019_Oct_25,22,001,3,recog,23,EDUCATION,HF,target,right,aqua,imageability,liberal,no,z,1,1.00023096178,3,396
2019_Oct_25,22,001,3,recog,24,ACTION,HF,lure,-,-,-,conservative,no,m,1,2.56686270312,3,399
2019_Oct_25,22,001,3,recog,25,PARENTS,HF,target,right,aqua,imageability,conservative,no,z,1,0.80017883041,1,400
2019_Oct_25,22,001,3,recog,26,STOOD,HF,target,left,yellow,pleasantness,conservative,no,m,0,1.23333812365,-1,399
2019_Oct_25,22,001,3,recog,27,PIANOS,LF,target,right,aqua,imageability,liberal,no,z,1,0.816915127777,3,402
2019_Oct_25,22,001,3,recog,28,SPRATS,LF,lure,-,-,-,liberal,no,m,1,1.33336987173,1,403
2019_Oct_25,22,001,3,recog,29,APOSTLE,LF,lure,-,-,-,liberal,no,m,1,1.05001789037,1,404
2019_Oct_25,22,001,3,recog,30,EXCEPT,HF,target,left,yellow,pleasantness,conservative,no,z,1,0.900335224531,1,405
2019_Oct_25,22,001,3,recog,31,LEMURS,LF,target,right,aqua,imageability,conservative,no,z,1,0.650213877943,1,406
2019_Oct_25,22,001,3,recog,32,SCOFFED,LF,target,right,aqua,imageability,liberal,yes,z,1,1.28353675079,3,409
2019_Oct_25,22,001,3,recog,33,BIRCHES,LF,target,right,aqua,imageability,liberal,no,z,1,1.2336218767,3,412
2019_Oct_25,22,001,3,recog,34,WHETHER,HF,target,left,yellow,pleasantness,conservative,no,z,1,0.866720753273,1,413
2019_Oct_25,22,001,3,recog,35,FRONT,HF,lure,-,-,-,liberal,no,m,1,1.30017113168,1,414
2019_Oct_25,22,001,3,recog,36,CAUGHT,HF,target,right,aqua,imageability,conservative,no,m,0,1.28354261648,-1,413
2019_Oct_25,22,001,3,recog,37,APART,HF,lure,-,-,-,liberal,no,m,1,0.950254864495,1,414
2019_Oct_25,22,001,3,recog,38,GENERAL,HF,lure,-,-,-,conservative,no,m,1,2.45017164493,3,417
2019_Oct_25,22,001,3,recog,39,LIGHT,HF,lure,-,-,-,liberal,no,z,0,0.766928765521,-1,416
2019_Oct_25,22,001,3,recog,40,HOTEL,HF,target,right,aqua,imageability,liberal,no,m,0,0.916924512891,-3,413
2019_Oct_25,22,001,3,recog,41,COLDEST,LF,lure,-,-,-,liberal,no,m,1,0.783578177264,1,414
2019_Oct_25,22,001,3,recog,42,TERMS,HF,lure,-,-,-,conservative,no,m,1,2.5166589435,3,417
2019_Oct_25,22,001,3,recog,43,VEILING,LF,lure,-,-,-,conservative,no,m,1,1.46666708215,3,420
2019_Oct_25,22,001,3,recog,44,HANDS,HF,lure,-,-,-,liberal,no,z,0,0.800231621674,-1,419
2019_Oct_25,22,001,3,recog,45,SAFARI,LF,lure,-,-,-,liberal,no,m,1,0.766918133946,1,420
2019_Oct_25,22,001,3,recog,46,WIRING,LF,target,left,yellow,pleasantness,conservative,no,z,1,0.766954061335,1,421
2019_Oct_25,22,001,3,recog,47,MOPED,LF,lure,-,-,-,conservative,no,m,1,1.66685522436,3,424
2019_Oct_25,22,001,3,recog,48,USHERS,LF,lure,-,-,-,conservative,no,m,1,1.28384103377,3,427
2019_Oct_25,22,001,3,recog,49,BRACES,LF,lure,-,-,-,conservative,no,m,1,1.08365692423,3,430
2019_Oct_25,22,001,3,recog,50,UNLESS,HF,lure,-,-,-,liberal,no,m,1,2.05018469611,1,431
2019_Oct_25,22,001,3,recog,51,EGGSHELL,LF,lure,-,-,-,conservative,no,m,1,2.11658657547,3,434
2019_Oct_25,22,001,3,recog,52,FIVER,LF,lure,-,-,-,liberal,no,m,1,0.950230668499,1,435
2019_Oct_25,22,001,3,recog,53,SOCIAL,HF,target,right,aqua,imageability,liberal,no,z,1,0.733618943853,3,438
2019_Oct_25,22,001,3,recog,54,ACCORDING,HF,lure,-,-,-,liberal,yes,z,0,0.750072587989,-1,437
2019_Oct_25,22,001,3,recog,55,BUOYANCY,LF,target,right,aqua,imageability,liberal,no,z,1,1.11687802725,3,440
2019_Oct_25,22,001,3,recog,56,BECAME,HF,target,right,aqua,imageability,conservative,no,m,0,0.866933751361,-1,439
2019_Oct_25,22,001,3,recog,57,VALUE,HF,lure,-,-,-,conservative,no,m,1,1.40020434619,3,442
2019_Oct_25,22,001,3,recog,58,VERBALLY,LF,target,left,yellow,pleasantness,liberal,no,z,1,0.983600980157,3,445
2019_Oct_25,22,001,3,recog,59,DEITIES,LF,target,right,aqua,imageability,liberal,no,z,1,0.683574291241,3,448
2019_Oct_25,22,001,3,recog,60,ARTIFACTS,LF,lure,-,-,-,liberal,no,z,0,0.866841366649,-1,447
2019_Oct_25,22,001,3,recog,61,YACHTING,LF,target,right,aqua,imageability,liberal,no,z,1,0.866923486394,3,450
2019_Oct_25,22,001,3,recog,62,CABLED,LF,lure,-,-,-,conservative,no,z,0,0.750220330209,-3,447
2019_Oct_25,22,001,3,recog,63,PREPARED,HF,lure,-,-,-,conservative,no,m,1,0.666934777858,3,450
2019_Oct_25,22,001,3,recog,64,WITHIN,HF,target,left,yellow,pleasantness,liberal,no,m,0,3.1001003034,-3,447
2019_Oct_25,22,001,3,recog,65,CERTAIN,HF,target,right,aqua,imageability,conservative,no,m,0,1.81685610421,-1,446
2019_Oct_25,22,001,3,recog,66,ALMOST,HF,lure,-,-,-,conservative,no,m,1,1.85018902206,3,449
2019_Oct_25,22,001,3,recog,67,SKIDDED,LF,target,right,aqua,imageability,conservative,no,z,1,1.58348168656,1,450
2019_Oct_25,22,001,3,recog,68,TORMENTS,LF,lure,-,-,-,liberal,no,m,1,0.900240273576,1,451
2019_Oct_25,22,001,3,recog,69,DOCTOR,HF,target,left,yellow,pleasantness,liberal,no,z,1,2.58327565399,3,454
2019_Oct_25,22,001,3,recog,70,MAYBE,HF,lure,-,-,-,liberal,no,m,1,5.84977255763,1,455
2019_Oct_25,22,001,3,recog,71,GLIDED,LF,target,left,yellow,pleasantness,liberal,no,z,1,0.950330751938,3,458
2019_Oct_25,22,001,3,recog,72,FULCRUM,LF,target,left,yellow,pleasantness,liberal,no,z,1,0.766906402554,3,461
2019_Oct_25,22,001,3,recog,73,DUELLING,LF,target,left,yellow,pleasantness,liberal,no,z,1,1.55015536763,3,464
2019_Oct_25,22,001,3,recog,74,ALLOWED,HF,lure,-,-,-,liberal,no,m,1,0.7835803769,1,465
2019_Oct_25,22,001,3,recog,75,QUALITY,HF,lure,-,-,-,conservative,no,m,1,1.28334758209,3,468
2019_Oct_25,22,001,3,recog,76,LOANED,LF,target,right,aqua,imageability,conservative,no,m,0,0.700326719271,-1,467
2019_Oct_25,22,001,3,recog,77,EARLIER,HF,lure,-,-,-,conservative,no,m,1,1.88351204154,3,470
2019_Oct_25,22,001,3,recog,78,AILMENT,LF,lure,-,-,-,conservative,no,m,1,1.06688323305,3,473
2019_Oct_25,22,001,3,recog,79,ASHEN,LF,target,right,aqua,imageability,conservative,no,z,1,0.866933384756,1,474
2019_Oct_25,22,001,3,recog,80,POWER,HF,lure,-,-,-,liberal,no,m,1,0.866893424702,1,475
2019_Oct_25,22,001,3,recog,81,USING,HF,target,right,aqua,imageability,liberal,no,m,0,1.28359210829,-3,472
2019_Oct_25,22,001,3,recog,82,ALIAS,LF,target,left,yellow,pleasantness,conservative,no,z,1,1.48356835222,1,473
2019_Oct_25,22,001,3,recog,83,SAYING,HF,target,right,aqua,imageability,liberal,no,z,1,0.783601273442,3,476
2019_Oct_25,22,001,3,recog,84,DOTTY,LF,target,left,yellow,pleasantness,conservative,yes,z,1,0.683411151568,1,477
2019_Oct_25,22,001,3,recog,85,SCABS,LF,lure,-,-,-,conservative,no,m,1,1.06668746545,3,480
2019_Oct_25,22,001,3,recog,86,YOUNG,HF,target,left,yellow,pleasantness,liberal,no,z,1,0.583565272733,3,483
2019_Oct_25,22,001,3,recog,87,TAUNTED,LF,target,right,aqua,imageability,conservative,no,z,1,1.01687450783,1,484
2019_Oct_25,22,001,3,recog,88,OMITTING,LF,lure,-,-,-,liberal,no,m,1,0.933521866581,1,485
2019_Oct_25,22,001,3,recog,89,BOOKS,HF,target,left,yellow,pleasantness,liberal,no,m,0,0.966698976876,-3,482
2019_Oct_25,22,001,3,recog,90,TOTAL,HF,target,left,yellow,pleasantness,conservative,no,z,1,0.633527805599,1,483
2019_Oct_25,22,001,3,recog,91,FRACTIONS,LF,lure,-,-,-,liberal,no,m,1,1.36687472779,1,484
2019_Oct_25,22,001,3,recog,92,MADDENED,LF,target,left,yellow,pleasantness,conservative,no,z,1,0.800061883094,1,485
2019_Oct_25,22,001,3,recog,93,TIDILY,LF,target,left,yellow,pleasantness,conservative,no,z,1,1.31678314961,1,486
2019_Oct_25,22,001,3,recog,94,MOTHER,HF,lure,-,-,-,liberal,no,m,1,0.816694797568,1,487
2019_Oct_25,22,001,3,recog,95,VEERED,LF,lure,-,-,-,liberal,no,m,1,1.30016526599,1,488
2019_Oct_25,22,001,4,source,0,NORTH,HF,target,left,yellow,pleasantness,conservative,yes,1,1,4.46673270463,-,-
2019_Oct_25,22,001,4,source,1,DEBACLE,LF,target,left,yellow,pleasantness,liberal,no,2,1,4.9334437795,-,-
2019_Oct_25,22,001,4,source,2,PORCHES,LF,target,left,yellow,pleasantness,conservative,no,1,1,1.23355112174,-,-
2019_Oct_25,22,001,4,source,3,HOWEVER,HF,target,right,aqua,imageability,conservative,no,2,0,1.59998518912,-,-
2019_Oct_25,22,001,4,source,4,AFTERNOON,HF,target,right,aqua,imageability,conservative,no,8,1,0.916956774219,-,-
2019_Oct_25,22,001,4,source,5,ARRIVED,HF,target,left,yellow,pleasantness,conservative,no,1,1,0.86665403098,-,-
2019_Oct_25,22,001,4,source,6,WALKED,HF,target,left,yellow,pleasantness,conservative,no,1,1,0.783570478538,-,-
2019_Oct_25,22,001,4,source,7,BOTANIST,LF,target,left,yellow,pleasantness,conservative,no,1,1,0.866911755002,-,-
2019_Oct_25,22,001,4,source,8,WAXEN,LF,target,right,aqua,imageability,conservative,no,9,1,1.05022758901,-,-
2019_Oct_25,22,001,4,source,9,FOUND,HF,target,left,yellow,pleasantness,conservative,no,9,0,1.56661671049,-,-
2019_Oct_25,22,001,4,source,10,RIVER,HF,target,right,aqua,imageability,conservative,no,9,1,2.60019122169,-,-
2019_Oct_25,22,001,4,source,11,NEITHER,HF,target,left,yellow,pleasantness,conservative,no,1,1,1.61683953362,-,-
2019_Oct_25,22,001,4,source,12,UNOPENED,LF,target,right,aqua,imageability,liberal,no,1,0,0.983362319648,-,-
2019_Oct_25,22,001,4,source,13,HAVING,HF,target,left,yellow,pleasantness,liberal,no,9,0,1.65020654582,-,-
2019_Oct_25,22,001,4,source,14,SUBJECT,HF,target,right,aqua,imageability,liberal,no,9,1,2.08334090986,-,-
2019_Oct_25,22,001,4,source,15,ZEALOTS,LF,target,right,aqua,imageability,liberal,no,1,0,1.86664559904,-,-
2019_Oct_25,22,001,4,source,16,DIFFERENT,HF,target,left,yellow,pleasantness,liberal,no,1,1,1.33360303315,-,-
2019_Oct_25,22,001,4,source,17,ACORNS,LF,target,left,yellow,pleasantness,liberal,no,1,1,0.900231108426,-,-
2019_Oct_25,22,001,4,source,18,REPORT,HF,target,left,yellow,pleasantness,liberal,no,1,1,0.816872234874,-,-
2019_Oct_25,22,001,4,source,19,DAUGHTER,HF,target,left,yellow,pleasantness,liberal,no,1,1,0.666877953928,-,-
2019_Oct_25,22,001,4,source,20,VOICE,HF,target,right,aqua,imageability,conservative,no,9,1,2.16686878878,-,-
2019_Oct_25,22,001,4,source,21,TABLE,HF,target,right,aqua,imageability,liberal,no,1,0,0.650289032175,-,-
2019_Oct_25,22,001,4,source,22,PAVILIONS,LF,target,right,aqua,imageability,conservative,no,9,1,0.816905596021,-,-
2019_Oct_25,22,001,4,source,23,GIMMICKS,LF,target,left,yellow,pleasantness,conservative,no,9,0,0.800070315032,-,-
2019_Oct_25,22,001,4,source,24,WEBBED,LF,target,right,aqua,imageability,conservative,no,9,1,0.833608165635,-,-
2019_Oct_25,22,001,4,source,25,BACHELORS,LF,target,right,aqua,imageability,liberal,no,9,1,0.916876487504,-,-
2019_Oct_25,22,001,4,source,26,PLEASE,HF,target,left,yellow,pleasantness,liberal,no,9,0,1.15017061843,-,-
2019_Oct_25,22,001,4,source,27,FOLLOWED,HF,target,right,aqua,imageability,conservative,no,1,0,0.583634194662,-,-
2019_Oct_25,22,001,4,source,28,OBTAINS,LF,target,left,yellow,pleasantness,liberal,no,1,1,0.850231914959,-,-
2019_Oct_25,22,001,4,source,29,BAIZE,LF,target,left,yellow,pleasantness,liberal,no,1,1,0.666912414892,-,-
2019_Oct_25,22,001,4,source,30,AUSPICES,LF,target,right,aqua,imageability,liberal,no,1,0,0.81690376299,-,-
2019_Oct_25,22,001,4,source,31,NETTLE,LF,target,right,aqua,imageability,liberal,no,1,0,0.883561166745,-,-
2019_Oct_25,22,001,4,source,32,LOITERING,LF,target,left,yellow,pleasantness,liberal,no,2,1,1.08357370467,-,-
2019_Oct_25,22,001,4,source,33,SINCE,HF,target,right,aqua,imageability,liberal,yes,8,1,0.950199873594,-,-
2019_Oct_25,22,001,4,source,34,KINDEST,LF,target,right,aqua,imageability,liberal,no,1,0,1.51686387626,-,-
2019_Oct_25,22,001,4,source,35,DODGED,LF,target,left,yellow,pleasantness,conservative,no,2,1,0.600231914958,-,-
2019_Oct_25,22,001,4,source,36,MOISTENED,LF,target,left,yellow,pleasantness,conservative,yes,8,0,0.450239833649,-,-
2019_Oct_25,22,001,4,source,37,SURER,LF,target,left,yellow,pleasantness,liberal,no,1,1,0.800060050065,-,-
2019_Oct_25,22,001,4,source,38,HUBBUB,LF,target,left,yellow,pleasantness,conservative,no,1,1,1.00033837734,-,-
2019_Oct_25,22,001,4,source,39,GETTING,HF,target,left,yellow,pleasantness,conservative,no,2,1,0.916881986594,-,-
2019_Oct_25,22,001,4,source,40,OUTSIDE,HF,target,right,aqua,imageability,liberal,no,9,1,2.14996751871,-,-
2019_Oct_25,22,001,4,source,41,SENSE,HF,target,left,yellow,pleasantness,liberal,no,1,1,1.93351893373,-,-
2019_Oct_25,22,001,4,source,42,NUCLEAR,HF,target,right,aqua,imageability,conservative,no,9,1,0.816856104209,-,-
2019_Oct_25,22,001,4,source,43,BLACK,HF,target,right,aqua,imageability,liberal,no,9,1,0.70021673747,-,-
2019_Oct_25,22,001,4,source,44,IDYLL,LF,target,right,aqua,imageability,conservative,yes,9,1,0.566974151344,-,-
2019_Oct_25,22,001,4,source,45,RUINOUS,LF,target,right,aqua,imageability,conservative,no,9,1,1.31667720048,-,-
2019_Oct_25,22,001,4,source,46,GLOBULAR,LF,target,right,aqua,imageability,conservative,no,8,1,1.91683066175,-,-
2019_Oct_25,22,001,4,source,47,COMES,HF,target,right,aqua,imageability,liberal,no,2,0,0.750244892812,-,-
2019_Oct_25,22,001,4,recog,0,JOSTLED,LF,lure,-,-,-,liberal,no,m,1,1.28359724078,1,489
2019_Oct_25,22,001,4,recog,1,SENSE,HF,target,left,yellow,pleasantness,liberal,no,z,1,0.833570771822,3,492
2019_Oct_25,22,001,4,recog,2,IDYLL,LF,target,right,aqua,imageability,conservative,no,z,1,1.00024599263,1,493
2019_Oct_25,22,001,4,recog,3,CHIEF,HF,lure,-,-,-,liberal,no,m,1,1.00020676579,1,494
2019_Oct_25,22,001,4,recog,4,PORCHES,LF,target,left,yellow,pleasantness,conservative,no,z,1,0.783610805199,1,495
2019_Oct_25,22,001,4,recog,5,COBALT,LF,lure,-,-,-,conservative,no,z,0,1.46692810563,-3,492
2019_Oct_25,22,001,4,recog,6,TODAY,HF,lure,-,-,-,conservative,no,m,1,0.700169811902,3,495
2019_Oct_25,22,001,4,recog,7,ACORNS,LF,target,left,yellow,pleasantness,liberal,yes,z,1,0.983524726109,3,498
2019_Oct_25,22,001,4,recog,8,WRONG,HF,lure,-,-,-,liberal,no,m,1,0.816923559715,1,499
2019_Oct_25,22,001,4,recog,9,SINCE,HF,target,right,aqua,imageability,liberal,no,z,1,0.833596800849,3,502
2019_Oct_25,22,001,4,recog,10,DAUGHTER,HF,target,left,yellow,pleasantness,liberal,yes,z,1,0.766871574983,3,505
2019_Oct_25,22,001,4,recog,11,DEVELOPED,HF,lure,-,-,-,liberal,no,m,1,0.850326499309,1,506
2019_Oct_25,22,001,4,recog,12,SUFFERER,LF,lure,-,-,-,liberal,no,z,0,0.950275761037,-1,505
2019_Oct_25,22,001,4,recog,13,UPHEAVALS,LF,lure,-,-,-,liberal,no,z,0,1.36684319968,-1,504
2019_Oct_25,22,001,4,recog,14,CURATOR,LF,lure,-,-,-,liberal,no,m,1,0.700208672138,1,505
2019_Oct_25,22,001,4,recog,15,HUBBUB,LF,target,left,yellow,pleasantness,conservative,no,z,1,0.633393994407,1,506
2019_Oct_25,22,001,4,recog,16,BLACK,HF,target,right,aqua,imageability,liberal,no,z,1,0.533535284361,3,509
2019_Oct_25,22,001,4,recog,17,CUSTODIAN,LF,lure,-,-,-,conservative,no,m,1,1.25018843549,3,512
2019_Oct_25,22,001,4,recog,18,THEORY,HF,lure,-,-,-,conservative,no,m,1,1.39995358768,3,515
2019_Oct_25,22,001,4,recog,19,TABLE,HF,target,right,aqua,imageability,liberal,no,z,1,0.683326465581,3,518
2019_Oct_25,22,001,4,recog,20,THOUSAND,HF,lure,-,-,-,liberal,no,m,1,0.800233821311,1,519
2019_Oct_25,22,001,4,recog,21,BRING,HF,lure,-,-,-,liberal,no,z,0,0.816894231234,-1,518
2019_Oct_25,22,001,4,recog,22,VOLITION,LF,lure,-,-,-,liberal,no,m,1,0.71692077351,1,519
2019_Oct_25,22,001,4,recog,23,RUINOUS,LF,target,right,aqua,imageability,conservative,no,z,1,1.16689335138,1,520
2019_Oct_25,22,001,4,recog,24,NADIR,LF,lure,-,-,-,liberal,no,z,0,1.23355368798,-1,519
2019_Oct_25,22,001,4,recog,25,WADDLED,LF,lure,-,-,-,conservative,no,z,0,0.716938370598,-3,516
2019_Oct_25,22,001,4,recog,26,WEBBED,LF,target,right,aqua,imageability,conservative,no,z,1,1.06689313142,1,517
2019_Oct_25,22,001,4,recog,27,SMIRK,LF,lure,-,-,-,conservative,no,m,1,0.666903616348,3,520
2019_Oct_25,22,001,4,recog,28,BOTANIST,LF,target,left,yellow,pleasantness,conservative,no,z,1,0.683595554389,1,521
2019_Oct_25,22,001,4,recog,29,WAXEN,LF,target,right,aqua,imageability,conservative,no,z,1,2.4834756009,1,522
2019_Oct_25,22,001,4,recog,30,NEITHER,HF,target,left,yellow,pleasantness,conservative,no,z,1,0.883612491586,1,523
2019_Oct_25,22,001,4,recog,31,VILLAGE,HF,lure,-,-,-,conservative,no,m,1,1.18334442928,3,526
2019_Oct_25,22,001,4,recog,32,POLICE,HF,lure,-,-,-,liberal,no,m,1,1.15025567103,1,527
2019_Oct_25,22,001,4,recog,33,RIVER,HF,target,right,aqua,imageability,conservative,no,z,1,0.916928545557,1,528
2019_Oct_25,22,001,4,recog,34,SUBJECT,HF,target,right,aqua,imageability,liberal,no,z,1,1.20027612764,3,531
2019_Oct_25,22,001,4,recog,35,NUCLEAR,HF,target,right,aqua,imageability,conservative,no,z,1,0.700297757397,1,532
2019_Oct_25,22,001,4,recog,36,FONDLE,LF,lure,-,-,-,liberal,no,z,0,0.916935144465,-1,531
2019_Oct_25,22,001,4,recog,37,SITTING,HF,lure,-,-,-,conservative,no,m,1,0.767003919752,3,534
2019_Oct_25,22,001,4,recog,38,AUSPICES,LF,target,right,aqua,imageability,liberal,yes,z,1,0.966896944119,3,537
2019_Oct_25,22,001,4,recog,39,WAFER,LF,lure,-,-,-,conservative,no,m,1,0.833553541341,3,540
2019_Oct_25,22,001,4,recog,40,AFTERNOON,HF,target,right,aqua,imageability,conservative,no,m,0,1.00019870046,-1,539
2019_Oct_25,22,001,4,recog,41,SURER,LF,target,left,yellow,pleasantness,liberal,no,z,1,0.816998713946,3,542
2019_Oct_25,22,001,4,recog,42,ANOINTED,LF,lure,-,-,-,conservative,no,m,1,1.33349965026,3,545
2019_Oct_25,22,001,4,recog,43,DRINK,HF,lure,-,-,-,liberal,no,m,1,1.3002451861,1,546
2019_Oct_25,22,001,4,recog,44,UNOPENED,LF,target,right,aqua,imageability,liberal,no,z,1,0.916883819624,3,549
2019_Oct_25,22,001,4,recog,45,HOWEVER,HF,target,right,aqua,imageability,conservative,no,z,1,0.783570478538,1,550
2019_Oct_25,22,001,4,recog,46,JUROR,LF,lure,-,-,-,conservative,no,m,1,0.800247385732,3,553
2019_Oct_25,22,001,4,recog,47,ZEALOTS,LF,target,right,aqua,imageability,liberal,no,z,1,0.916909115438,3,556
2019_Oct_25,22,001,4,recog,48,TEMERITY,LF,lure,-,-,-,conservative,no,m,1,0.733601713369,3,559
2019_Oct_25,22,001,4,recog,49,BAIZE,LF,target,left,yellow,pleasantness,liberal,no,z,1,0.716860283519,3,562
2019_Oct_25,22,001,4,recog,50,REBATE,LF,lure,-,-,-,liberal,no,m,1,0.76687744068,1,563
2019_Oct_25,22,001,4,recog,51,TALKING,HF,lure,-,-,-,conservative,no,m,1,1.13351057512,3,566
2019_Oct_25,22,001,4,recog,52,SLOWLY,HF,lure,-,-,-,conservative,no,m,1,0.600240346897,3,569
2019_Oct_25,22,001,4,recog,53,FIGURE,HF,lure,-,-,-,conservative,no,m,1,0.816950321953,3,572
2019_Oct_25,22,001,4,recog,54,IRRIGATED,LF,lure,-,-,-,liberal,no,m,1,0.883315907327,1,573
2019_Oct_25,22,001,4,recog,55,REPORT,HF,target,left,yellow,pleasantness,liberal,no,z,1,0.933562926454,3,576
2019_Oct_25,22,001,4,recog,56,TIMES,HF,lure,-,-,-,conservative,no,m,1,0.80002925516,3,579
2019_Oct_25,22,001,4,recog,57,FOLLOWED,HF,target,right,aqua,imageability,conservative,no,z,1,2.55015610084,1,580
2019_Oct_25,22,001,4,recog,58,JINGLE,LF,lure,-,-,-,liberal,no,m,1,0.650200313521,1,581
2019_Oct_25,22,001,4,recog,59,ARRIVED,HF,target,left,yellow,pleasantness,conservative,no,z,1,1.43353946367,1,582
2019_Oct_25,22,001,4,recog,60,TULIPS,LF,lure,-,-,-,conservative,no,m,1,0.600318433977,3,585
2019_Oct_25,22,001,4,recog,61,FOUND,HF,target,left,yellow,pleasantness,conservative,no,z,1,1.01688990528,1,586
2019_Oct_25,22,001,4,recog,62,NORTH,HF,target,left,yellow,pleasantness,conservative,no,z,1,0.583575904307,1,587
2019_Oct_25,22,001,4,recog,63,NOTHING,HF,lure,-,-,-,liberal,no,m,1,1.25023939372,1,588
2019_Oct_25,22,001,4,recog,64,SLEEP,HF,lure,-,-,-,conservative,no,m,1,1.08355354134,3,591
2019_Oct_25,22,001,4,recog,65,LOITERING,LF,target,left,yellow,pleasantness,liberal,no,z,1,4.90000821197,3,594
2019_Oct_25,22,001,4,recog,66,GLOBULAR,LF,target,right,aqua,imageability,conservative,no,z,1,1.93351966695,1,595
2019_Oct_25,22,001,4,recog,67,WALKED,HF,target,left,yellow,pleasantness,conservative,no,z,1,1.33355170831,1,596
2019_Oct_25,22,001,4,recog,68,SWEARS,LF,lure,-,-,-,conservative,no,m,1,0.850230081929,3,599
2019_Oct_25,22,001,4,recog,69,VARIOUS,HF,lure,-,-,-,liberal,no,m,1,0.783531251695,1,600
2019_Oct_25,22,001,4,recog,70,NETTLE,LF,target,right,aqua,imageability,liberal,no,z,1,1.63351644081,3,603
2019_Oct_25,22,001,4,recog,71,KINDEST,LF,target,right,aqua,imageability,liberal,no,z,1,1.63354980196,3,606
2019_Oct_25,22,001,4,recog,72,NAUGHT,LF,lure,-,-,-,liberal,no,z,0,1.18355669415,-1,605
2019_Oct_25,22,001,4,recog,73,HAVING,HF,target,left,yellow,pleasantness,liberal,no,z,1,1.53334391603,3,608
2019_Oct_25,22,001,4,recog,74,MOISTENED,LF,target,left,yellow,pleasantness,conservative,no,z,1,1.96688154667,1,609
2019_Oct_25,22,001,4,recog,75,OUTSIDE,HF,target,right,aqua,imageability,liberal,no,z,1,0.750189168699,3,612
2019_Oct_25,22,001,4,recog,76,DURING,HF,lure,-,-,-,liberal,no,m,1,1.18357649088,1,613
2019_Oct_25,22,001,4,recog,77,VOICE,HF,target,right,aqua,imageability,conservative,no,z,1,0.766977524119,1,614
2019_Oct_25,22,001,4,recog,78,COMES,HF,target,right,aqua,imageability,liberal,no,z,1,0.833524212861,3,617
2019_Oct_25,22,001,4,recog,79,DODGED,LF,target,left,yellow,pleasantness,conservative,no,z,1,1.35021431787,1,618
2019_Oct_25,22,001,4,recog,80,FAMILY,HF,lure,-,-,-,conservative,no,m,1,0.866901490033,3,621
2019_Oct_25,22,001,4,recog,81,GETTING,HF,target,left,yellow,pleasantness,conservative,no,m,0,0.850034680929,-1,620
2019_Oct_25,22,001,4,recog,82,DEBACLE,LF,target,left,yellow,pleasantness,liberal,no,m,0,1.48353865714,-3,617
2019_Oct_25,22,001,4,recog,83,PUBLIC,HF,lure,-,-,-,liberal,no,m,1,0.750226195905,1,618
2019_Oct_25,22,001,4,recog,84,INORGANIC,LF,lure,-,-,-,conservative,no,m,1,1.46684635249,3,621
2019_Oct_25,22,001,4,recog,85,GIMMICKS,LF,target,left,yellow,pleasantness,conservative,no,z,1,0.700225169408,1,622
2019_Oct_25,22,001,4,recog,86,AFRAID,HF,lure,-,-,-,liberal,no,m,1,0.750192834759,1,623
2019_Oct_25,22,001,4,recog,87,OBTAINS,LF,target,left,yellow,pleasantness,liberal,no,z,1,1.63353147166,3,626
2019_Oct_25,22,001,4,recog,88,DEPARTS,LF,lure,-,-,-,liberal,no,m,1,0.767013084902,1,627
2019_Oct_25,22,001,4,recog,89,LABOUR,HF,lure,-,-,-,conservative,no,m,1,1.28354444951,3,630
2019_Oct_25,22,001,4,recog,90,APPEARED,HF,lure,-,-,-,conservative,no,m,1,3.05008351285,3,633
2019_Oct_25,22,001,4,recog,91,DIFFERENT,HF,target,left,yellow,pleasantness,liberal,no,z,1,0.766909335402,3,636
2019_Oct_25,22,001,4,recog,92,WAYSIDE,LF,lure,-,-,-,conservative,yes,z,0,0.983505662596,-3,633
2019_Oct_25,22,001,4,recog,93,PLEASE,HF,target,left,yellow,pleasantness,liberal,no,z,1,1.5832639226,3,636
2019_Oct_25,22,001,4,recog,94,PAVILIONS,LF,target,right,aqua,imageability,conservative,no,z,1,1.46662272283,1,637
2019_Oct_25,22,001,4,recog,95,BACHELORS,LF,target,right,aqua,imageability,liberal,no,z,1,0.716889245393,3,640
