date,subj,session,cycle,task,trial,item,wf,type,source,colour,encoding,bias,null,response,corr,rt,points,total
2019_Oct_28,23,001,0,source,0,JARRED,LF,target,left,aqua,imageability,conservative,no,2,1,5.05001330775,-,-
2019_Oct_28,23,001,0,source,1,SLIGHTLY,HF,target,right,yellow,pleasantness,liberal,no,2,0,2.69991098839,-,-
2019_Oct_28,23,001,0,source,2,ANSWER,HF,target,right,yellow,pleasantness,liberal,no,2,0,2.63359550455,-,-
2019_Oct_28,23,001,0,source,3,FIELD,HF,target,left,aqua,imageability,liberal,no,9,0,5.28339823458,-,-
2019_Oct_28,23,001,0,source,4,EBONY,LF,target,left,aqua,imageability,liberal,no,1,1,2.53331629844,-,-
2019_Oct_28,23,001,0,source,5,DIDACTIC,LF,target,left,aqua,imageability,liberal,no,1,1,1.39999868022,-,-
2019_Oct_28,23,001,0,source,6,VALUE,HF,target,right,yellow,pleasantness,conservative,no,9,1,2.26692668713,-,-
2019_Oct_28,23,001,0,source,7,UPDATE,LF,target,right,yellow,pleasantness,conservative,no,2,0,3.89986413631,-,-
2019_Oct_28,23,001,0,source,8,INLAID,LF,target,right,yellow,pleasantness,liberal,no,1,0,2.61687319951,-,-
2019_Oct_28,23,001,0,source,9,LOOKED,HF,target,left,aqua,imageability,liberal,no,9,0,1.81685750883,-,-
2019_Oct_28,23,001,0,source,10,WHATEVER,HF,target,left,aqua,imageability,liberal,no,9,0,1.61686146816,-,-
2019_Oct_28,23,001,0,source,11,WAITING,HF,target,left,aqua,imageability,conservative,yes,9,0,2.15143998645,-,-
2019_Oct_28,23,001,0,source,12,PECKED,LF,target,right,yellow,pleasantness,liberal,no,1,0,2.38358542292,-,-
2019_Oct_28,23,001,0,source,13,COMES,HF,target,right,yellow,pleasantness,liberal,no,9,1,1.30017589692,-,-
2019_Oct_28,23,001,0,source,14,SEWED,LF,target,left,aqua,imageability,conservative,no,1,1,1.08356826582,-,-
2019_Oct_28,23,001,0,source,15,SPACE,HF,target,left,aqua,imageability,conservative,no,1,1,1.81695209284,-,-
2019_Oct_28,23,001,0,source,16,UMBILICAL,LF,target,right,yellow,pleasantness,liberal,no,9,1,2.75018311903,-,-
2019_Oct_28,23,001,0,source,17,OUGHT,HF,target,right,yellow,pleasantness,conservative,no,2,0,3.86683415612,-,-
2019_Oct_28,23,001,0,source,18,DRYER,LF,target,right,yellow,pleasantness,liberal,no,9,1,3.033486403,-,-
2019_Oct_28,23,001,0,source,19,PREPARED,HF,target,right,yellow,pleasantness,conservative,no,1,0,3.64988118343,-,-
2019_Oct_28,23,001,0,source,20,ATTACK,HF,target,right,yellow,pleasantness,conservative,no,1,0,2.30022795478,-,-
2019_Oct_28,23,001,0,source,21,WIPERS,LF,target,left,aqua,imageability,conservative,no,1,1,1.45018135933,-,-
2019_Oct_28,23,001,0,source,22,SUSPEND,LF,target,left,aqua,imageability,conservative,no,9,0,2.48351928744,-,-
2019_Oct_28,23,001,0,source,23,ADOPTIVE,LF,target,left,aqua,imageability,conservative,no,9,0,1.43353604127,-,-
2019_Oct_28,23,001,0,source,24,DAUGHTER,HF,target,right,yellow,pleasantness,conservative,no,9,1,0.816696569387,-,-
2019_Oct_28,23,001,0,source,25,BASIC,HF,target,right,yellow,pleasantness,liberal,no,9,1,1.13329782156,-,-
2019_Oct_28,23,001,0,source,26,SOFTENING,LF,target,right,yellow,pleasantness,liberal,no,9,1,2.75008926823,-,-
2019_Oct_28,23,001,0,source,27,HOSPITAL,HF,target,right,yellow,pleasantness,liberal,no,9,1,0.900268867859,-,-
2019_Oct_28,23,001,0,source,28,WANTED,HF,target,left,aqua,imageability,conservative,no,9,0,1.46682191152,-,-
2019_Oct_28,23,001,0,source,29,MOVED,HF,target,left,aqua,imageability,conservative,no,1,1,1.75016295577,-,-
2019_Oct_28,23,001,0,source,30,WOBBLE,LF,target,left,aqua,imageability,liberal,no,1,1,1.8335112588,-,-
2019_Oct_28,23,001,0,source,31,TREES,HF,target,left,aqua,imageability,liberal,no,1,1,0.816962357767,-,-
2019_Oct_28,23,001,0,source,32,APPEARED,HF,target,left,aqua,imageability,liberal,no,1,1,1.08355030219,-,-
2019_Oct_28,23,001,0,source,33,FLAGGED,LF,target,right,yellow,pleasantness,conservative,no,1,0,0.733740166746,-,-
2019_Oct_28,23,001,0,source,34,PACIFISM,LF,target,left,aqua,imageability,liberal,no,1,1,0.900187115019,-,-
2019_Oct_28,23,001,0,source,35,ITSELF,HF,target,right,yellow,pleasantness,conservative,no,1,0,1.03366054021,-,-
2019_Oct_28,23,001,0,source,36,RANGE,HF,target,left,aqua,imageability,conservative,yes,1,1,0.833428039537,-,-
2019_Oct_28,23,001,0,source,37,BOUGH,LF,target,left,aqua,imageability,conservative,no,1,1,1.16685497926,-,-
2019_Oct_28,23,001,0,source,38,KIDNAP,LF,target,right,yellow,pleasantness,liberal,no,9,1,2.30011467394,-,-
2019_Oct_28,23,001,0,source,39,MUSIC,HF,target,left,aqua,imageability,conservative,no,1,1,1.05022850469,-,-
2019_Oct_28,23,001,0,source,40,CULINARY,LF,target,right,yellow,pleasantness,conservative,yes,9,1,0.950080543044,-,-
2019_Oct_28,23,001,0,source,41,NETTLE,LF,target,right,yellow,pleasantness,conservative,no,1,0,3.09991296805,-,-
2019_Oct_28,23,001,0,source,42,PAYOFF,LF,target,right,yellow,pleasantness,conservative,no,None,-1,-1,-,-
2019_Oct_28,23,001,0,source,43,LEOPARDS,LF,target,left,aqua,imageability,liberal,no,1,1,1.81690443423,-,-
2019_Oct_28,23,001,0,source,44,GEOLOGIST,LF,target,right,yellow,pleasantness,conservative,no,9,1,1.40016108609,-,-
2019_Oct_28,23,001,0,source,45,LUMBER,LF,target,left,aqua,imageability,liberal,yes,9,0,1.2500947673,-,-
2019_Oct_28,23,001,0,source,46,ACROSS,HF,target,left,aqua,imageability,liberal,no,9,0,2.70017054449,-,-
2019_Oct_28,23,001,0,source,47,RESEARCH,HF,target,right,yellow,pleasantness,liberal,no,9,1,1.70014964802,-,-
2019_Oct_28,23,001,0,recog,0,WANTED,HF,target,left,aqua,imageability,conservative,no,z,1,3.28341106574,1,1
2019_Oct_28,23,001,0,recog,1,FLAGGED,LF,target,right,yellow,pleasantness,conservative,no,z,1,1.83335801805,1,2
2019_Oct_28,23,001,0,recog,2,PACIFISM,LF,target,left,aqua,imageability,liberal,no,z,1,0.71686278794,3,5
2019_Oct_28,23,001,0,recog,3,BOUGH,LF,target,left,aqua,imageability,conservative,no,z,1,1.21683345957,1,6
2019_Oct_28,23,001,0,recog,4,CULINARY,LF,target,right,yellow,pleasantness,conservative,no,z,1,0.800239686128,1,7
2019_Oct_28,23,001,0,recog,5,VOLITION,LF,lure,-,-,-,liberal,no,m,1,1.15005825348,1,8
2019_Oct_28,23,001,0,recog,6,BASIC,HF,target,right,yellow,pleasantness,liberal,no,z,1,0.950327267981,3,11
2019_Oct_28,23,001,0,recog,7,ANSWER,HF,target,right,yellow,pleasantness,liberal,no,z,1,1.40022927456,3,14
2019_Oct_28,23,001,0,recog,8,OFTEN,HF,lure,-,-,-,liberal,no,z,0,1.31685200976,-1,13
2019_Oct_28,23,001,0,recog,9,MAKES,HF,lure,-,-,-,liberal,no,z,0,3.10013879653,-1,12
2019_Oct_28,23,001,0,recog,10,CYANIDE,LF,lure,-,-,-,conservative,no,m,1,1.25015782331,3,15
2019_Oct_28,23,001,0,recog,11,WAITING,HF,target,left,aqua,imageability,conservative,no,z,1,2.98355301507,1,16
2019_Oct_28,23,001,0,recog,12,VEXED,LF,lure,-,-,-,conservative,no,m,1,1.13353134873,3,19
2019_Oct_28,23,001,0,recog,13,INLAID,LF,target,right,yellow,pleasantness,liberal,yes,m,0,1.55019184422,-3,16
2019_Oct_28,23,001,0,recog,14,GEOLOGIST,LF,target,right,yellow,pleasantness,conservative,no,z,1,1.63352511645,1,17
2019_Oct_28,23,001,0,recog,15,TWAIN,LF,lure,-,-,-,liberal,no,m,1,2.10031073411,1,18
2019_Oct_28,23,001,0,recog,16,OATHS,LF,lure,-,-,-,liberal,no,m,1,0.916970276427,1,19
2019_Oct_28,23,001,0,recog,17,RESEARCH,HF,target,right,yellow,pleasantness,liberal,no,z,1,0.883400654169,3,22
2019_Oct_28,23,001,0,recog,18,FATHER,HF,lure,-,-,-,liberal,no,m,1,1.50019613349,1,23
2019_Oct_28,23,001,0,recog,19,UPDATE,LF,target,right,yellow,pleasantness,conservative,no,z,1,1.61681490937,1,24
2019_Oct_28,23,001,0,recog,20,MODERN,HF,lure,-,-,-,conservative,no,m,1,0.916867260517,3,27
2019_Oct_28,23,001,0,recog,21,ABOVE,HF,lure,-,-,-,conservative,no,z,0,1.21678616757,-3,24
2019_Oct_28,23,001,0,recog,22,SLIGHTLY,HF,target,right,yellow,pleasantness,liberal,no,z,1,0.983557780927,3,27
2019_Oct_28,23,001,0,recog,23,ACROSS,HF,target,left,aqua,imageability,liberal,no,z,1,0.933612661645,3,30
2019_Oct_28,23,001,0,recog,24,OUGHT,HF,target,right,yellow,pleasantness,conservative,no,z,1,0.950274110305,1,31
2019_Oct_28,23,001,0,recog,25,IRONICAL,LF,lure,-,-,-,liberal,no,m,1,0.850192137503,1,32
2019_Oct_28,23,001,0,recog,26,PREPARED,HF,target,right,yellow,pleasantness,conservative,no,z,1,0.983629635441,1,33
2019_Oct_28,23,001,0,recog,27,DRYER,LF,target,right,yellow,pleasantness,liberal,no,z,1,1.31700488391,3,36
2019_Oct_28,23,001,0,recog,28,MORNING,HF,lure,-,-,-,conservative,no,m,1,1.3166030852,3,39
2019_Oct_28,23,001,0,recog,29,SOCIAL,HF,lure,-,-,-,conservative,no,m,1,1.03340538337,3,42
2019_Oct_28,23,001,0,recog,30,ITSELF,HF,target,right,yellow,pleasantness,conservative,no,z,1,0.933566102853,1,43
2019_Oct_28,23,001,0,recog,31,HOVELS,LF,lure,-,-,-,conservative,no,m,1,0.96693665878,3,46
2019_Oct_28,23,001,0,recog,32,AGONIZED,LF,lure,-,-,-,liberal,no,m,1,0.950272643887,1,47
2019_Oct_28,23,001,0,recog,33,UNOPENED,LF,lure,-,-,-,conservative,no,m,1,1.03336469025,3,50
2019_Oct_28,23,001,0,recog,34,ADOPTIVE,LF,target,left,aqua,imageability,conservative,no,z,1,0.86684698728,1,51
2019_Oct_28,23,001,0,recog,35,UMBILICAL,LF,target,right,yellow,pleasantness,liberal,no,z,1,0.916855895773,3,54
2019_Oct_28,23,001,0,recog,36,COMES,HF,target,right,yellow,pleasantness,liberal,no,z,1,0.966951322966,3,57
2019_Oct_28,23,001,0,recog,37,AILMENT,LF,lure,-,-,-,conservative,no,m,1,1.08360749252,3,60
2019_Oct_28,23,001,0,recog,38,VALUE,HF,target,right,yellow,pleasantness,conservative,no,z,1,0.716976068781,1,61
2019_Oct_28,23,001,0,recog,39,RIVER,HF,lure,-,-,-,conservative,no,m,1,1.01694226783,3,64
2019_Oct_28,23,001,0,recog,40,WRITE,HF,lure,-,-,-,conservative,no,m,1,1.06688005502,3,67
2019_Oct_28,23,001,0,recog,41,GLOBULAR,LF,lure,-,-,-,liberal,no,z,0,1.03365210831,-1,66
2019_Oct_28,23,001,0,recog,42,BEQUEST,LF,lure,-,-,-,conservative,no,z,0,1.56691378265,-3,63
2019_Oct_28,23,001,0,recog,43,SPACE,HF,target,left,aqua,imageability,conservative,no,m,0,1.2835492757,-1,62
2019_Oct_28,23,001,0,recog,44,HEEDED,LF,lure,-,-,-,conservative,no,m,1,1.60023594676,3,65
2019_Oct_28,23,001,0,recog,45,CHAIR,HF,lure,-,-,-,liberal,no,m,1,0.933568302481,1,66
2019_Oct_28,23,001,0,recog,46,YONDER,LF,lure,-,-,-,liberal,no,m,1,1.0835983274,1,67
2019_Oct_28,23,001,0,recog,47,SCHOOL,HF,lure,-,-,-,liberal,no,z,0,1.70021600347,-1,66
2019_Oct_28,23,001,0,recog,48,CAFETERIA,LF,lure,-,-,-,liberal,no,m,1,0.883523466731,1,67
2019_Oct_28,23,001,0,recog,49,EMACIATED,LF,lure,-,-,-,conservative,no,z,0,1.50015397396,-3,64
2019_Oct_28,23,001,0,recog,50,LEOPARDS,LF,target,left,aqua,imageability,liberal,no,z,1,1.33354022056,3,67
2019_Oct_28,23,001,0,recog,51,WOBBLE,LF,target,left,aqua,imageability,liberal,no,z,1,0.800203025661,3,70
2019_Oct_28,23,001,0,recog,52,TOGETHER,HF,lure,-,-,-,conservative,no,m,1,0.800231254221,3,73
2019_Oct_28,23,001,0,recog,53,DIDACTIC,LF,target,left,aqua,imageability,liberal,no,z,1,0.883465543194,3,76
2019_Oct_28,23,001,0,recog,54,HOSPITAL,HF,target,right,yellow,pleasantness,liberal,no,z,1,0.933555837923,3,79
2019_Oct_28,23,001,0,recog,55,SORRY,HF,lure,-,-,-,liberal,no,m,1,0.95030197226,1,80
2019_Oct_28,23,001,0,recog,56,WHATEVER,HF,target,left,aqua,imageability,liberal,no,z,1,0.916857728796,3,83
2019_Oct_28,23,001,0,recog,57,FAMILY,HF,lure,-,-,-,liberal,no,m,1,1.11686366779,1,84
2019_Oct_28,23,001,0,recog,58,KETCHUP,LF,lure,-,-,-,conservative,no,m,1,1.01691403927,3,87
2019_Oct_28,23,001,0,recog,59,FIELD,HF,target,left,aqua,imageability,liberal,no,z,1,0.900187481624,3,90
2019_Oct_28,23,001,0,recog,60,SEWED,LF,target,left,aqua,imageability,conservative,no,z,1,1.41682766721,1,91
2019_Oct_28,23,001,0,recog,61,SOFTENING,LF,target,right,yellow,pleasantness,liberal,no,z,1,0.966934459152,3,94
2019_Oct_28,23,001,0,recog,62,VOICE,HF,lure,-,-,-,liberal,no,z,0,1.15005458743,-1,93
2019_Oct_28,23,001,0,recog,63,PECKED,LF,target,right,yellow,pleasantness,liberal,no,z,1,1.06672498125,3,96
2019_Oct_28,23,001,0,recog,64,JARRED,LF,target,left,aqua,imageability,conservative,no,m,0,1.10022568183,-1,95
2019_Oct_28,23,001,0,recog,65,HAVING,HF,lure,-,-,-,liberal,no,m,1,1.26684750053,1,96
2019_Oct_28,23,001,0,recog,66,FARAWAY,LF,lure,-,-,-,conservative,no,m,1,0.916860661633,3,99
2019_Oct_28,23,001,0,recog,67,TYRANTS,LF,lure,-,-,-,liberal,no,m,1,1.16684471433,1,100
2019_Oct_28,23,001,0,recog,68,TOTAL,HF,lure,-,-,-,liberal,no,z,0,2.38348570645,-1,99
2019_Oct_28,23,001,0,recog,69,TREES,HF,target,left,aqua,imageability,liberal,yes,m,0,0.90018088274,-3,96
2019_Oct_28,23,001,0,recog,70,MYSELF,HF,lure,-,-,-,conservative,no,m,1,2.25016295577,3,99
2019_Oct_28,23,001,0,recog,71,LOOKED,HF,target,left,aqua,imageability,liberal,no,m,0,1.15022432539,-3,96
2019_Oct_28,23,001,0,recog,72,RANGE,HF,target,left,aqua,imageability,conservative,no,z,1,1.43354447318,1,97
2019_Oct_28,23,001,0,recog,73,DAILIES,LF,lure,-,-,-,liberal,no,m,1,0.933514778201,1,98
2019_Oct_28,23,001,0,recog,74,TRIED,HF,lure,-,-,-,conservative,no,z,0,0.9502264517,-3,95
2019_Oct_28,23,001,0,recog,75,MOVED,HF,target,left,aqua,imageability,conservative,no,z,1,2.91674224833,1,96
2019_Oct_28,23,001,0,recog,76,AFOOT,LF,lure,-,-,-,liberal,yes,z,0,0.917064493825,-1,95
2019_Oct_28,23,001,0,recog,77,PAYOFF,LF,target,right,yellow,pleasantness,conservative,no,z,1,1.56681296637,1,96
2019_Oct_28,23,001,0,recog,78,DAUGHTER,HF,target,right,yellow,pleasantness,conservative,yes,m,0,0.983362747247,-1,95
2019_Oct_28,23,001,0,recog,79,APPEARED,HF,target,left,aqua,imageability,liberal,no,m,0,1.18349956411,-3,92
2019_Oct_28,23,001,0,recog,80,NETTLE,LF,target,right,yellow,pleasantness,conservative,no,z,1,1.41687459261,1,93
2019_Oct_28,23,001,0,recog,81,SUSPEND,LF,target,left,aqua,imageability,conservative,no,z,1,1.71701382906,1,94
2019_Oct_28,23,001,0,recog,82,LUMBER,LF,target,left,aqua,imageability,liberal,no,z,1,0.950263112166,3,97
2019_Oct_28,23,001,0,recog,83,PNEUMATIC,LF,lure,-,-,-,conservative,no,z,0,1.48351818762,-3,94
2019_Oct_28,23,001,0,recog,84,HUNDRED,HF,lure,-,-,-,liberal,no,m,1,1.20024129919,1,95
2019_Oct_28,23,001,0,recog,85,TODAY,HF,lure,-,-,-,conservative,no,m,1,1.05032198887,3,98
2019_Oct_28,23,001,0,recog,86,EBONY,LF,target,left,aqua,imageability,liberal,no,z,1,0.883568559105,3,101
2019_Oct_28,23,001,0,recog,87,DALES,LF,lure,-,-,-,liberal,no,m,1,1.51686491425,1,102
2019_Oct_28,23,001,0,recog,88,ATTACK,HF,target,right,yellow,pleasantness,conservative,no,z,1,1.13351228529,1,103
2019_Oct_28,23,001,0,recog,89,RECENT,HF,lure,-,-,-,conservative,no,m,1,1.06684999344,3,106
2019_Oct_28,23,001,0,recog,90,KIDNAP,LF,target,right,yellow,pleasantness,liberal,no,z,1,0.916876792239,3,109
2019_Oct_28,23,001,0,recog,91,MUSIC,HF,target,left,aqua,imageability,conservative,no,z,1,1.23354513307,1,110
2019_Oct_28,23,001,0,recog,92,WIPERS,LF,target,left,aqua,imageability,conservative,no,z,1,0.950183192349,1,111
2019_Oct_28,23,001,0,recog,93,FEVERS,LF,lure,-,-,-,conservative,no,m,1,0.767001474484,3,114
2019_Oct_28,23,001,0,recog,94,EXACTLY,HF,lure,-,-,-,liberal,no,m,1,1.16693453247,1,115
2019_Oct_28,23,001,0,recog,95,WEEKS,HF,lure,-,-,-,conservative,no,m,1,0.716717612494,3,118
2019_Oct_28,23,001,1,source,0,KNOWLEDGE,HF,target,right,yellow,pleasantness,liberal,no,1,0,3.41672171847,-,-
2019_Oct_28,23,001,1,source,1,GURGLE,LF,target,right,yellow,pleasantness,conservative,no,9,1,2.10016995792,-,-
2019_Oct_28,23,001,1,source,2,BUILDING,HF,target,left,aqua,imageability,liberal,no,9,0,1.55017314738,-,-
2019_Oct_28,23,001,1,source,3,MENFOLK,LF,target,left,aqua,imageability,liberal,no,1,1,2.01682532094,-,-
2019_Oct_28,23,001,1,source,4,LATER,HF,target,left,aqua,imageability,liberal,no,1,1,0.833579447263,-,-
2019_Oct_28,23,001,1,source,5,HOLED,LF,target,left,aqua,imageability,liberal,no,9,0,0.783577870863,-,-
2019_Oct_28,23,001,1,source,6,PAUNCH,LF,target,right,yellow,pleasantness,liberal,no,1,0,1.08358512964,-,-
2019_Oct_28,23,001,1,source,7,FIXTURE,LF,target,right,yellow,pleasantness,liberal,no,1,0,0.816898201951,-,-
2019_Oct_28,23,001,1,source,8,TOFFEE,LF,target,left,aqua,imageability,liberal,no,1,1,1.13334108091,-,-
2019_Oct_28,23,001,1,source,9,WHOLE,HF,target,left,aqua,imageability,liberal,no,9,0,0.783523979977,-,-
2019_Oct_28,23,001,1,source,10,ENROLMENT,LF,target,left,aqua,imageability,liberal,no,1,1,1.61686880026,-,-
2019_Oct_28,23,001,1,source,11,SODDING,LF,target,left,aqua,imageability,liberal,no,1,1,0.850234663644,-,-
2019_Oct_28,23,001,1,source,12,HIGHER,HF,target,left,aqua,imageability,liberal,no,9,0,1.28352397998,-,-
2019_Oct_28,23,001,1,source,13,AVAILABLE,HF,target,right,yellow,pleasantness,liberal,no,1,0,0.916950479776,-,-
2019_Oct_28,23,001,1,source,14,MATERIAL,HF,target,left,aqua,imageability,conservative,no,9,0,0.716861321522,-,-
2019_Oct_28,23,001,1,source,15,ARRIVED,HF,target,right,yellow,pleasantness,conservative,no,1,0,1.96690586399,-,-
2019_Oct_28,23,001,1,source,16,WOODCOCK,LF,target,right,yellow,pleasantness,conservative,no,1,0,1.18347720122,-,-
2019_Oct_28,23,001,1,source,17,PESTERED,LF,target,left,aqua,imageability,conservative,no,9,0,2.51676446457,-,-
2019_Oct_28,23,001,1,source,18,VILLAGE,HF,target,right,yellow,pleasantness,conservative,no,9,1,1.36685945184,-,-
2019_Oct_28,23,001,1,source,19,CHEEKBONE,LF,target,right,yellow,pleasantness,liberal,yes,9,1,0.816948426789,-,-
2019_Oct_28,23,001,1,source,20,NESTING,LF,target,left,aqua,imageability,conservative,no,1,1,0.733564929718,-,-
2019_Oct_28,23,001,1,source,21,CLASS,HF,target,left,aqua,imageability,conservative,no,1,1,4.38316639379,-,-
2019_Oct_28,23,001,1,source,22,PASSED,HF,target,right,yellow,pleasantness,liberal,yes,1,0,0.666910336565,-,-
2019_Oct_28,23,001,1,source,23,VELVETY,LF,target,right,yellow,pleasantness,liberal,yes,1,0,0.416922251217,-,-
2019_Oct_28,23,001,1,source,24,SWEARS,LF,target,left,aqua,imageability,conservative,no,1,1,1.81678858716,-,-
2019_Oct_28,23,001,1,source,25,GIVEN,HF,target,left,aqua,imageability,liberal,yes,1,1,1.15017373395,-,-
2019_Oct_28,23,001,1,source,26,PRACTICE,HF,target,left,aqua,imageability,conservative,no,9,0,0.683580583737,-,-
2019_Oct_28,23,001,1,source,27,JAUNDICE,LF,target,left,aqua,imageability,liberal,no,1,1,0.883619883757,-,-
2019_Oct_28,23,001,1,source,28,FLICKS,LF,target,right,yellow,pleasantness,liberal,no,9,1,1.21688441762,-,-
2019_Oct_28,23,001,1,source,29,CEMENTED,LF,target,right,yellow,pleasantness,conservative,no,1,0,1.28331501532,-,-
2019_Oct_28,23,001,1,source,30,INACTION,LF,target,left,aqua,imageability,conservative,no,9,0,1.4168265674,-,-
2019_Oct_28,23,001,1,source,31,NOXIOUS,LF,target,right,yellow,pleasantness,conservative,no,9,1,1.15000619562,-,-
2019_Oct_28,23,001,1,source,32,THANK,HF,target,right,yellow,pleasantness,conservative,no,1,0,0.68353439155,-,-
2019_Oct_28,23,001,1,source,33,SPRATS,LF,target,right,yellow,pleasantness,liberal,no,1,0,0.966903297756,-,-
2019_Oct_28,23,001,1,source,34,GENERAL,HF,target,left,aqua,imageability,conservative,no,1,1,0.683567385969,-,-
2019_Oct_28,23,001,1,source,35,DROLL,LF,target,left,aqua,imageability,conservative,no,1,1,0.683371985685,-,-
2019_Oct_28,23,001,1,source,36,GOUGED,LF,target,right,yellow,pleasantness,conservative,no,9,1,0.600299002762,-,-
2019_Oct_28,23,001,1,source,37,MAYBE,HF,target,left,aqua,imageability,conservative,no,9,0,0.966937025384,-,-
2019_Oct_28,23,001,1,source,38,RATHER,HF,target,right,yellow,pleasantness,conservative,no,9,1,0.866672116856,-,-
2019_Oct_28,23,001,1,source,39,TRADE,HF,target,right,yellow,pleasantness,conservative,no,1,0,0.783534244908,-,-
2019_Oct_28,23,001,1,source,40,IDEAS,HF,target,right,yellow,pleasantness,liberal,no,9,1,0.6335918385,-,-
2019_Oct_28,23,001,1,source,41,MIXER,LF,target,left,aqua,imageability,conservative,no,9,0,1.38334126421,-,-
2019_Oct_28,23,001,1,source,42,SHUNNED,LF,target,right,yellow,pleasantness,conservative,no,9,1,1.23358655939,-,-
2019_Oct_28,23,001,1,source,43,DOUBT,HF,target,right,yellow,pleasantness,liberal,no,9,1,0.750225645169,-,-
2019_Oct_28,23,001,1,source,44,ADDED,HF,target,left,aqua,imageability,conservative,no,1,1,0.550242802267,-,-
2019_Oct_28,23,001,1,source,45,SENSE,HF,target,right,yellow,pleasantness,conservative,no,1,0,0.550091761147,-,-
2019_Oct_28,23,001,1,source,46,PLEASE,HF,target,left,aqua,imageability,liberal,no,1,1,0.716889916685,-,-
2019_Oct_28,23,001,1,source,47,QUALITY,HF,target,right,yellow,pleasantness,liberal,no,9,1,0.533580620398,-,-
2019_Oct_28,23,001,1,recog,0,ROOFED,LF,lure,-,-,-,liberal,no,z,0,2.0335417603,-1,117
2019_Oct_28,23,001,1,recog,1,WARDROBES,LF,lure,-,-,-,liberal,no,m,1,3.1001292648,1,118
2019_Oct_28,23,001,1,recog,2,GOUGED,LF,target,right,yellow,pleasantness,conservative,no,m,0,1.98353578465,-1,117
2019_Oct_28,23,001,1,recog,3,SODDING,LF,target,left,aqua,imageability,liberal,no,z,1,2.03365504114,3,120
2019_Oct_28,23,001,1,recog,4,TRADE,HF,target,right,yellow,pleasantness,conservative,no,z,1,1.06665532636,1,121
2019_Oct_28,23,001,1,recog,5,THWART,LF,lure,-,-,-,conservative,no,m,1,0.883594588035,3,124
2019_Oct_28,23,001,1,recog,6,ENROLMENT,LF,target,left,aqua,imageability,liberal,no,z,1,0.850009568382,3,127
2019_Oct_28,23,001,1,recog,7,NEITHER,HF,lure,-,-,-,conservative,no,z,0,0.80028624492,-3,124
2019_Oct_28,23,001,1,recog,8,MAYBE,HF,target,left,aqua,imageability,conservative,no,z,1,0.950255413468,1,125
2019_Oct_28,23,001,1,recog,9,BOILERS,LF,lure,-,-,-,conservative,no,m,1,0.900238073067,3,128
2019_Oct_28,23,001,1,recog,10,ROMANCES,LF,lure,-,-,-,liberal,no,m,1,1.63332348389,1,129
2019_Oct_28,23,001,1,recog,11,OVARIES,LF,lure,-,-,-,conservative,no,m,1,0.83357761424,3,132
2019_Oct_28,23,001,1,recog,12,PASSED,HF,target,right,yellow,pleasantness,liberal,no,z,1,0.850333280298,3,135
2019_Oct_28,23,001,1,recog,13,DROLL,LF,target,left,aqua,imageability,conservative,no,z,1,1.00018293573,1,136
2019_Oct_28,23,001,1,recog,14,VILLAGE,HF,target,right,yellow,pleasantness,conservative,no,z,1,0.750305564985,1,137
2019_Oct_28,23,001,1,recog,15,KNOWLEDGE,HF,target,right,yellow,pleasantness,liberal,no,z,1,0.766932552807,3,140
2019_Oct_28,23,001,1,recog,16,CHEEKBONE,LF,target,right,yellow,pleasantness,liberal,yes,z,1,1.06698783679,3,143
2019_Oct_28,23,001,1,recog,17,GUARDSMEN,LF,lure,-,-,-,conservative,no,m,1,1.33364616931,3,146
2019_Oct_28,23,001,1,recog,18,PESTERED,LF,target,left,aqua,imageability,conservative,no,z,1,1.00025442364,1,147
2019_Oct_28,23,001,1,recog,19,SEPULCHRE,LF,lure,-,-,-,conservative,no,m,1,0.833588245775,3,150
2019_Oct_28,23,001,1,recog,20,PAUNCH,LF,target,right,yellow,pleasantness,liberal,no,z,1,0.833598510706,3,153
2019_Oct_28,23,001,1,recog,21,PLACE,HF,lure,-,-,-,conservative,no,z,0,1.15027565004,-3,150
2019_Oct_28,23,001,1,recog,22,NEEDED,HF,lure,-,-,-,conservative,no,m,1,0.983489959065,3,153
2019_Oct_28,23,001,1,recog,23,THANK,HF,target,right,yellow,pleasantness,conservative,no,z,1,3.28360243338,1,154
2019_Oct_28,23,001,1,recog,24,JELLIES,LF,lure,-,-,-,liberal,no,m,1,0.833542420192,1,155
2019_Oct_28,23,001,1,recog,25,IDEAS,HF,target,right,yellow,pleasantness,liberal,no,m,0,1.5002518574,-3,152
2019_Oct_28,23,001,1,recog,26,RATHER,HF,target,right,yellow,pleasantness,conservative,no,z,1,1.64999189804,1,153
2019_Oct_28,23,001,1,recog,27,WHOLE,HF,target,left,aqua,imageability,liberal,no,z,1,0.950187591605,3,156
2019_Oct_28,23,001,1,recog,28,FRACTIONS,LF,lure,-,-,-,liberal,no,m,1,0.950310037562,1,157
2019_Oct_28,23,001,1,recog,29,SABLE,LF,lure,-,-,-,liberal,no,m,1,1.03351243193,1,158
2019_Oct_28,23,001,1,recog,30,FIXTURE,LF,target,right,yellow,pleasantness,liberal,no,z,1,0.766908723504,3,161
2019_Oct_28,23,001,1,recog,31,RIDDLES,LF,lure,-,-,-,liberal,no,z,0,0.616910226584,-1,160
2019_Oct_28,23,001,1,recog,32,EVENING,HF,lure,-,-,-,liberal,yes,m,1,0.883662043293,1,161
2019_Oct_28,23,001,1,recog,33,DOUBT,HF,target,right,yellow,pleasantness,liberal,no,z,1,2.36681399286,3,164
2019_Oct_28,23,001,1,recog,34,LIKELY,HF,lure,-,-,-,liberal,no,z,0,1.53356668942,-1,163
2019_Oct_28,23,001,1,recog,35,REPORT,HF,lure,-,-,-,liberal,no,m,1,0.850263258807,1,164
2019_Oct_28,23,001,1,recog,36,NOXIOUS,LF,target,right,yellow,pleasantness,conservative,no,z,1,1.06688078823,1,165
2019_Oct_28,23,001,1,recog,37,ASKED,HF,lure,-,-,-,liberal,no,m,1,0.85020680169,1,166
2019_Oct_28,23,001,1,recog,38,PRACTICE,HF,target,left,aqua,imageability,conservative,no,z,1,0.733532668508,1,167
2019_Oct_28,23,001,1,recog,39,LANGUAGE,HF,lure,-,-,-,liberal,no,m,1,1.23365878051,1,168
2019_Oct_28,23,001,1,recog,40,LATER,HF,target,left,aqua,imageability,liberal,no,z,1,0.76687609569,3,171
2019_Oct_28,23,001,1,recog,41,WOODCOCK,LF,target,right,yellow,pleasantness,conservative,no,z,1,1.21688405101,1,172
2019_Oct_28,23,001,1,recog,42,SYSTEM,HF,lure,-,-,-,conservative,no,m,1,0.866902711188,3,175
2019_Oct_28,23,001,1,recog,43,SHUNNED,LF,target,right,yellow,pleasantness,conservative,no,z,1,0.950199322955,1,176
2019_Oct_28,23,001,1,recog,44,FLICKS,LF,target,right,yellow,pleasantness,liberal,no,z,1,0.833366816559,3,179
2019_Oct_28,23,001,1,recog,45,FOLLOWED,HF,lure,-,-,-,liberal,no,z,0,0.63339203896,-1,178
2019_Oct_28,23,001,1,recog,46,BEYOND,HF,lure,-,-,-,liberal,no,m,1,0.766909090109,1,179
2019_Oct_28,23,001,1,recog,47,NOVAS,LF,lure,-,-,-,conservative,yes,m,1,0.900271067487,3,182
2019_Oct_28,23,001,1,recog,48,THEORY,HF,lure,-,-,-,conservative,no,z,0,1.86694120468,-3,179
2019_Oct_28,23,001,1,recog,49,SENSE,HF,target,right,yellow,pleasantness,conservative,no,m,0,1.26688232797,-1,178
2019_Oct_28,23,001,1,recog,50,BUILDING,HF,target,left,aqua,imageability,liberal,no,z,1,0.950040583136,3,181
2019_Oct_28,23,001,1,recog,51,SPRATS,LF,target,right,yellow,pleasantness,liberal,no,z,1,1.01699139286,3,184
2019_Oct_28,23,001,1,recog,52,OLDER,HF,lure,-,-,-,conservative,no,z,0,1.66695652875,-3,181
2019_Oct_28,23,001,1,recog,53,ARRIVED,HF,target,right,yellow,pleasantness,conservative,no,z,1,0.933405896616,1,182
2019_Oct_28,23,001,1,recog,54,POSITION,HF,lure,-,-,-,conservative,no,m,1,0.916855162564,3,185
2019_Oct_28,23,001,1,recog,55,PLEASE,HF,target,left,aqua,imageability,liberal,no,z,1,1.31688133814,3,188
2019_Oct_28,23,001,1,recog,56,NESTING,LF,target,left,aqua,imageability,conservative,no,z,1,1.23358362656,1,189
2019_Oct_28,23,001,1,recog,57,COFFINS,LF,lure,-,-,-,conservative,no,m,1,1.28350271691,3,192
2019_Oct_28,23,001,1,recog,58,JAUNDICE,LF,target,left,aqua,imageability,liberal,no,z,1,0.883564159848,3,195
2019_Oct_28,23,001,1,recog,59,BAIZE,LF,lure,-,-,-,conservative,no,m,1,0.783335545181,3,198
2019_Oct_28,23,001,1,recog,60,THING,HF,lure,-,-,-,liberal,no,m,1,0.883565259663,1,199
2019_Oct_28,23,001,1,recog,61,PAPER,HF,lure,-,-,-,conservative,no,m,1,0.750192284145,3,202
2019_Oct_28,23,001,1,recog,62,SCENARIOS,LF,lure,-,-,-,conservative,no,m,1,1.78351738109,3,205
2019_Oct_28,23,001,1,recog,63,SWEARS,LF,target,left,aqua,imageability,conservative,no,z,1,0.83337708149,1,206
2019_Oct_28,23,001,1,recog,64,ADDED,HF,target,left,aqua,imageability,conservative,no,z,1,0.850237963086,1,207
2019_Oct_28,23,001,1,recog,65,MIXER,LF,target,left,aqua,imageability,conservative,no,z,1,0.750296399869,1,208
2019_Oct_28,23,001,1,recog,66,AMONG,HF,lure,-,-,-,conservative,no,m,1,0.783634327981,3,211
2019_Oct_28,23,001,1,recog,67,MENFOLK,LF,target,left,aqua,imageability,liberal,no,z,1,1.0335259963,3,214
2019_Oct_28,23,001,1,recog,68,BLOOD,HF,lure,-,-,-,conservative,no,m,1,0.750072404421,3,217
2019_Oct_28,23,001,1,recog,69,SOVIET,HF,lure,-,-,-,liberal,no,m,1,0.850234297039,1,218
2019_Oct_28,23,001,1,recog,70,CEMENTED,LF,target,right,yellow,pleasantness,conservative,no,z,1,0.683479400851,1,219
2019_Oct_28,23,001,1,recog,71,GURGLE,LF,target,right,yellow,pleasantness,conservative,no,z,1,0.68352339341,1,220
2019_Oct_28,23,001,1,recog,72,CLASS,HF,target,left,aqua,imageability,conservative,no,z,1,3.0501742472,1,221
2019_Oct_28,23,001,1,recog,73,STAFF,HF,lure,-,-,-,liberal,no,m,1,1.93344658973,1,222
2019_Oct_28,23,001,1,recog,74,FURTHER,HF,lure,-,-,-,conservative,no,m,1,0.916895855681,3,225
2019_Oct_28,23,001,1,recog,75,AVAILABLE,HF,target,right,yellow,pleasantness,liberal,no,z,1,0.750297133078,3,228
2019_Oct_28,23,001,1,recog,76,JUTTED,LF,lure,-,-,-,conservative,no,m,1,1.01685061667,3,231
2019_Oct_28,23,001,1,recog,77,GENERAL,HF,target,left,aqua,imageability,conservative,no,z,1,0.933309112985,1,232
2019_Oct_28,23,001,1,recog,78,WRANGLING,LF,lure,-,-,-,liberal,no,z,0,0.883543629987,-1,231
2019_Oct_28,23,001,1,recog,79,HAWKED,LF,lure,-,-,-,liberal,no,m,1,0.850260692575,1,232
2019_Oct_28,23,001,1,recog,80,VENDETTA,LF,lure,-,-,-,liberal,no,m,1,1.44999585737,1,233
2019_Oct_28,23,001,1,recog,81,FECKLESS,LF,lure,-,-,-,conservative,no,z,0,1.23350150711,-3,230
2019_Oct_28,23,001,1,recog,82,INACTION,LF,target,left,aqua,imageability,conservative,no,z,1,1.55015188431,1,231
2019_Oct_28,23,001,1,recog,83,GIVEN,HF,target,left,aqua,imageability,liberal,no,z,1,1.5334860364,3,234
2019_Oct_28,23,001,1,recog,84,ANIMAL,HF,lure,-,-,-,liberal,no,m,1,0.983558147532,1,235
2019_Oct_28,23,001,1,recog,85,VELVETY,LF,target,right,yellow,pleasantness,liberal,no,z,1,0.86694926998,3,238
2019_Oct_28,23,001,1,recog,86,DOCTOR,HF,lure,-,-,-,conservative,no,m,1,0.800190194499,3,241
2019_Oct_28,23,001,1,recog,87,HOTEL,HF,lure,-,-,-,liberal,no,m,1,0.883677807294,1,242
2019_Oct_28,23,001,1,recog,88,ELICIT,LF,lure,-,-,-,liberal,no,m,1,0.600184255503,1,243
2019_Oct_28,23,001,1,recog,89,TOFFEE,LF,target,left,aqua,imageability,liberal,no,z,1,0.783365606764,3,246
2019_Oct_28,23,001,1,recog,90,MIMICKED,LF,lure,-,-,-,liberal,no,m,1,1.00027641991,1,247
2019_Oct_28,23,001,1,recog,91,HIGHER,HF,target,left,aqua,imageability,liberal,no,z,1,0.883576257802,3,250
2019_Oct_28,23,001,1,recog,92,HOLED,LF,target,left,aqua,imageability,liberal,yes,z,1,1.05017864645,3,253
2019_Oct_28,23,001,1,recog,93,QUALITY,HF,target,right,yellow,pleasantness,liberal,no,z,1,2.50023939284,3,256
2019_Oct_28,23,001,1,recog,94,ABETTED,LF,lure,-,-,-,conservative,no,m,1,0.766867663782,3,259
2019_Oct_28,23,001,1,recog,95,MATERIAL,HF,target,left,aqua,imageability,conservative,no,z,1,0.933636124344,1,260
2019_Oct_28,23,001,2,source,0,GODMOTHER,LF,target,right,yellow,pleasantness,liberal,no,9,1,5.53332692997,-,-
2019_Oct_28,23,001,2,source,1,TABLE,HF,target,left,aqua,imageability,conservative,no,1,1,3.38349963743,-,-
2019_Oct_28,23,001,2,source,2,TELEPHONE,HF,target,right,yellow,pleasantness,liberal,no,1,0,1.73355026553,-,-
2019_Oct_28,23,001,2,source,3,DOTTY,LF,target,left,aqua,imageability,liberal,yes,1,1,0.81675742576,-,-
2019_Oct_28,23,001,2,source,4,UNION,HF,target,right,yellow,pleasantness,liberal,no,9,1,1.13337737477,-,-
2019_Oct_28,23,001,2,source,5,VEHEMENCE,LF,target,right,yellow,pleasantness,conservative,no,9,1,0.800237119895,-,-
2019_Oct_28,23,001,2,source,6,TOLERABLY,LF,target,left,aqua,imageability,liberal,no,1,1,0.933655920996,-,-
2019_Oct_28,23,001,2,source,7,WALKED,HF,target,right,yellow,pleasantness,conservative,yes,9,1,0.500212264099,-,-
2019_Oct_28,23,001,2,source,8,FREEDOM,HF,target,right,yellow,pleasantness,liberal,no,9,1,0.850262525598,-,-
2019_Oct_28,23,001,2,source,9,ROUND,HF,target,left,aqua,imageability,liberal,no,1,1,0.716813662916,-,-
2019_Oct_28,23,001,2,source,10,LEMURS,LF,target,left,aqua,imageability,liberal,no,9,0,0.43370431281,-,-
2019_Oct_28,23,001,2,source,11,CRICKETER,LF,target,left,aqua,imageability,conservative,no,9,0,0.516885810714,-,-
2019_Oct_28,23,001,2,source,12,PUNCTUAL,LF,target,left,aqua,imageability,conservative,no,1,1,0.950073210951,-,-
2019_Oct_28,23,001,2,source,13,NUMBER,HF,target,left,aqua,imageability,conservative,no,1,1,1.18351056225,-,-
2019_Oct_28,23,001,2,source,14,AGILITY,LF,target,right,yellow,pleasantness,liberal,no,1,0,0.833619773775,-,-
2019_Oct_28,23,001,2,source,15,UNTIL,HF,target,right,yellow,pleasantness,liberal,no,1,0,0.866833789511,-,-
2019_Oct_28,23,001,2,source,16,ACORNS,LF,target,left,aqua,imageability,conservative,no,9,0,0.8335823801,-,-
2019_Oct_28,23,001,2,source,17,VARIOUS,HF,target,left,aqua,imageability,conservative,no,9,0,0.633537214406,-,-
2019_Oct_28,23,001,2,source,18,GESTURING,LF,target,right,yellow,pleasantness,conservative,no,9,1,0.98352258688,-,-
2019_Oct_28,23,001,2,source,19,SPEAK,HF,target,right,yellow,pleasantness,conservative,no,1,0,0.600356193089,-,-
2019_Oct_28,23,001,2,source,20,APART,HF,target,left,aqua,imageability,liberal,no,1,1,0.433590298761,-,-
2019_Oct_28,23,001,2,source,21,MAJOR,HF,target,right,yellow,pleasantness,conservative,no,9,1,1.35013494718,-,-
2019_Oct_28,23,001,2,source,22,CHLORIDE,LF,target,left,aqua,imageability,conservative,no,1,1,0.516870046713,-,-
2019_Oct_28,23,001,2,source,23,SHIELDING,LF,target,left,aqua,imageability,conservative,no,1,1,1.28350271691,-,-
2019_Oct_28,23,001,2,source,24,DESERTER,LF,target,left,aqua,imageability,liberal,no,1,1,0.616868800257,-,-
2019_Oct_28,23,001,2,source,25,GETTING,HF,target,left,aqua,imageability,liberal,no,1,1,0.600048978383,-,-
2019_Oct_28,23,001,2,source,26,COERCION,LF,target,left,aqua,imageability,liberal,no,9,0,1.16689163973,-,-
2019_Oct_28,23,001,2,source,27,AXLES,LF,target,left,aqua,imageability,conservative,no,1,1,0.850371407183,-,-
2019_Oct_28,23,001,2,source,28,AROUND,HF,target,left,aqua,imageability,liberal,no,1,1,0.533620213701,-,-
2019_Oct_28,23,001,2,source,29,HIKING,LF,target,right,yellow,pleasantness,liberal,no,9,1,0.933597630854,-,-
2019_Oct_28,23,001,2,source,30,TINGLING,LF,target,right,yellow,pleasantness,conservative,no,9,1,0.650019393387,-,-
2019_Oct_28,23,001,2,source,31,TEXTURES,LF,target,right,yellow,pleasantness,conservative,no,9,1,0.833574314798,-,-
2019_Oct_28,23,001,2,source,32,HEMMED,LF,target,right,yellow,pleasantness,liberal,no,9,1,0.983517454414,-,-
2019_Oct_28,23,001,2,source,33,PIPELINES,LF,target,right,yellow,pleasantness,conservative,no,9,1,1.21694050813,-,-
2019_Oct_28,23,001,2,source,34,PALATABLE,LF,target,right,yellow,pleasantness,liberal,no,9,1,1.18329646512,-,-
2019_Oct_28,23,001,2,source,35,ALTHOUGH,HF,target,left,aqua,imageability,conservative,no,1,1,0.85020680169,-,-
2019_Oct_28,23,001,2,source,36,SIGNPOST,LF,target,left,aqua,imageability,liberal,no,9,0,1.05022593845,-,-
2019_Oct_28,23,001,2,source,37,LEVEL,HF,target,left,aqua,imageability,conservative,no,1,1,1.40016071948,-,-
2019_Oct_28,23,001,2,source,38,FLOOR,HF,target,left,aqua,imageability,liberal,yes,1,1,0.600043479313,-,-
2019_Oct_28,23,001,2,source,39,LETTER,HF,target,right,yellow,pleasantness,conservative,no,1,0,0.816874739253,-,-
2019_Oct_28,23,001,2,source,40,WESTERN,HF,target,right,yellow,pleasantness,liberal,no,9,1,1.18360184681,-,-
2019_Oct_28,23,001,2,source,41,EMULATION,LF,target,right,yellow,pleasantness,liberal,no,1,0,1.10017985625,-,-
2019_Oct_28,23,001,2,source,42,TUSKS,LF,target,right,yellow,pleasantness,conservative,no,9,1,0.816697669201,-,-
2019_Oct_28,23,001,2,source,43,SUBJECT,HF,target,right,yellow,pleasantness,conservative,yes,9,1,0.533571821886,-,-
2019_Oct_28,23,001,2,source,44,TIMES,HF,target,left,aqua,imageability,liberal,no,9,0,1.1169032611,-,-
2019_Oct_28,23,001,2,source,45,WHITE,HF,target,right,yellow,pleasantness,liberal,no,9,1,1.03360151686,-,-
2019_Oct_28,23,001,2,source,46,SUMMER,HF,target,right,yellow,pleasantness,conservative,no,9,1,1.45029903942,-,-
2019_Oct_28,23,001,2,source,47,AHEAD,HF,target,left,aqua,imageability,conservative,no,1,1,0.733412788783,-,-
2019_Oct_28,23,001,2,recog,0,ROUND,HF,target,left,aqua,imageability,liberal,no,z,1,3.05020797482,3,263
2019_Oct_28,23,001,2,recog,1,KNUCKLE,LF,lure,-,-,-,conservative,no,m,1,1.16683151656,3,266
2019_Oct_28,23,001,2,recog,2,AUDACIOUS,LF,lure,-,-,-,liberal,no,m,1,0.900297096417,1,267
2019_Oct_28,23,001,2,recog,3,TESTIFIES,LF,lure,-,-,-,liberal,no,m,1,0.866964667376,1,268
2019_Oct_28,23,001,2,recog,4,SIGNPOST,LF,target,left,aqua,imageability,liberal,no,z,1,1.61685706891,3,271
2019_Oct_28,23,001,2,recog,5,FOUND,HF,lure,-,-,-,conservative,no,m,1,1.10032613151,3,274
2019_Oct_28,23,001,2,recog,6,WHITE,HF,target,right,yellow,pleasantness,liberal,no,z,1,1.05027176404,3,277
2019_Oct_28,23,001,2,recog,7,AROUND,HF,target,left,aqua,imageability,liberal,no,z,1,0.983549715625,3,280
2019_Oct_28,23,001,2,recog,8,TELEPHONE,HF,target,right,yellow,pleasantness,liberal,no,z,1,0.950184292163,3,283
2019_Oct_28,23,001,2,recog,9,LEVEL,HF,target,left,aqua,imageability,conservative,no,z,1,0.783570905374,1,284
2019_Oct_28,23,001,2,recog,10,HUBBUB,LF,lure,-,-,-,conservative,no,m,1,0.883601186919,3,287
2019_Oct_28,23,001,2,recog,11,SUBJECT,HF,target,right,yellow,pleasantness,conservative,no,m,0,0.883619883757,-1,286
2019_Oct_28,23,001,2,recog,12,SONAR,LF,lure,-,-,-,liberal,no,m,1,0.833572481774,1,287
2019_Oct_28,23,001,2,recog,13,GODMOTHER,LF,target,right,yellow,pleasantness,liberal,no,z,1,0.700188141512,3,290
2019_Oct_28,23,001,2,recog,14,MESSED,LF,lure,-,-,-,conservative,no,m,1,2.51683815211,3,293
2019_Oct_28,23,001,2,recog,15,SKIDDED,LF,lure,-,-,-,liberal,no,z,0,0.750051507955,-1,292
2019_Oct_28,23,001,2,recog,16,NIGHT,HF,lure,-,-,-,liberal,no,m,1,0.86694450412,1,293
2019_Oct_28,23,001,2,recog,17,LEMURS,LF,target,left,aqua,imageability,liberal,no,z,1,1.33354461982,3,296
2019_Oct_28,23,001,2,recog,18,AGILITY,LF,target,right,yellow,pleasantness,liberal,no,z,1,0.716933176036,3,299
2019_Oct_28,23,001,2,recog,19,SUMMER,HF,target,right,yellow,pleasantness,conservative,no,z,1,0.616901794676,1,300
2019_Oct_28,23,001,2,recog,20,DOTTY,LF,target,left,aqua,imageability,liberal,no,z,1,0.666856812285,3,303
2019_Oct_28,23,001,2,recog,21,DESERTER,LF,target,left,aqua,imageability,liberal,yes,z,1,0.800194227149,3,306
2019_Oct_28,23,001,2,recog,22,WESTERN,HF,target,right,yellow,pleasantness,liberal,no,z,1,0.800179196358,3,309
2019_Oct_28,23,001,2,recog,23,AXLES,LF,target,left,aqua,imageability,conservative,no,z,1,1.08367458117,1,310
2019_Oct_28,23,001,2,recog,24,LETTER,HF,target,right,yellow,pleasantness,conservative,no,z,1,0.749984785907,1,311
2019_Oct_28,23,001,2,recog,25,VARIOUS,HF,target,left,aqua,imageability,conservative,no,m,0,0.800219889476,-1,310
2019_Oct_28,23,001,2,recog,26,HEALTH,HF,lure,-,-,-,liberal,no,z,0,0.683551988574,-1,309
2019_Oct_28,23,001,2,recog,27,ARBITER,LF,lure,-,-,-,conservative,no,z,0,1.18351716113,-3,306
2019_Oct_28,23,001,2,recog,28,FREEDOM,HF,target,right,yellow,pleasantness,liberal,no,z,1,1.61688419765,3,309
2019_Oct_28,23,001,2,recog,29,MIDDLE,HF,lure,-,-,-,conservative,no,m,1,1.01688361109,3,312
2019_Oct_28,23,001,2,recog,30,SHIELDING,LF,target,left,aqua,imageability,conservative,no,z,1,0.883478374358,1,313
2019_Oct_28,23,001,2,recog,31,EMULATION,LF,target,right,yellow,pleasantness,liberal,no,z,1,0.800241519151,3,316
2019_Oct_28,23,001,2,recog,32,ULCER,LF,lure,-,-,-,conservative,no,m,1,0.833614274706,3,319
2019_Oct_28,23,001,2,recog,33,DRAFTING,LF,lure,-,-,-,liberal,no,m,1,1.01688911016,1,320
2019_Oct_28,23,001,2,recog,34,GETTING,HF,target,left,aqua,imageability,liberal,no,z,1,0.700241299188,3,323
2019_Oct_28,23,001,2,recog,35,HEMMED,LF,target,right,yellow,pleasantness,liberal,no,z,1,0.783521780349,3,326
2019_Oct_28,23,001,2,recog,36,PUNCTUAL,LF,target,left,aqua,imageability,conservative,no,z,1,0.700252297328,1,327
2019_Oct_28,23,001,2,recog,37,AHEAD,HF,target,left,aqua,imageability,conservative,no,z,1,0.583539670657,1,328
2019_Oct_28,23,001,2,recog,38,ENOUGH,HF,lure,-,-,-,conservative,no,z,0,0.516914405877,-3,325
2019_Oct_28,23,001,2,recog,39,INDEED,HF,lure,-,-,-,liberal,no,z,0,1.18359634774,-1,324
2019_Oct_28,23,001,2,recog,40,PONCE,LF,lure,-,-,-,liberal,no,m,1,1.18356811918,1,325
2019_Oct_28,23,001,2,recog,41,PIPELINES,LF,target,right,yellow,pleasantness,conservative,no,z,1,0.866717942439,1,326
2019_Oct_28,23,001,2,recog,42,ALLOWED,HF,lure,-,-,-,conservative,no,z,0,0.783594001468,-3,323
2019_Oct_28,23,001,2,recog,43,TINGLING,LF,target,right,yellow,pleasantness,conservative,no,m,0,2.31681828213,-1,322
2019_Oct_28,23,001,2,recog,44,WATCH,HF,lure,-,-,-,liberal,no,z,0,1.31671819906,-1,321
2019_Oct_28,23,001,2,recog,45,IDIOCY,LF,lure,-,-,-,liberal,no,m,1,1.78363322817,1,322
2019_Oct_28,23,001,2,recog,46,APART,HF,target,left,aqua,imageability,liberal,no,z,1,1.66680805386,3,325
2019_Oct_28,23,001,2,recog,47,GABLE,LF,lure,-,-,-,liberal,no,m,1,0.88366570934,1,326
2019_Oct_28,23,001,2,recog,48,PILGRIM,LF,lure,-,-,-,conservative,no,m,1,0.850218166434,3,329
2019_Oct_28,23,001,2,recog,49,HAIRDO,LF,lure,-,-,-,liberal,no,m,1,1.28363286156,1,330
2019_Oct_28,23,001,2,recog,50,FLOOR,HF,target,left,aqua,imageability,liberal,yes,m,0,0.600353260252,-3,327
2019_Oct_28,23,001,2,recog,51,VEHEMENCE,LF,target,right,yellow,pleasantness,conservative,no,z,1,0.933610462017,1,328
2019_Oct_28,23,001,2,recog,52,CHLORIDE,LF,target,left,aqua,imageability,conservative,no,z,1,0.883628682269,1,329
2019_Oct_28,23,001,2,recog,53,LIGHT,HF,lure,-,-,-,conservative,no,m,1,0.733507739391,3,332
2019_Oct_28,23,001,2,recog,54,ALTHOUGH,HF,target,left,aqua,imageability,conservative,no,z,1,0.766885994016,1,333
2019_Oct_28,23,001,2,recog,55,POPES,LF,lure,-,-,-,conservative,yes,z,0,0.566914515858,-3,330
2019_Oct_28,23,001,2,recog,56,MAJOR,HF,target,right,yellow,pleasantness,conservative,no,z,1,0.983670695163,1,331
2019_Oct_28,23,001,2,recog,57,PALATABLE,LF,target,right,yellow,pleasantness,liberal,no,z,1,0.800301642316,3,334
2019_Oct_28,23,001,2,recog,58,OMELETTE,LF,lure,-,-,-,conservative,no,m,1,0.816904067625,3,337
2019_Oct_28,23,001,2,recog,59,FORCE,HF,lure,-,-,-,conservative,no,m,1,0.983512321949,3,340
2019_Oct_28,23,001,2,recog,60,SEABED,LF,lure,-,-,-,liberal,no,m,1,0.900182349159,1,341
2019_Oct_28,23,001,2,recog,61,TOLERABLY,LF,target,left,aqua,imageability,liberal,no,m,0,1.15018949795,-3,338
2019_Oct_28,23,001,2,recog,62,TEXTURES,LF,target,right,yellow,pleasantness,conservative,no,z,1,0.866844787652,1,339
2019_Oct_28,23,001,2,recog,63,BREAK,HF,lure,-,-,-,liberal,no,m,1,1.70017787658,1,340
2019_Oct_28,23,001,2,recog,64,TUSKS,LF,target,right,yellow,pleasantness,conservative,no,z,1,0.933617060901,1,341
2019_Oct_28,23,001,2,recog,65,MILES,HF,lure,-,-,-,conservative,no,m,1,0.716701848494,3,344
2019_Oct_28,23,001,2,recog,66,PEWTER,LF,lure,-,-,-,conservative,no,m,1,2.1168640344,3,347
2019_Oct_28,23,001,2,recog,67,GOVERNS,LF,lure,-,-,-,conservative,no,m,1,0.800227588174,3,350
2019_Oct_28,23,001,2,recog,68,CLEAR,HF,lure,-,-,-,liberal,no,m,1,0.86688401435,1,351
2019_Oct_28,23,001,2,recog,69,TABLE,HF,target,left,aqua,imageability,conservative,no,z,1,1.0002041988,1,352
2019_Oct_28,23,001,2,recog,70,UNION,HF,target,right,yellow,pleasantness,liberal,no,z,1,0.850190671084,3,355
2019_Oct_28,23,001,2,recog,71,CRICKETER,LF,target,left,aqua,imageability,conservative,no,z,1,0.716943440966,1,356
2019_Oct_28,23,001,2,recog,72,UNTIL,HF,target,right,yellow,pleasantness,liberal,no,z,1,0.683693497973,3,359
2019_Oct_28,23,001,2,recog,73,ANYONE,HF,lure,-,-,-,liberal,no,z,0,0.766855932433,-1,358
2019_Oct_28,23,001,2,recog,74,WALKED,HF,target,right,yellow,pleasantness,conservative,no,z,1,1.21688221799,1,359
2019_Oct_28,23,001,2,recog,75,COERCION,LF,target,left,aqua,imageability,liberal,no,z,1,0.933520643875,3,362
2019_Oct_28,23,001,2,recog,76,SEEMED,HF,lure,-,-,-,liberal,yes,z,0,0.533614348026,-1,361
2019_Oct_28,23,001,2,recog,77,HIKING,LF,target,right,yellow,pleasantness,liberal,no,z,1,0.733398857807,3,364
2019_Oct_28,23,001,2,recog,78,NUCLEAR,HF,lure,-,-,-,liberal,no,m,1,0.750188984703,1,365
2019_Oct_28,23,001,2,recog,79,SPEAK,HF,target,right,yellow,pleasantness,conservative,no,z,1,0.766905790667,1,366
2019_Oct_28,23,001,2,recog,80,TIMES,HF,target,left,aqua,imageability,liberal,no,z,1,0.666919868287,3,369
2019_Oct_28,23,001,2,recog,81,TALKING,HF,lure,-,-,-,liberal,no,m,1,0.800213657197,1,370
2019_Oct_28,23,001,2,recog,82,LAGER,LF,lure,-,-,-,liberal,no,m,1,0.950225351886,1,371
2019_Oct_28,23,001,2,recog,83,QUESTION,HF,lure,-,-,-,conservative,no,m,1,0.716864987568,3,374
2019_Oct_28,23,001,2,recog,84,WISPY,LF,lure,-,-,-,conservative,no,m,1,0.800280379245,3,377
2019_Oct_28,23,001,2,recog,85,BEHIND,HF,lure,-,-,-,liberal,no,z,0,0.616965217283,-1,376
2019_Oct_28,23,001,2,recog,86,TWENTY,HF,lure,-,-,-,conservative,no,m,1,0.883473975102,3,379
2019_Oct_28,23,001,2,recog,87,ACORNS,LF,target,left,aqua,imageability,conservative,no,z,1,0.816902967812,1,380
2019_Oct_28,23,001,2,recog,88,TURNED,HF,lure,-,-,-,liberal,no,z,0,0.833546819448,-1,379
2019_Oct_28,23,001,2,recog,89,ENERGY,HF,lure,-,-,-,conservative,no,m,1,0.783574938026,3,382
2019_Oct_28,23,001,2,recog,90,ANVIL,LF,lure,-,-,-,liberal,no,m,1,1.450202989,1,383
2019_Oct_28,23,001,2,recog,91,FINAL,HF,lure,-,-,-,conservative,no,m,1,0.716841891475,3,386
2019_Oct_28,23,001,2,recog,92,GESTURING,LF,target,right,yellow,pleasantness,conservative,no,z,1,0.800136303613,1,387
2019_Oct_28,23,001,2,recog,93,DIVAN,LF,lure,-,-,-,conservative,no,m,1,0.70028859119,3,390
2019_Oct_28,23,001,2,recog,94,NUMBER,HF,target,left,aqua,imageability,conservative,no,z,1,0.833568449123,1,391
2019_Oct_28,23,001,2,recog,95,HANDS,HF,lure,-,-,-,conservative,no,z,0,0.716896148965,-3,388
2019_Oct_28,23,001,3,source,0,DECIDED,HF,target,right,yellow,pleasantness,conservative,no,1,0,5.18334412373,-,-
2019_Oct_28,23,001,3,source,1,STRAIGHT,HF,target,left,aqua,imageability,liberal,no,9,0,2.01688874355,-,-
2019_Oct_28,23,001,3,source,2,PIVOT,LF,target,left,aqua,imageability,conservative,no,1,1,1.60003908006,-,-
2019_Oct_28,23,001,3,source,3,GROUND,HF,target,left,aqua,imageability,liberal,no,1,1,0.81695245944,-,-
2019_Oct_28,23,001,3,source,4,EXPECT,HF,target,left,aqua,imageability,liberal,no,1,1,0.700242032397,-,-
2019_Oct_28,23,001,3,source,5,CHOICE,HF,target,right,yellow,pleasantness,liberal,no,1,0,0.766895159132,-,-
2019_Oct_28,23,001,3,source,6,DOSSIERS,LF,target,left,aqua,imageability,conservative,no,1,1,1.15017373395,-,-
2019_Oct_28,23,001,3,source,7,CESSATION,LF,target,right,yellow,pleasantness,conservative,no,9,1,1.15000692883,-,-
2019_Oct_28,23,001,3,source,8,UNLESS,HF,target,right,yellow,pleasantness,liberal,no,9,1,0.900275466743,-,-
2019_Oct_28,23,001,3,source,9,COHESIVE,LF,target,left,aqua,imageability,liberal,no,9,0,0.816654776455,-,-
2019_Oct_28,23,001,3,source,10,SWIFTNESS,LF,target,left,aqua,imageability,liberal,no,1,1,0.650088681668,-,-
2019_Oct_28,23,001,3,source,11,EXUDED,LF,target,left,aqua,imageability,liberal,no,1,1,0.566921114742,-,-
2019_Oct_28,23,001,3,source,12,PHYSICAL,HF,target,right,yellow,pleasantness,conservative,no,1,0,0.566922214556,-,-
2019_Oct_28,23,001,3,source,13,SIMILAR,HF,target,left,aqua,imageability,conservative,no,9,0,0.76700037467,-,-
2019_Oct_28,23,001,3,source,14,BEGAN,HF,target,right,yellow,pleasantness,liberal,no,9,1,0.700303255376,-,-
2019_Oct_28,23,001,3,source,15,SPICED,LF,target,right,yellow,pleasantness,liberal,no,1,0,0.76665906573,-,-
2019_Oct_28,23,001,3,source,16,DEVELOPED,HF,target,right,yellow,pleasantness,liberal,no,1,0,0.633393505379,-,-
2019_Oct_28,23,001,3,source,17,MEETING,HF,target,left,aqua,imageability,conservative,no,1,1,0.933520643875,-,-
2019_Oct_28,23,001,3,source,18,SUPPORT,HF,target,right,yellow,pleasantness,conservative,no,9,1,0.666877342145,-,-
2019_Oct_28,23,001,3,source,19,LONGER,HF,target,left,aqua,imageability,conservative,no,9,0,0.533585386258,-,-
2019_Oct_28,23,001,3,source,20,ERSTWHILE,LF,target,right,yellow,pleasantness,liberal,no,9,1,0.700217469886,-,-
2019_Oct_28,23,001,3,source,21,ACTION,HF,target,left,aqua,imageability,liberal,no,1,1,0.666897138798,-,-
2019_Oct_28,23,001,3,source,22,PRIVATE,HF,target,right,yellow,pleasantness,liberal,yes,1,0,0.583542603495,-,-
2019_Oct_28,23,001,3,source,23,SHRED,LF,target,right,yellow,pleasantness,conservative,no,1,0,0.633409635984,-,-
2019_Oct_28,23,001,3,source,24,BLUECOATS,LF,target,right,yellow,pleasantness,conservative,no,9,1,0.666710537025,-,-
2019_Oct_28,23,001,3,source,25,EASILY,HF,target,right,yellow,pleasantness,conservative,no,9,1,0.583603093264,-,-
2019_Oct_28,23,001,3,source,26,EMBATTLED,LF,target,left,aqua,imageability,conservative,no,9,0,0.733376494922,-,-
2019_Oct_28,23,001,3,source,27,ENTIRELY,HF,target,left,aqua,imageability,liberal,no,1,1,0.616868067048,-,-
2019_Oct_28,23,001,3,source,28,MOLARS,LF,target,left,aqua,imageability,liberal,yes,9,0,0.516931636296,-,-
2019_Oct_28,23,001,3,source,29,SURER,LF,target,right,yellow,pleasantness,liberal,no,9,1,0.816937795254,-,-
2019_Oct_28,23,001,3,source,30,NATIONAL,HF,target,right,yellow,pleasantness,conservative,no,9,1,0.566894719206,-,-
2019_Oct_28,23,001,3,source,31,WAFER,LF,target,left,aqua,imageability,conservative,no,1,1,0.683580217133,-,-
2019_Oct_28,23,001,3,source,32,DETACH,LF,target,right,yellow,pleasantness,conservative,no,1,0,0.6669209681,-,-
2019_Oct_28,23,001,3,source,33,HORDE,LF,target,right,yellow,pleasantness,liberal,no,9,1,0.533564123188,-,-
2019_Oct_28,23,001,3,source,34,CALLED,HF,target,left,aqua,imageability,liberal,no,9,0,0.900282065626,-,-
2019_Oct_28,23,001,3,source,35,RASCAL,LF,target,right,yellow,pleasantness,liberal,no,9,1,0.883471408869,-,-
2019_Oct_28,23,001,3,source,36,JOSTLED,LF,target,right,yellow,pleasantness,conservative,no,9,1,1.01689570904,-,-
2019_Oct_28,23,001,3,source,37,JOBLESS,LF,target,left,aqua,imageability,conservative,no,9,0,0.483603973115,-,-
2019_Oct_28,23,001,3,source,38,FRIEND,HF,target,left,aqua,imageability,conservative,no,1,1,0.816950626418,-,-
2019_Oct_28,23,001,3,source,39,CAPITAL,HF,target,right,yellow,pleasantness,liberal,no,1,0,0.566724981248,-,-
2019_Oct_28,23,001,3,source,40,SICKENED,LF,target,left,aqua,imageability,liberal,no,1,1,0.750210980983,-,-
2019_Oct_28,23,001,3,source,41,RAMBLE,LF,target,left,aqua,imageability,liberal,no,1,1,0.483578677393,-,-
2019_Oct_28,23,001,3,source,42,DIGESTING,LF,target,right,yellow,pleasantness,conservative,no,9,1,0.333686862429,-,-
2019_Oct_28,23,001,3,source,43,TRYING,HF,target,left,aqua,imageability,conservative,no,9,0,0.383630881897,-,-
2019_Oct_28,23,001,3,source,44,LOITERING,LF,target,left,aqua,imageability,conservative,no,9,0,0.500210431076,-,-
2019_Oct_28,23,001,3,source,45,SPOKE,HF,target,left,aqua,imageability,conservative,no,9,0,0.317021014513,-,-
2019_Oct_28,23,001,3,source,46,CUTLER,LF,target,right,yellow,pleasantness,liberal,yes,9,1,0.466869203522,-,-
2019_Oct_28,23,001,3,source,47,STOOD,HF,target,right,yellow,pleasantness,conservative,yes,9,1,0.466906963802,-,-
2019_Oct_28,23,001,3,recog,0,ENTIRELY,HF,target,left,aqua,imageability,liberal,no,m,0,1.93354520639,-3,385
2019_Oct_28,23,001,3,recog,1,SOUND,HF,lure,-,-,-,conservative,no,z,0,1.86682315798,-3,382
2019_Oct_28,23,001,3,recog,2,OFFER,HF,lure,-,-,-,conservative,no,z,0,2.55009469398,-3,379
2019_Oct_28,23,001,3,recog,3,EXCEPT,HF,lure,-,-,-,liberal,yes,z,0,0.750287234752,-1,378
2019_Oct_28,23,001,3,recog,4,SPICED,LF,target,right,yellow,pleasantness,liberal,no,m,0,1.15006228613,-3,375
2019_Oct_28,23,001,3,recog,5,WOMAN,HF,lure,-,-,-,liberal,no,z,0,1.10024621169,-1,374
2019_Oct_28,23,001,3,recog,6,SICKENED,LF,target,left,aqua,imageability,liberal,no,z,1,1.13350458659,3,377
2019_Oct_28,23,001,3,recog,7,EASILY,HF,target,right,yellow,pleasantness,conservative,no,z,1,0.833568082518,1,378
2019_Oct_28,23,001,3,recog,8,NATIONAL,HF,target,right,yellow,pleasantness,conservative,no,z,1,0.683576551086,1,379
2019_Oct_28,23,001,3,recog,9,STRAIGHT,HF,target,left,aqua,imageability,liberal,no,z,1,0.583582196798,3,382
2019_Oct_28,23,001,3,recog,10,EXUDED,LF,target,left,aqua,imageability,liberal,no,z,1,0.850278289598,3,385
2019_Oct_28,23,001,3,recog,11,MIGHTILY,LF,lure,-,-,-,liberal,no,m,1,0.916871659773,1,386
2019_Oct_28,23,001,3,recog,12,ALONE,HF,lure,-,-,-,conservative,no,m,1,0.933492781921,3,389
2019_Oct_28,23,001,3,recog,13,DIFFERENT,HF,lure,-,-,-,conservative,no,m,1,2.01684035174,3,392
2019_Oct_28,23,001,3,recog,14,NECESSARY,HF,lure,-,-,-,conservative,no,m,1,0.66686671061,3,395
2019_Oct_28,23,001,3,recog,15,TERMS,HF,lure,-,-,-,conservative,no,m,1,0.666870743262,3,398
2019_Oct_28,23,001,3,recog,16,FRIEND,HF,target,left,aqua,imageability,conservative,no,z,1,0.666864877587,1,399
2019_Oct_28,23,001,3,recog,17,PORCHES,LF,lure,-,-,-,conservative,no,m,1,0.783648992167,3,402
2019_Oct_28,23,001,3,recog,18,EXPECT,HF,target,left,aqua,imageability,liberal,no,z,1,0.666957261962,3,405
2019_Oct_28,23,001,3,recog,19,SUGARY,LF,lure,-,-,-,liberal,no,m,1,0.7167495071,1,406
2019_Oct_28,23,001,3,recog,20,MINISTER,HF,lure,-,-,-,conservative,no,m,1,1.03365724077,3,409
2019_Oct_28,23,001,3,recog,21,DETACH,LF,target,right,yellow,pleasantness,conservative,no,m,0,0.700311687283,-1,408
2019_Oct_28,23,001,3,recog,22,BLACK,HF,lure,-,-,-,liberal,no,m,1,0.917011702754,1,409
2019_Oct_28,23,001,3,recog,23,AIRBED,LF,lure,-,-,-,conservative,no,z,0,1.05022740487,-3,406
2019_Oct_28,23,001,3,recog,24,RASCAL,LF,target,right,yellow,pleasantness,liberal,no,z,1,0.966874335987,3,409
2019_Oct_28,23,001,3,recog,25,BEGAN,HF,target,right,yellow,pleasantness,liberal,no,z,1,0.70024459863,3,412
2019_Oct_28,23,001,3,recog,26,UNLESS,HF,target,right,yellow,pleasantness,liberal,no,z,1,0.700207938164,3,415
2019_Oct_28,23,001,3,recog,27,AIDING,LF,lure,-,-,-,liberal,no,m,1,0.816872906229,1,416
2019_Oct_28,23,001,3,recog,28,FENCED,LF,lure,-,-,-,liberal,no,z,0,0.983619003906,-1,415
2019_Oct_28,23,001,3,recog,29,DEVELOPED,HF,target,right,yellow,pleasantness,liberal,no,z,1,0.850235763458,3,418
2019_Oct_28,23,001,3,recog,30,HORDE,LF,target,right,yellow,pleasantness,liberal,no,z,1,0.883598254082,3,421
2019_Oct_28,23,001,3,recog,31,BLUECOATS,LF,target,right,yellow,pleasantness,conservative,yes,z,1,0.66686671061,1,422
2019_Oct_28,23,001,3,recog,32,EVOCATION,LF,lure,-,-,-,liberal,no,m,1,0.883579923849,1,423
2019_Oct_28,23,001,3,recog,33,LONGER,HF,target,left,aqua,imageability,conservative,no,z,1,0.650215160276,1,424
2019_Oct_28,23,001,3,recog,34,CAPITAL,HF,target,right,yellow,pleasantness,liberal,no,z,1,0.900182715763,3,427
2019_Oct_28,23,001,3,recog,35,BUZZARD,LF,lure,-,-,-,liberal,no,m,1,0.750334160149,1,428
2019_Oct_28,23,001,3,recog,36,WAXEN,LF,lure,-,-,-,conservative,no,m,1,0.716665921237,3,431
2019_Oct_28,23,001,3,recog,37,EFFECT,HF,lure,-,-,-,liberal,no,z,0,0.666749763723,-1,430
2019_Oct_28,23,001,3,recog,38,YANKED,LF,lure,-,-,-,liberal,no,m,1,0.617012875889,1,431
2019_Oct_28,23,001,3,recog,39,SWIFTNESS,LF,target,left,aqua,imageability,liberal,no,z,1,0.816974822325,3,434
2019_Oct_28,23,001,3,recog,40,SOMEONE,HF,lure,-,-,-,liberal,no,m,1,0.716907147105,1,435
2019_Oct_28,23,001,3,recog,41,HISTORY,HF,lure,-,-,-,conservative,no,z,0,0.8503255816,-3,432
2019_Oct_28,23,001,3,recog,42,WAFER,LF,target,left,aqua,imageability,conservative,no,z,1,0.81694219451,1,433
2019_Oct_28,23,001,3,recog,43,PIVOT,LF,target,left,aqua,imageability,conservative,no,z,1,0.700194740396,1,434
2019_Oct_28,23,001,3,recog,44,DIGESTING,LF,target,right,yellow,pleasantness,conservative,yes,z,1,0.50032004587,1,435
2019_Oct_28,23,001,3,recog,45,BOASTS,LF,lure,-,-,-,conservative,no,m,1,1.03356229016,3,438
2019_Oct_28,23,001,3,recog,46,HAPPEN,HF,lure,-,-,-,liberal,no,m,1,0.816859341856,1,439
2019_Oct_28,23,001,3,recog,47,DAWDLING,LF,lure,-,-,-,liberal,no,m,1,0.916905020797,1,440
2019_Oct_28,23,001,3,recog,48,EMBATTLED,LF,target,left,aqua,imageability,conservative,no,z,1,0.733621020232,1,441
2019_Oct_28,23,001,3,recog,49,CLICKS,LF,lure,-,-,-,conservative,no,m,1,0.950105838766,3,444
2019_Oct_28,23,001,3,recog,50,JOSTLED,LF,target,right,yellow,pleasantness,conservative,no,z,1,0.750194117169,1,445
2019_Oct_28,23,001,3,recog,51,LAMENT,LF,lure,-,-,-,liberal,no,z,0,0.966814579428,-1,444
2019_Oct_28,23,001,3,recog,52,GROUND,HF,target,left,aqua,imageability,liberal,no,z,1,0.850026798801,3,447
2019_Oct_28,23,001,3,recog,53,WHETHER,HF,lure,-,-,-,liberal,no,z,0,0.916940948054,-1,446
2019_Oct_28,23,001,3,recog,54,ZEBRA,LF,lure,-,-,-,conservative,no,m,1,0.583538937448,3,449
2019_Oct_28,23,001,3,recog,55,BOOKS,HF,lure,-,-,-,conservative,yes,m,1,0.466970753013,3,452
2019_Oct_28,23,001,3,recog,56,POACHED,LF,lure,-,-,-,liberal,no,m,1,0.900231474183,1,453
2019_Oct_28,23,001,3,recog,57,COHESIVE,LF,target,left,aqua,imageability,liberal,no,z,1,0.733626152697,3,456
2019_Oct_28,23,001,3,recog,58,MEETING,HF,target,left,aqua,imageability,conservative,no,z,1,0.733681510001,1,457
2019_Oct_28,23,001,3,recog,59,GRACES,LF,lure,-,-,-,conservative,no,m,1,0.733367329806,3,460
2019_Oct_28,23,001,3,recog,60,OEDIPAL,LF,lure,-,-,-,conservative,no,m,1,0.700244232025,3,463
2019_Oct_28,23,001,3,recog,61,UTTERANCE,LF,lure,-,-,-,liberal,no,m,1,0.86690051156,1,464
2019_Oct_28,23,001,3,recog,62,MOLARS,LF,target,left,aqua,imageability,liberal,no,z,1,0.900199579577,3,467
2019_Oct_28,23,001,3,recog,63,VEERED,LF,lure,-,-,-,conservative,no,z,0,0.983614238045,-3,464
2019_Oct_28,23,001,3,recog,64,ACTION,HF,target,left,aqua,imageability,liberal,no,z,1,0.750257906379,3,467
2019_Oct_28,23,001,3,recog,65,DECIDED,HF,target,right,yellow,pleasantness,conservative,no,z,1,1.50026212233,1,468
2019_Oct_28,23,001,3,recog,66,POUNDS,HF,lure,-,-,-,liberal,no,m,1,0.866934239189,1,469
2019_Oct_28,23,001,3,recog,67,SIMILAR,HF,target,left,aqua,imageability,conservative,no,z,1,1.13365819394,1,470
2019_Oct_28,23,001,3,recog,68,CHOICE,HF,target,right,yellow,pleasantness,liberal,no,z,1,1.13363619766,3,473
2019_Oct_28,23,001,3,recog,69,HIMSELF,HF,lure,-,-,-,liberal,no,m,1,0.81689893516,1,474
2019_Oct_28,23,001,3,recog,70,DOSSIERS,LF,target,left,aqua,imageability,conservative,no,z,1,1.03355495807,1,475
2019_Oct_28,23,001,3,recog,71,GLIDED,LF,lure,-,-,-,conservative,no,m,1,0.600201119318,3,478
2019_Oct_28,23,001,3,recog,72,PEGGED,LF,lure,-,-,-,conservative,no,m,1,0.766909090109,3,481
2019_Oct_28,23,001,3,recog,73,CESSATION,LF,target,right,yellow,pleasantness,conservative,no,m,0,0.700303255376,-1,480
2019_Oct_28,23,001,3,recog,74,PHYSICAL,HF,target,right,yellow,pleasantness,conservative,no,z,1,0.700246431654,1,481
2019_Oct_28,23,001,3,recog,75,VICEREGAL,LF,lure,-,-,-,liberal,no,m,1,0.93346052071,1,482
2019_Oct_28,23,001,3,recog,76,ERSTWHILE,LF,target,right,yellow,pleasantness,liberal,no,z,1,0.933640156995,3,485
2019_Oct_28,23,001,3,recog,77,FLECKED,LF,lure,-,-,-,conservative,no,z,0,1.03361838068,-3,482
2019_Oct_28,23,001,3,recog,78,DEGREE,HF,lure,-,-,-,liberal,no,m,1,1.00017890308,1,483
2019_Oct_28,23,001,3,recog,79,CUTLER,LF,target,right,yellow,pleasantness,liberal,no,z,1,0.916866527308,3,486
2019_Oct_28,23,001,3,recog,80,STOOD,HF,target,right,yellow,pleasantness,conservative,no,z,1,0.916933249357,1,487
2019_Oct_28,23,001,3,recog,81,PRIVATE,HF,target,right,yellow,pleasantness,liberal,no,z,1,1.0501980765,3,490
2019_Oct_28,23,001,3,recog,82,SPOKE,HF,target,left,aqua,imageability,conservative,no,z,1,0.700292257236,1,491
2019_Oct_28,23,001,3,recog,83,SURER,LF,target,right,yellow,pleasantness,liberal,no,z,1,1.01698772681,3,494
2019_Oct_28,23,001,3,recog,84,SHRED,LF,target,right,yellow,pleasantness,conservative,no,z,1,0.683622743273,1,495
2019_Oct_28,23,001,3,recog,85,JOBLESS,LF,target,left,aqua,imageability,conservative,no,z,1,0.533603716492,1,496
2019_Oct_28,23,001,3,recog,86,CALLED,HF,target,left,aqua,imageability,liberal,no,z,1,2.85017234085,3,499
2019_Oct_28,23,001,3,recog,87,FRONT,HF,lure,-,-,-,conservative,no,z,0,0.750293833636,-3,496
2019_Oct_28,23,001,3,recog,88,RAMBLE,LF,target,left,aqua,imageability,liberal,no,z,1,0.866902711188,3,499
2019_Oct_28,23,001,3,recog,89,MONEY,HF,lure,-,-,-,conservative,no,m,1,0.866925074073,3,502
2019_Oct_28,23,001,3,recog,90,TRYING,HF,target,left,aqua,imageability,conservative,no,z,1,1.48361313823,1,503
2019_Oct_28,23,001,3,recog,91,OTHERS,HF,lure,-,-,-,liberal,no,z,0,0.950167428349,-1,502
2019_Oct_28,23,001,3,recog,92,LOITERING,LF,target,left,aqua,imageability,conservative,no,z,1,1.01685025006,1,503
2019_Oct_28,23,001,3,recog,93,BRING,HF,lure,-,-,-,conservative,no,m,1,1.01686748048,3,506
2019_Oct_28,23,001,3,recog,94,SUPPORT,HF,target,right,yellow,pleasantness,conservative,no,m,0,0.816702801666,-1,505
2019_Oct_28,23,001,3,recog,95,LIVED,HF,lure,-,-,-,liberal,no,z,0,0.600230814295,-1,504
2019_Oct_28,23,001,4,source,0,WONDROUS,LF,target,right,yellow,pleasantness,conservative,no,7,1,7.34984386307,-,-
2019_Oct_28,23,001,4,source,1,CONCERNED,HF,target,left,aqua,imageability,conservative,no,1,1,0.933545572992,-,-
2019_Oct_28,23,001,4,source,2,USUAL,HF,target,right,yellow,pleasantness,conservative,no,1,0,0.933374002011,-,-
2019_Oct_28,23,001,4,source,3,PEDALLING,LF,target,right,yellow,pleasantness,liberal,no,1,0,0.966921261384,-,-
2019_Oct_28,23,001,4,source,4,ESPECIAL,LF,target,right,yellow,pleasantness,conservative,yes,1,0,0.466902931151,-,-
2019_Oct_28,23,001,4,source,5,FRUGAL,LF,target,left,aqua,imageability,conservative,no,1,1,0.733603423208,-,-
2019_Oct_28,23,001,4,source,6,EARLIER,HF,target,left,aqua,imageability,conservative,no,1,1,0.850270957505,-,-
2019_Oct_28,23,001,4,source,7,PIRACY,LF,target,left,aqua,imageability,liberal,no,1,1,0.683671501693,-,-
2019_Oct_28,23,001,4,source,8,METABOLIC,LF,target,right,yellow,pleasantness,conservative,no,9,1,0.916856262378,-,-
2019_Oct_28,23,001,4,source,9,AEROSOL,LF,target,left,aqua,imageability,liberal,no,1,1,0.733575561253,-,-
2019_Oct_28,23,001,4,source,10,CLOSE,HF,target,right,yellow,pleasantness,liberal,yes,1,0,0.450179892908,-,-
2019_Oct_28,23,001,4,source,11,SAYING,HF,target,left,aqua,imageability,conservative,no,1,1,1.45020152258,-,-
2019_Oct_28,23,001,4,source,12,AEONS,LF,target,right,yellow,pleasantness,conservative,no,1,0,0.700240565979,-,-
2019_Oct_28,23,001,4,source,13,VULTURE,LF,target,right,yellow,pleasantness,liberal,no,1,0,0.700246431653,-,-
2019_Oct_28,23,001,4,source,14,MAUSOLEUM,LF,target,left,aqua,imageability,conservative,no,1,1,0.716913379384,-,-
2019_Oct_28,23,001,4,source,15,SEDAN,LF,target,right,yellow,pleasantness,liberal,no,9,1,0.85033108067,-,-
2019_Oct_28,23,001,4,source,16,KIPPERS,LF,target,left,aqua,imageability,liberal,no,9,0,0.683566286155,-,-
2019_Oct_28,23,001,4,source,17,GARDEN,HF,target,right,yellow,pleasantness,conservative,no,1,0,0.833588245775,-,-
2019_Oct_28,23,001,4,source,18,CIPHER,LF,target,left,aqua,imageability,liberal,no,9,0,0.53338338709,-,-
2019_Oct_28,23,001,4,source,19,EIGHT,HF,target,left,aqua,imageability,conservative,no,1,1,0.733379061155,-,-
2019_Oct_28,23,001,4,source,20,AREAS,HF,target,right,yellow,pleasantness,liberal,no,1,0,0.500240126053,-,-
2019_Oct_28,23,001,4,source,21,PARENTS,HF,target,right,yellow,pleasantness,conservative,no,9,1,1.03350949909,-,-
2019_Oct_28,23,001,4,source,22,DYEING,LF,target,right,yellow,pleasantness,conservative,no,9,1,0.966843541196,-,-
2019_Oct_28,23,001,4,source,23,HOWEVER,HF,target,left,aqua,imageability,conservative,no,1,1,1.00018916801,-,-
2019_Oct_28,23,001,4,source,24,FUTURE,HF,target,right,yellow,pleasantness,conservative,yes,1,0,0.966732093379,-,-
2019_Oct_28,23,001,4,source,25,GUMMED,LF,target,right,yellow,pleasantness,liberal,no,9,1,1.51665924903,-,-
2019_Oct_28,23,001,4,source,26,AMPLIFY,LF,target,right,yellow,pleasantness,conservative,no,9,1,2.61675478621,-,-
2019_Oct_28,23,001,4,source,27,AVOCADO,LF,target,left,aqua,imageability,conservative,no,1,1,0.750195950191,-,-
2019_Oct_28,23,001,4,source,28,AVUNCULAR,LF,target,right,yellow,pleasantness,liberal,no,1,0,0.766942817738,-,-
2019_Oct_28,23,001,4,source,29,ECONOMIC,HF,target,left,aqua,imageability,liberal,no,1,1,0.916728683955,-,-
2019_Oct_28,23,001,4,source,30,RIOTERS,LF,target,left,aqua,imageability,conservative,no,1,1,0.600294603506,-,-
2019_Oct_28,23,001,4,source,31,CHURCH,HF,target,right,yellow,pleasantness,liberal,no,1,0,0.683608079087,-,-
2019_Oct_28,23,001,4,source,32,KRAALS,LF,target,left,aqua,imageability,conservative,no,1,1,0.733371362457,-,-
2019_Oct_28,23,001,4,source,33,MERELY,HF,target,right,yellow,pleasantness,liberal,no,1,0,0.633421000729,-,-
2019_Oct_28,23,001,4,source,34,SLOWLY,HF,target,left,aqua,imageability,liberal,no,1,1,1.11671885895,-,-
2019_Oct_28,23,001,4,source,35,HAMLETS,LF,target,left,aqua,imageability,liberal,no,1,1,0.683374551917,-,-
2019_Oct_28,23,001,4,source,36,DURING,HF,target,right,yellow,pleasantness,conservative,no,1,0,0.633380674215,-,-
2019_Oct_28,23,001,4,source,37,REACHED,HF,target,left,aqua,imageability,liberal,no,1,1,0.583563133356,-,-
2019_Oct_28,23,001,4,source,38,FAILINGS,LF,target,right,yellow,pleasantness,liberal,no,1,0,0.700245698444,-,-
2019_Oct_28,23,001,4,source,39,BABBLED,LF,target,left,aqua,imageability,liberal,no,9,0,1.05034581818,-,-
2019_Oct_28,23,001,4,source,40,SERIOUS,HF,target,left,aqua,imageability,liberal,no,9,0,0.6169036277,-,-
2019_Oct_28,23,001,4,source,41,NOTHING,HF,target,left,aqua,imageability,liberal,no,1,1,0.566900584881,-,-
2019_Oct_28,23,001,4,source,42,CORNER,HF,target,left,aqua,imageability,liberal,yes,1,1,0.466716329378,-,-
2019_Oct_28,23,001,4,source,43,TROUBLE,HF,target,right,yellow,pleasantness,liberal,no,1,0,0.666709070606,-,-
2019_Oct_28,23,001,4,source,44,RAPACIOUS,LF,target,left,aqua,imageability,conservative,no,1,1,0.96689816529,-,-
2019_Oct_28,23,001,4,source,45,RETURN,HF,target,right,yellow,pleasantness,liberal,no,1,0,0.433373268801,-,-
2019_Oct_28,23,001,4,source,46,INSIDE,HF,target,right,yellow,pleasantness,conservative,no,1,0,0.550185245336,-,-
2019_Oct_28,23,001,4,source,47,AFTERNOON,HF,target,left,aqua,imageability,conservative,no,1,1,0.450215820164,-,-
2019_Oct_28,23,001,4,recog,0,AMBIENCE,LF,lure,-,-,-,liberal,no,m,1,1.46683364287,1,505
2019_Oct_28,23,001,4,recog,1,SAYING,HF,target,left,aqua,imageability,conservative,no,z,1,0.766871329829,1,506
2019_Oct_28,23,001,4,recog,2,AGATE,LF,lure,-,-,-,conservative,no,m,1,0.933552905085,3,509
2019_Oct_28,23,001,4,recog,3,ENHANCES,LF,lure,-,-,-,conservative,no,m,1,1.10020111932,3,512
2019_Oct_28,23,001,4,recog,4,HUSBAND,HF,lure,-,-,-,liberal,no,m,1,1.01690487416,1,513
2019_Oct_28,23,001,4,recog,5,AVUNCULAR,LF,target,right,yellow,pleasantness,liberal,no,z,1,0.666893839355,3,516
2019_Oct_28,23,001,4,recog,6,INSIDE,HF,target,right,yellow,pleasantness,conservative,no,z,1,0.783544143234,1,517
2019_Oct_28,23,001,4,recog,7,METABOLIC,LF,target,right,yellow,pleasantness,conservative,no,z,1,0.683681766624,1,518
2019_Oct_28,23,001,4,recog,8,VETOED,LF,lure,-,-,-,conservative,no,m,1,0.783573471607,3,521
2019_Oct_28,23,001,4,recog,9,PEDALLING,LF,target,right,yellow,pleasantness,liberal,no,z,1,0.800030721471,3,524
2019_Oct_28,23,001,4,recog,10,RIOTERS,LF,target,left,aqua,imageability,conservative,no,z,1,1.50011658028,1,525
2019_Oct_28,23,001,4,recog,11,GNOMES,LF,lure,-,-,-,conservative,no,m,1,0.850185905224,3,528
2019_Oct_28,23,001,4,recog,12,RENAMED,LF,lure,-,-,-,liberal,no,m,1,0.850052461127,1,529
2019_Oct_28,23,001,4,recog,13,CONCERNED,HF,target,left,aqua,imageability,conservative,no,z,1,0.633688988736,1,530
2019_Oct_28,23,001,4,recog,14,RUNNING,HF,lure,-,-,-,liberal,no,m,1,0.866859451838,1,531
2019_Oct_28,23,001,4,recog,15,CAUGHT,HF,lure,-,-,-,liberal,no,m,1,0.866934239189,1,532
2019_Oct_28,23,001,4,recog,16,KITCHEN,HF,lure,-,-,-,liberal,no,m,1,0.816875839067,1,533
2019_Oct_28,23,001,4,recog,17,WONDROUS,LF,target,right,yellow,pleasantness,conservative,no,z,1,0.816809850227,1,534
2019_Oct_28,23,001,4,recog,18,VULTURE,LF,target,right,yellow,pleasantness,liberal,no,z,1,0.683623476483,3,537
2019_Oct_28,23,001,4,recog,19,BABBLED,LF,target,left,aqua,imageability,liberal,no,z,1,0.616880165001,3,540
2019_Oct_28,23,001,4,recog,20,MERELY,HF,target,right,yellow,pleasantness,liberal,no,z,1,0.666913636007,3,543
2019_Oct_28,23,001,4,recog,21,TAKEN,HF,lure,-,-,-,conservative,no,m,1,0.733583993161,3,546
2019_Oct_28,23,001,4,recog,22,AREAS,HF,target,right,yellow,pleasantness,liberal,no,m,0,0.816873272834,-3,543
2019_Oct_28,23,001,4,recog,23,NORTH,HF,lure,-,-,-,liberal,no,m,1,0.783567972537,1,544
2019_Oct_28,23,001,4,recog,24,FAILINGS,LF,target,right,yellow,pleasantness,liberal,no,z,1,0.883637847385,3,547
2019_Oct_28,23,001,4,recog,25,GREATER,HF,lure,-,-,-,conservative,no,m,1,1.20025156412,3,550
2019_Oct_28,23,001,4,recog,26,JUMBO,LF,lure,-,-,-,conservative,no,m,1,0.700196940024,3,553
2019_Oct_28,23,001,4,recog,27,FUTURE,HF,target,right,yellow,pleasantness,conservative,no,z,1,0.56696657372,1,554
2019_Oct_28,23,001,4,recog,28,GIRLS,HF,lure,-,-,-,liberal,no,m,1,0.633574241477,1,555
2019_Oct_28,23,001,4,recog,29,CIPHER,LF,target,left,aqua,imageability,liberal,no,z,1,0.800221722499,3,558
2019_Oct_28,23,001,4,recog,30,RIPEN,LF,lure,-,-,-,liberal,no,m,1,0.750237009914,1,559
2019_Oct_28,23,001,4,recog,31,ECONOMIC,HF,target,left,aqua,imageability,liberal,no,z,1,0.716954439106,3,562
2019_Oct_28,23,001,4,recog,32,COVER,HF,lure,-,-,-,liberal,no,m,1,0.850236130063,1,563
2019_Oct_28,23,001,4,recog,33,ABSENCES,LF,lure,-,-,-,liberal,no,m,1,0.950228284722,1,564
2019_Oct_28,23,001,4,recog,34,RETURN,HF,target,right,yellow,pleasantness,liberal,no,z,1,0.733625052882,3,567
2019_Oct_28,23,001,4,recog,35,WREATH,LF,lure,-,-,-,conservative,no,m,1,0.716650890446,3,570
2019_Oct_28,23,001,4,recog,36,POINT,HF,lure,-,-,-,liberal,no,m,1,0.633371875704,1,571
2019_Oct_28,23,001,4,recog,37,AFRAID,HF,lure,-,-,-,conservative,no,m,1,0.916878258657,3,574
2019_Oct_28,23,001,4,recog,38,GUMMED,LF,target,right,yellow,pleasantness,liberal,no,m,0,0.816744594598,-3,571
2019_Oct_28,23,001,4,recog,39,CHURCH,HF,target,right,yellow,pleasantness,liberal,yes,m,0,0.750237376518,-3,568
2019_Oct_28,23,001,4,recog,40,CORNER,HF,target,left,aqua,imageability,liberal,no,z,1,1.16688870689,3,571
2019_Oct_28,23,001,4,recog,41,KRAALS,LF,target,left,aqua,imageability,conservative,no,z,1,0.900051471294,1,572
2019_Oct_28,23,001,4,recog,42,HAMLETS,LF,target,left,aqua,imageability,liberal,no,z,1,0.533578054165,3,575
2019_Oct_28,23,001,4,recog,43,FRUGAL,LF,target,left,aqua,imageability,conservative,no,z,1,0.533580987003,1,576
2019_Oct_28,23,001,4,recog,44,PARENTS,HF,target,right,yellow,pleasantness,conservative,no,z,1,0.633573508267,1,577
2019_Oct_28,23,001,4,recog,45,IMPORTANT,HF,lure,-,-,-,liberal,no,m,1,1.06684852702,1,578
2019_Oct_28,23,001,4,recog,46,UNEARTHED,LF,lure,-,-,-,conservative,no,m,1,0.850189937875,3,581
2019_Oct_28,23,001,4,recog,47,PLODDED,LF,lure,-,-,-,conservative,no,m,1,1.13360210343,3,584
2019_Oct_28,23,001,4,recog,48,ZIGZAG,LF,lure,-,-,-,conservative,yes,m,1,0.650340905675,3,587
2019_Oct_28,23,001,4,recog,49,MAUSOLEUM,LF,target,left,aqua,imageability,conservative,no,z,1,0.733392625527,1,588
2019_Oct_28,23,001,4,recog,50,TROUBLE,HF,target,right,yellow,pleasantness,liberal,no,z,1,0.66670393814,3,591
2019_Oct_28,23,001,4,recog,51,AEROSOL,LF,target,left,aqua,imageability,liberal,no,z,1,0.550231804128,3,594
2019_Oct_28,23,001,4,recog,52,MOTHER,HF,lure,-,-,-,conservative,no,z,0,0.600139896339,-3,591
2019_Oct_28,23,001,4,recog,53,CLOSE,HF,target,right,yellow,pleasantness,liberal,no,m,0,0.850019466707,-3,588
2019_Oct_28,23,001,4,recog,54,PIRACY,LF,target,left,aqua,imageability,liberal,no,z,1,1.51695803183,3,591
2019_Oct_28,23,001,4,recog,55,NOTHING,HF,target,left,aqua,imageability,liberal,no,z,1,0.783612331701,3,594
2019_Oct_28,23,001,4,recog,56,ANOINTED,LF,lure,-,-,-,liberal,no,z,0,0.85028232225,-1,593
2019_Oct_28,23,001,4,recog,57,AVOCADO,LF,target,left,aqua,imageability,conservative,no,z,1,0.667021784382,1,594
2019_Oct_28,23,001,4,recog,58,HOWEVER,HF,target,left,aqua,imageability,conservative,yes,z,1,0.800237119895,1,595
2019_Oct_28,23,001,4,recog,59,AEONS,LF,target,right,yellow,pleasantness,conservative,no,z,1,0.750204382099,1,596
2019_Oct_28,23,001,4,recog,60,JOTTED,LF,lure,-,-,-,liberal,no,z,0,0.866999494819,-1,595
2019_Oct_28,23,001,4,recog,61,SUCCESS,HF,lure,-,-,-,conservative,no,z,0,0.750037576978,-3,592
2019_Oct_28,23,001,4,recog,62,SEDAN,LF,target,right,yellow,pleasantness,liberal,no,z,1,0.916899888332,3,595
2019_Oct_28,23,001,4,recog,63,OPENED,HF,lure,-,-,-,conservative,no,m,1,3.76674521783,3,598
2019_Oct_28,23,001,4,recog,64,SECOND,HF,lure,-,-,-,liberal,no,m,1,0.716927676966,1,599
2019_Oct_28,23,001,4,recog,65,EDUCATION,HF,lure,-,-,-,conservative,no,z,0,0.600249144528,-3,596
2019_Oct_28,23,001,4,recog,66,EARLIER,HF,target,left,aqua,imageability,conservative,no,m,0,0.516759332105,-1,595
2019_Oct_28,23,001,4,recog,67,FEELING,HF,lure,-,-,-,conservative,no,m,1,0.916883391122,3,598
2019_Oct_28,23,001,4,recog,68,QUICKLY,HF,lure,-,-,-,conservative,no,m,1,0.816654409851,3,601
2019_Oct_28,23,001,4,recog,69,ABBOT,LF,lure,-,-,-,conservative,no,m,1,0.933546672806,3,604
2019_Oct_28,23,001,4,recog,70,USING,HF,lure,-,-,-,liberal,no,m,1,0.633510085661,1,605
2019_Oct_28,23,001,4,recog,71,KIPPERS,LF,target,left,aqua,imageability,liberal,no,z,1,0.766906890482,3,608
2019_Oct_28,23,001,4,recog,72,SNIGGERED,LF,lure,-,-,-,liberal,no,z,0,1.15001609394,-1,607
2019_Oct_28,23,001,4,recog,73,SERIOUS,HF,target,left,aqua,imageability,liberal,no,m,0,0.733626519302,-3,604
2019_Oct_28,23,001,4,recog,74,SLOWLY,HF,target,left,aqua,imageability,liberal,no,z,1,0.600138796525,3,607
2019_Oct_28,23,001,4,recog,75,AFTERNOON,HF,target,left,aqua,imageability,conservative,no,m,0,1.58352610628,-1,606
2019_Oct_28,23,001,4,recog,76,INCLUDING,HF,lure,-,-,-,liberal,no,z,0,0.583582196798,-1,605
2019_Oct_28,23,001,4,recog,77,AMPLIFY,LF,target,right,yellow,pleasantness,conservative,no,m,0,1.20021160421,-1,604
2019_Oct_28,23,001,4,recog,78,BOMBARDED,LF,lure,-,-,-,liberal,yes,m,1,0.616975848818,1,605
2019_Oct_28,23,001,4,recog,79,GUILDHALL,LF,lure,-,-,-,liberal,no,m,1,1.20022993444,1,606
2019_Oct_28,23,001,4,recog,80,DURING,HF,target,right,yellow,pleasantness,conservative,no,m,0,0.600214317085,-1,605
2019_Oct_28,23,001,4,recog,81,HUMAN,HF,lure,-,-,-,conservative,no,z,0,0.933513678386,-3,602
2019_Oct_28,23,001,4,recog,82,OBVIOUSLY,HF,lure,-,-,-,conservative,no,z,0,1.03330126765,-3,599
2019_Oct_28,23,001,4,recog,83,ESPECIAL,LF,target,right,yellow,pleasantness,conservative,no,m,0,0.683576917691,-1,598
2019_Oct_28,23,001,4,recog,84,GARDEN,HF,target,right,yellow,pleasantness,conservative,no,z,1,1.23361405474,1,599
2019_Oct_28,23,001,4,recog,85,EIGHT,HF,target,left,aqua,imageability,conservative,no,z,1,0.666915102426,1,600
2019_Oct_28,23,001,4,recog,86,BUNGALOWS,LF,lure,-,-,-,conservative,no,m,1,0.933585166295,3,603
2019_Oct_28,23,001,4,recog,87,BUSINESS,HF,lure,-,-,-,conservative,no,m,1,1.60022714825,3,606
2019_Oct_28,23,001,4,recog,88,PIZZA,LF,lure,-,-,-,liberal,no,m,1,0.616812709743,1,607
2019_Oct_28,23,001,4,recog,89,REACHED,HF,target,left,aqua,imageability,liberal,no,m,0,2.46691319608,-3,604
2019_Oct_28,23,001,4,recog,90,RAPACIOUS,LF,target,left,aqua,imageability,conservative,no,m,0,0.683521560387,-1,603
2019_Oct_28,23,001,4,recog,91,USUAL,HF,target,right,yellow,pleasantness,conservative,no,z,1,1.05021823975,1,604
2019_Oct_28,23,001,4,recog,92,BURGH,LF,lure,-,-,-,liberal,no,m,1,1.0168924096,1,605
2019_Oct_28,23,001,4,recog,93,WICKEDLY,LF,lure,-,-,-,liberal,no,m,1,0.866908210258,1,606
2019_Oct_28,23,001,4,recog,94,KINDEST,LF,lure,-,-,-,conservative,no,m,1,1.00008358586,3,609
2019_Oct_28,23,001,4,recog,95,DYEING,LF,target,right,yellow,pleasantness,conservative,no,z,1,1.06670701762,1,610
