date,subj,session,cycle,task,trial,item,wf,type,source,colour,encoding,bias,null,response,corr,rt,points,total
2019_Oct_28,24,001,0,source,0,SCYTHE,LF,target,right,aqua,pleasantness,liberal,no,None,-1,-1,-,-
2019_Oct_28,24,001,0,source,1,TOPICAL,LF,target,left,yellow,imageability,conservative,no,None,-1,-1,-,-
2019_Oct_28,24,001,0,source,2,FULCRUM,LF,target,left,yellow,imageability,liberal,no,8,0,6.28327212257,-,-
2019_Oct_28,24,001,0,source,3,YEARN,LF,target,left,yellow,imageability,liberal,no,1,1,3.60010030304,-,-
2019_Oct_28,24,001,0,source,4,RIVER,HF,target,right,aqua,pleasantness,conservative,no,2,0,3.78338357039,-,-
2019_Oct_28,24,001,0,source,5,SOUND,HF,target,right,aqua,pleasantness,conservative,no,8,1,3.13344409682,-,-
2019_Oct_28,24,001,0,source,6,DENIALS,LF,target,right,aqua,pleasantness,conservative,no,7,1,3.4501245356,-,-
2019_Oct_28,24,001,0,source,7,CELLO,LF,target,left,yellow,imageability,conservative,no,3,1,3.91678440786,-,-
2019_Oct_28,24,001,0,source,8,FRONT,HF,target,right,aqua,pleasantness,liberal,no,1,0,4.06669125362,-,-
2019_Oct_28,24,001,0,source,9,ADMIRALS,LF,target,right,aqua,pleasantness,liberal,yes,1,0,0.883648478921,-,-
2019_Oct_28,24,001,0,source,10,JUNCTURE,LF,target,left,yellow,imageability,conservative,no,1,1,1.85017783992,-,-
2019_Oct_28,24,001,0,source,11,BEAUTIFUL,HF,target,left,yellow,imageability,liberal,yes,1,1,0.733369529434,-,-
2019_Oct_28,24,001,0,source,12,ANGERS,LF,target,left,yellow,imageability,conservative,no,1,1,2.40016108609,-,-
2019_Oct_28,24,001,0,source,13,SOVIET,HF,target,left,yellow,imageability,liberal,no,1,1,2.33345040242,-,-
2019_Oct_28,24,001,0,source,14,HANDS,HF,target,right,aqua,pleasantness,liberal,yes,1,0,0.516921371365,-,-
2019_Oct_28,24,001,0,source,15,REOPEN,LF,target,right,aqua,pleasantness,liberal,no,9,1,2.80013117115,-,-
2019_Oct_28,24,001,0,source,16,WITHIN,HF,target,right,aqua,pleasantness,conservative,no,1,0,2.83343573824,-,-
2019_Oct_28,24,001,0,source,17,TRYING,HF,target,right,aqua,pleasantness,liberal,no,1,0,2.20012471891,-,-
2019_Oct_28,24,001,0,source,18,SITTING,HF,target,left,yellow,imageability,conservative,no,1,1,1.23356163028,-,-
2019_Oct_28,24,001,0,source,19,ABOVE,HF,target,left,yellow,imageability,conservative,no,1,1,1.00007002149,-,-
2019_Oct_28,24,001,0,source,20,WHATEVER,HF,target,right,aqua,pleasantness,liberal,no,9,1,2.85008362252,-,-
2019_Oct_28,24,001,0,source,21,BIRCHES,LF,target,right,aqua,pleasantness,liberal,yes,9,1,0.916682858372,-,-
2019_Oct_28,24,001,0,source,22,PRYING,LF,target,right,aqua,pleasantness,conservative,no,7,1,2.26666859745,-,-
2019_Oct_28,24,001,0,source,23,USHERS,LF,target,left,yellow,imageability,conservative,no,1,1,1.86664535472,-,-
2019_Oct_28,24,001,0,source,24,DEBACLE,LF,target,left,yellow,imageability,liberal,no,1,1,1.1335599439,-,-
2019_Oct_28,24,001,0,source,25,ROBBERIES,LF,target,left,yellow,imageability,liberal,no,1,1,0.750248374658,-,-
2019_Oct_28,24,001,0,source,26,WHITE,HF,target,right,aqua,pleasantness,conservative,no,1,0,0.63358707264,-,-
2019_Oct_28,24,001,0,source,27,PYJAMA,LF,target,right,aqua,pleasantness,conservative,no,9,1,1.71690311445,-,-
2019_Oct_28,24,001,0,source,28,OPENED,HF,target,left,yellow,imageability,liberal,no,7,0,2.10013256425,-,-
2019_Oct_28,24,001,0,source,29,DEFEATING,LF,target,left,yellow,imageability,conservative,no,1,1,1.83362124019,-,-
2019_Oct_28,24,001,0,source,30,AVUNCULAR,LF,target,right,aqua,pleasantness,conservative,no,7,1,2.21682942692,-,-
2019_Oct_28,24,001,0,source,31,MOTHER,HF,target,right,aqua,pleasantness,liberal,no,9,1,2.7668376022,-,-
2019_Oct_28,24,001,0,source,32,MEMBERS,HF,target,left,yellow,imageability,conservative,no,1,1,3.00015214093,-,-
2019_Oct_28,24,001,0,source,33,DAYBREAK,LF,target,left,yellow,imageability,liberal,no,1,1,0.933358604614,-,-
2019_Oct_28,24,001,0,source,34,UNRAVEL,LF,target,left,yellow,imageability,liberal,no,1,1,1.38355169529,-,-
2019_Oct_28,24,001,0,source,35,DIFFERENT,HF,target,left,yellow,imageability,conservative,no,1,1,0.950293173748,-,-
2019_Oct_28,24,001,0,source,36,HEALTH,HF,target,left,yellow,imageability,liberal,no,9,0,2.11658651467,-,-
2019_Oct_28,24,001,0,source,37,FLOOR,HF,target,left,yellow,imageability,conservative,no,1,1,1.23352826925,-,-
2019_Oct_28,24,001,0,source,38,SOJOURN,LF,target,right,aqua,pleasantness,conservative,no,7,1,2.00020969787,-,-
2019_Oct_28,24,001,0,source,39,BOWER,LF,target,right,aqua,pleasantness,conservative,no,8,1,2.033470639,-,-
2019_Oct_28,24,001,0,source,40,GIRLS,HF,target,left,yellow,imageability,liberal,no,1,1,1.18355052216,-,-
2019_Oct_28,24,001,0,source,41,PREPARED,HF,target,right,aqua,pleasantness,conservative,no,1,0,1.35022476532,-,-
2019_Oct_28,24,001,0,source,42,PRACTICE,HF,target,left,yellow,imageability,conservative,no,8,0,3.1334111024,-,-
2019_Oct_28,24,001,0,source,43,DORMS,LF,target,right,aqua,pleasantness,liberal,no,9,1,2.16684911359,-,-
2019_Oct_28,24,001,0,source,44,ASSERTIVE,LF,target,right,aqua,pleasantness,liberal,no,9,1,1.98346393013,-,-
2019_Oct_28,24,001,0,source,45,NORTH,HF,target,right,aqua,pleasantness,conservative,no,9,1,0.850193970527,-,-
2019_Oct_28,24,001,0,source,46,REQUIRED,HF,target,left,yellow,imageability,liberal,no,2,1,3.03345010914,-,-
2019_Oct_28,24,001,0,source,47,RUNNING,HF,target,right,aqua,pleasantness,liberal,no,9,1,2.34992708233,-,-
2019_Oct_28,24,001,0,recog,0,GIRLS,HF,target,left,yellow,imageability,liberal,no,z,1,3.05013905315,3,3
2019_Oct_28,24,001,0,recog,1,USHERS,LF,target,left,yellow,imageability,conservative,no,z,1,2.15021149423,1,4
2019_Oct_28,24,001,0,recog,2,PRACTICE,HF,target,left,yellow,imageability,conservative,no,z,1,2.85013568039,1,5
2019_Oct_28,24,001,0,recog,3,MOMENT,HF,lure,-,-,-,conservative,no,m,1,1.75019265075,3,8
2019_Oct_28,24,001,0,recog,4,DENIALS,LF,target,right,aqua,pleasantness,conservative,no,z,1,1.2001870417,1,9
2019_Oct_28,24,001,0,recog,5,HARDLY,HF,lure,-,-,-,conservative,no,m,1,1.15033174056,3,12
2019_Oct_28,24,001,0,recog,6,WHATEVER,HF,target,right,aqua,pleasantness,liberal,no,z,1,1.6168174756,3,15
2019_Oct_28,24,001,0,recog,7,ADMIRALS,LF,target,right,aqua,pleasantness,liberal,no,z,1,2.80010477561,3,18
2019_Oct_28,24,001,0,recog,8,HANDS,HF,target,right,aqua,pleasantness,liberal,no,z,1,0.75024214238,3,21
2019_Oct_28,24,001,0,recog,9,DORMS,LF,target,right,aqua,pleasantness,liberal,no,z,1,0.616880531607,3,24
2019_Oct_28,24,001,0,recog,10,FILAMENTS,LF,lure,-,-,-,conservative,no,m,1,0.983562913393,3,27
2019_Oct_28,24,001,0,recog,11,HIMSELF,HF,lure,-,-,-,conservative,no,m,1,0.866651586995,3,30
2019_Oct_28,24,001,0,recog,12,CEMENTED,LF,lure,-,-,-,liberal,no,m,1,1.06668612115,1,31
2019_Oct_28,24,001,0,recog,13,AIRBED,LF,lure,-,-,-,conservative,no,m,1,1.93360349653,3,34
2019_Oct_28,24,001,0,recog,14,LOVELIEST,LF,lure,-,-,-,conservative,no,m,1,0.683595981133,3,37
2019_Oct_28,24,001,0,recog,15,TRYING,HF,target,right,aqua,pleasantness,liberal,no,z,1,0.883692838084,3,40
2019_Oct_28,24,001,0,recog,16,MEMBERS,HF,target,left,yellow,imageability,conservative,no,z,1,0.850226598341,1,41
2019_Oct_28,24,001,0,recog,17,WITHIN,HF,target,right,aqua,pleasantness,conservative,no,z,1,0.616869166861,1,42
2019_Oct_28,24,001,0,recog,18,REOPEN,LF,target,right,aqua,pleasantness,liberal,no,z,1,2.26682513764,3,45
2019_Oct_28,24,001,0,recog,19,SERIOUS,HF,lure,-,-,-,conservative,yes,z,0,0.916894022657,-3,42
2019_Oct_28,24,001,0,recog,20,NIGHT,HF,lure,-,-,-,liberal,no,z,0,2.5501511511,-1,41
2019_Oct_28,24,001,0,recog,21,SOJOURN,LF,target,right,aqua,pleasantness,conservative,no,z,1,2.35010195276,1,42
2019_Oct_28,24,001,0,recog,22,TELEPHONE,HF,lure,-,-,-,liberal,no,m,1,0.933567569272,1,43
2019_Oct_28,24,001,0,recog,23,PRUDENTLY,LF,lure,-,-,-,conservative,no,m,1,2.58326691679,3,46
2019_Oct_28,24,001,0,recog,24,DEFEATING,LF,target,left,yellow,imageability,conservative,no,z,1,0.900186748415,1,47
2019_Oct_28,24,001,0,recog,25,LOOKED,HF,lure,-,-,-,conservative,no,m,1,1.91688669056,3,50
2019_Oct_28,24,001,0,recog,26,MOTHER,HF,target,right,aqua,pleasantness,liberal,no,z,1,1.30018469543,3,53
2019_Oct_28,24,001,0,recog,27,ANGERS,LF,target,left,yellow,imageability,conservative,no,z,1,1.15021076102,1,54
2019_Oct_28,24,001,0,recog,28,AVUNCULAR,LF,target,right,aqua,pleasantness,conservative,no,z,1,1.05020907464,1,55
2019_Oct_28,24,001,0,recog,29,PYJAMA,LF,target,right,aqua,pleasantness,conservative,no,z,1,2.08333987112,1,56
2019_Oct_28,24,001,0,recog,30,NUMBER,HF,lure,-,-,-,liberal,no,m,1,3.63342026752,1,57
2019_Oct_28,24,001,0,recog,31,SOVIET,HF,target,left,yellow,imageability,liberal,no,z,1,1.05022703827,3,60
2019_Oct_28,24,001,0,recog,32,AQUARIUM,LF,lure,-,-,-,liberal,no,m,1,1.8669111431,1,61
2019_Oct_28,24,001,0,recog,33,PRYING,LF,target,right,aqua,pleasantness,conservative,no,z,1,1.51687591239,1,62
2019_Oct_28,24,001,0,recog,34,MEANS,HF,lure,-,-,-,liberal,no,m,1,3.96675225663,1,63
2019_Oct_28,24,001,0,recog,35,SITTING,HF,target,left,yellow,imageability,conservative,no,z,1,0.933556571132,1,64
2019_Oct_28,24,001,0,recog,36,ABOVE,HF,target,left,yellow,imageability,conservative,no,z,1,0.950213987141,1,65
2019_Oct_28,24,001,0,recog,37,AGILITY,LF,lure,-,-,-,conservative,no,z,0,3.56676090851,-3,62
2019_Oct_28,24,001,0,recog,38,DURING,HF,lure,-,-,-,conservative,no,m,1,4.03347027239,3,65
2019_Oct_28,24,001,0,recog,39,FULCRUM,LF,target,left,yellow,imageability,liberal,no,z,1,1.46690256455,3,68
2019_Oct_28,24,001,0,recog,40,BOWER,LF,target,right,aqua,pleasantness,conservative,no,z,1,1.48358051042,1,69
2019_Oct_28,24,001,0,recog,41,ROBBERIES,LF,target,left,yellow,imageability,liberal,no,z,1,0.75011639698,3,72
2019_Oct_28,24,001,0,recog,42,DIFFERENT,HF,target,left,yellow,imageability,conservative,no,z,1,0.650290680836,1,73
2019_Oct_28,24,001,0,recog,43,GERANIUMS,LF,lure,-,-,-,liberal,no,m,1,0.750270370938,1,74
2019_Oct_28,24,001,0,recog,44,RUNNING,HF,target,right,aqua,pleasantness,liberal,no,z,1,0.733537067764,3,77
2019_Oct_28,24,001,0,recog,45,DEBACLE,LF,target,left,yellow,imageability,liberal,no,z,1,0.65020526195,3,80
2019_Oct_28,24,001,0,recog,46,YEARN,LF,target,left,yellow,imageability,liberal,no,z,1,0.783649725376,3,83
2019_Oct_28,24,001,0,recog,47,STRAIGHT,HF,lure,-,-,-,conservative,no,m,1,2.01683118662,3,86
2019_Oct_28,24,001,0,recog,48,MINISTER,HF,lure,-,-,-,conservative,no,m,1,1.33358128029,3,89
2019_Oct_28,24,001,0,recog,49,LAPELS,LF,lure,-,-,-,liberal,no,m,1,0.750236276705,1,90
2019_Oct_28,24,001,0,recog,50,PREPARED,HF,target,right,aqua,pleasantness,conservative,no,z,1,0.966904030965,1,91
2019_Oct_28,24,001,0,recog,51,OPENED,HF,target,left,yellow,imageability,liberal,no,m,0,2.58348394675,-3,88
2019_Oct_28,24,001,0,recog,52,BEYOND,HF,lure,-,-,-,liberal,no,m,1,2.88353226524,1,89
2019_Oct_28,24,001,0,recog,53,MASKING,LF,lure,-,-,-,liberal,no,m,1,0.833610975264,1,90
2019_Oct_28,24,001,0,recog,54,BEAUTIFUL,HF,target,left,yellow,imageability,liberal,no,z,1,0.650258053021,3,93
2019_Oct_28,24,001,0,recog,55,MONEY,HF,lure,-,-,-,conservative,no,m,1,0.966937758593,3,96
2019_Oct_28,24,001,0,recog,56,ASSERTIVE,LF,target,right,aqua,pleasantness,liberal,no,z,1,1.11688859691,3,99
2019_Oct_28,24,001,0,recog,57,ACCORDING,HF,lure,-,-,-,liberal,no,m,1,1.46684977348,1,100
2019_Oct_28,24,001,0,recog,58,SMIRK,LF,lure,-,-,-,conservative,no,m,1,0.850203135643,3,103
2019_Oct_28,24,001,0,recog,59,TAVERNS,LF,lure,-,-,-,conservative,no,m,1,0.96692566064,3,106
2019_Oct_28,24,001,0,recog,60,BIRCHES,LF,target,right,aqua,pleasantness,liberal,no,z,1,0.800141069474,3,109
2019_Oct_28,24,001,0,recog,61,UNRAVEL,LF,target,left,yellow,imageability,liberal,no,z,1,0.800244818593,3,112
2019_Oct_28,24,001,0,recog,62,FRONT,HF,target,right,aqua,pleasantness,liberal,no,z,1,1.10002074982,3,115
2019_Oct_28,24,001,0,recog,63,DAYBREAK,LF,target,left,yellow,imageability,liberal,no,z,1,0.666659578977,3,118
2019_Oct_28,24,001,0,recog,64,FOLLOWED,HF,lure,-,-,-,conservative,no,m,1,0.816923131069,3,121
2019_Oct_28,24,001,0,recog,65,TOPICAL,LF,target,left,yellow,imageability,conservative,no,z,1,0.750308131218,1,122
2019_Oct_28,24,001,0,recog,66,JUNCTURE,LF,target,left,yellow,imageability,conservative,no,z,1,1.15026061925,1,123
2019_Oct_28,24,001,0,recog,67,CELLO,LF,target,left,yellow,imageability,conservative,no,z,1,0.733692874745,1,124
2019_Oct_28,24,001,0,recog,68,LEECH,LF,lure,-,-,-,liberal,no,m,1,1.10007024145,1,125
2019_Oct_28,24,001,0,recog,69,FLOOR,HF,target,left,yellow,imageability,conservative,no,z,1,0.916843431215,1,126
2019_Oct_28,24,001,0,recog,70,RIVER,HF,target,right,aqua,pleasantness,conservative,no,z,1,1.116895929,1,127
2019_Oct_28,24,001,0,recog,71,RAYON,LF,lure,-,-,-,liberal,no,m,1,1.20022296896,1,128
2019_Oct_28,24,001,0,recog,72,DEGREE,HF,lure,-,-,-,liberal,no,m,1,1.50020566522,1,129
2019_Oct_28,24,001,0,recog,73,HEALTH,HF,target,left,yellow,imageability,liberal,yes,m,0,1.05018964459,-3,126
2019_Oct_28,24,001,0,recog,74,BREAK,HF,lure,-,-,-,liberal,no,m,1,2.25011676358,1,127
2019_Oct_28,24,001,0,recog,75,AFRAID,HF,lure,-,-,-,liberal,no,m,1,1.78348951914,1,128
2019_Oct_28,24,001,0,recog,76,CESSATION,LF,lure,-,-,-,conservative,no,m,1,0.683585716202,3,131
2019_Oct_28,24,001,0,recog,77,REQUIRED,HF,target,left,yellow,imageability,liberal,yes,m,0,0.71670001547,-3,128
2019_Oct_28,24,001,0,recog,78,SPEAK,HF,lure,-,-,-,liberal,no,m,1,5.41672245168,1,129
2019_Oct_28,24,001,0,recog,79,BEFALL,LF,lure,-,-,-,liberal,no,m,1,0.783523979978,1,130
2019_Oct_28,24,001,0,recog,80,GRIEVE,LF,lure,-,-,-,liberal,no,m,1,0.616933689283,1,131
2019_Oct_28,24,001,0,recog,81,WHITE,HF,target,right,aqua,pleasantness,conservative,no,z,1,0.666752329956,1,132
2019_Oct_28,24,001,0,recog,82,SCYTHE,LF,target,right,aqua,pleasantness,liberal,yes,z,1,0.850246028389,3,135
2019_Oct_28,24,001,0,recog,83,NORTH,HF,target,right,aqua,pleasantness,conservative,no,z,1,2.93346015411,1,136
2019_Oct_28,24,001,0,recog,84,DOODLE,LF,lure,-,-,-,conservative,no,m,1,0.766799475316,3,139
2019_Oct_28,24,001,0,recog,85,SYRINGE,LF,lure,-,-,-,liberal,no,m,1,1.26693658546,1,140
2019_Oct_28,24,001,0,recog,86,OTHERS,HF,lure,-,-,-,liberal,no,m,1,2.40015632023,1,141
2019_Oct_28,24,001,0,recog,87,EAVES,LF,lure,-,-,-,conservative,no,m,1,0.616915359049,3,144
2019_Oct_28,24,001,0,recog,88,OMELETTE,LF,lure,-,-,-,liberal,no,m,1,0.933574901364,1,145
2019_Oct_28,24,001,0,recog,89,FUSELAGE,LF,lure,-,-,-,liberal,no,m,1,0.667002354335,1,146
2019_Oct_28,24,001,0,recog,90,HALLMARK,LF,lure,-,-,-,conservative,no,m,1,0.666924267542,3,149
2019_Oct_28,24,001,0,recog,91,BUILDING,HF,lure,-,-,-,conservative,no,m,1,1.30038926083,3,152
2019_Oct_28,24,001,0,recog,92,SOUND,HF,target,right,aqua,pleasantness,conservative,no,z,1,1.3499956374,1,153
2019_Oct_28,24,001,0,recog,93,NAGGED,LF,lure,-,-,-,conservative,no,m,1,0.883563426639,3,156
2019_Oct_28,24,001,0,recog,94,DEVELOPED,HF,lure,-,-,-,liberal,no,m,1,1.41684783047,1,157
2019_Oct_28,24,001,0,recog,95,LONGER,HF,lure,-,-,-,conservative,no,m,1,0.800271214129,3,160
2019_Oct_28,24,001,1,source,0,THWART,LF,target,right,aqua,pleasantness,conservative,no,8,1,3.53338888616,-,-
2019_Oct_28,24,001,1,source,1,PEOPLED,LF,target,right,aqua,pleasantness,liberal,yes,8,1,1.26684090164,-,-
2019_Oct_28,24,001,1,source,2,ZIPPED,LF,target,left,yellow,imageability,conservative,no,9,0,3.28323216267,-,-
2019_Oct_28,24,001,1,source,3,NERVY,LF,target,left,yellow,imageability,liberal,no,1,1,4.54999754375,-,-
2019_Oct_28,24,001,1,source,4,BLUECOATS,LF,target,right,aqua,pleasantness,conservative,no,8,1,2.13346352687,-,-
2019_Oct_28,24,001,1,source,5,CHURCH,HF,target,left,yellow,imageability,liberal,no,8,0,2.56657650636,-,-
2019_Oct_28,24,001,1,source,6,DERANGED,LF,target,right,aqua,pleasantness,liberal,no,8,1,1.2002577964,-,-
2019_Oct_28,24,001,1,source,7,CLASS,HF,target,right,aqua,pleasantness,conservative,no,1,0,3.61679511272,-,-
2019_Oct_28,24,001,1,source,8,FUNNILY,LF,target,left,yellow,imageability,conservative,no,1,1,1.93351844425,-,-
2019_Oct_28,24,001,1,source,9,ROUND,HF,target,left,yellow,imageability,liberal,no,1,1,1.51665045052,-,-
2019_Oct_28,24,001,1,source,10,PLACE,HF,target,right,aqua,pleasantness,conservative,no,1,0,0.700027202066,-,-
2019_Oct_28,24,001,1,source,11,ARGUABLE,LF,target,left,yellow,imageability,liberal,no,8,0,1.63352804929,-,-
2019_Oct_28,24,001,1,source,12,MOUTH,HF,target,right,aqua,pleasantness,liberal,no,8,1,2.84990618587,-,-
2019_Oct_28,24,001,1,source,13,PLEASE,HF,target,left,yellow,imageability,conservative,no,9,0,1.08340036089,-,-
2019_Oct_28,24,001,1,source,14,EFFECT,HF,target,left,yellow,imageability,liberal,no,1,1,1.01684071834,-,-
2019_Oct_28,24,001,1,source,15,ANSWER,HF,target,right,aqua,pleasantness,conservative,no,1,0,2.56681736562,-,-
2019_Oct_28,24,001,1,source,16,SKYLIGHT,LF,target,left,yellow,imageability,conservative,yes,1,1,0.783566139513,-,-
2019_Oct_28,24,001,1,source,17,TAUNTED,LF,target,left,yellow,imageability,liberal,no,9,0,2.41679980526,-,-
2019_Oct_28,24,001,1,source,18,SEVEN,HF,target,right,aqua,pleasantness,conservative,no,9,1,1.73335229901,-,-
2019_Oct_28,24,001,1,source,19,WETTER,LF,target,left,yellow,imageability,conservative,no,1,1,1.81684907693,-,-
2019_Oct_28,24,001,1,source,20,TEACUP,LF,target,right,aqua,pleasantness,conservative,yes,9,1,1.18329609852,-,-
2019_Oct_28,24,001,1,source,21,POSITION,HF,target,left,yellow,imageability,conservative,yes,9,0,0.550135020497,-,-
2019_Oct_28,24,001,1,source,22,EARLIER,HF,target,right,aqua,pleasantness,liberal,no,1,0,2.066846694,-,-
2019_Oct_28,24,001,1,source,23,MOVED,HF,target,right,aqua,pleasantness,conservative,no,8,1,1.60020295234,-,-
2019_Oct_28,24,001,1,source,24,LEVEL,HF,target,left,yellow,imageability,conservative,no,1,1,0.900210211113,-,-
2019_Oct_28,24,001,1,source,25,FREEDOM,HF,target,left,yellow,imageability,liberal,no,1,1,1.46685747217,-,-
2019_Oct_28,24,001,1,source,26,CORNER,HF,target,left,yellow,imageability,conservative,no,1,1,1.83346323359,-,-
2019_Oct_28,24,001,1,source,27,REBATE,LF,target,left,yellow,imageability,liberal,no,1,1,0.850172707456,-,-
2019_Oct_28,24,001,1,source,28,POUNDS,HF,target,left,yellow,imageability,conservative,no,8,0,1.41685882861,-,-
2019_Oct_28,24,001,1,source,29,PIECE,HF,target,right,aqua,pleasantness,liberal,no,1,0,2.2167967991,-,-
2019_Oct_28,24,001,1,source,30,EMOTIVE,LF,target,right,aqua,pleasantness,conservative,no,8,1,1.15025182074,-,-
2019_Oct_28,24,001,1,source,31,FIGURE,HF,target,right,aqua,pleasantness,conservative,no,8,1,2.08341355865,-,-
2019_Oct_28,24,001,1,source,32,CALLED,HF,target,left,yellow,imageability,liberal,no,1,1,1.88326097779,-,-
2019_Oct_28,24,001,1,source,33,SURER,LF,target,left,yellow,imageability,liberal,no,9,0,1.86660869425,-,-
2019_Oct_28,24,001,1,source,34,DEEPEN,LF,target,right,aqua,pleasantness,liberal,no,9,1,2.60020698499,-,-
2019_Oct_28,24,001,1,source,35,HEDGED,LF,target,right,aqua,pleasantness,conservative,no,9,1,0.916906120611,-,-
2019_Oct_28,24,001,1,source,36,YANKED,LF,target,right,aqua,pleasantness,conservative,no,1,0,1.98355851414,-,-
2019_Oct_28,24,001,1,source,37,BICEPS,LF,target,right,aqua,pleasantness,liberal,no,9,1,0.866936805422,-,-
2019_Oct_28,24,001,1,source,38,GADGET,LF,target,left,yellow,imageability,conservative,no,8,0,2.10015126108,-,-
2019_Oct_28,24,001,1,source,39,BEGAN,HF,target,left,yellow,imageability,conservative,no,8,0,2.23351800432,-,-
2019_Oct_28,24,001,1,source,40,MOODILY,LF,target,right,aqua,pleasantness,liberal,no,8,1,0.800190927708,-,-
2019_Oct_28,24,001,1,source,41,CABLED,LF,target,right,aqua,pleasantness,liberal,no,1,0,1.56690828358,-,-
2019_Oct_28,24,001,1,source,42,KETCHUP,LF,target,left,yellow,imageability,conservative,no,9,0,1.30001569068,-,-
2019_Oct_28,24,001,1,source,43,PAUNCH,LF,target,left,yellow,imageability,liberal,no,8,0,1.48332205413,-,-
2019_Oct_28,24,001,1,source,44,LETTER,HF,target,left,yellow,imageability,liberal,no,1,1,1.55023070431,-,-
2019_Oct_28,24,001,1,source,45,WALKED,HF,target,right,aqua,pleasantness,liberal,no,1,0,1.16689090652,-,-
2019_Oct_28,24,001,1,source,46,DECIDED,HF,target,right,aqua,pleasantness,liberal,no,8,1,1.13353538138,-,-
2019_Oct_28,24,001,1,source,47,TIMES,HF,target,right,aqua,pleasantness,liberal,no,8,1,0.816694369759,-,-
2019_Oct_28,24,001,1,recog,0,LEVEL,HF,target,left,yellow,imageability,conservative,no,z,1,1.54994438607,1,161
2019_Oct_28,24,001,1,recog,1,THWART,LF,target,right,aqua,pleasantness,conservative,no,z,1,0.783628462306,1,162
2019_Oct_28,24,001,1,recog,2,GNARLED,LF,lure,-,-,-,conservative,no,m,1,1.0168454842,3,165
2019_Oct_28,24,001,1,recog,3,LAWFUL,LF,lure,-,-,-,conservative,no,m,1,0.883593854826,3,168
2019_Oct_28,24,001,1,recog,4,ROUND,HF,target,left,yellow,imageability,liberal,no,z,1,0.700254863561,3,171
2019_Oct_28,24,001,1,recog,5,PLEASE,HF,target,left,yellow,imageability,conservative,no,z,1,0.983624136371,1,172
2019_Oct_28,24,001,1,recog,6,EFFECT,HF,target,left,yellow,imageability,liberal,no,z,1,0.750245441821,3,175
2019_Oct_28,24,001,1,recog,7,DALES,LF,lure,-,-,-,liberal,yes,z,0,1.15027638325,-1,174
2019_Oct_28,24,001,1,recog,8,ABHORRENT,LF,lure,-,-,-,conservative,yes,m,1,2.66684728056,3,177
2019_Oct_28,24,001,1,recog,9,CLICKS,LF,lure,-,-,-,conservative,no,m,1,1.3668799817,3,180
2019_Oct_28,24,001,1,recog,10,CHURCH,HF,target,left,yellow,imageability,liberal,no,z,1,1.16694113136,3,183
2019_Oct_28,24,001,1,recog,11,PEOPLED,LF,target,right,aqua,pleasantness,liberal,no,z,1,1.36687668226,3,186
2019_Oct_28,24,001,1,recog,12,LADDIE,LF,lure,-,-,-,liberal,no,m,1,0.833569182332,1,187
2019_Oct_28,24,001,1,recog,13,EIGHT,HF,lure,-,-,-,liberal,no,m,1,2.24994849205,1,188
2019_Oct_28,24,001,1,recog,14,EMOTIVE,LF,target,right,aqua,pleasantness,conservative,no,z,1,1.26684456769,1,189
2019_Oct_28,24,001,1,recog,15,SEVEN,HF,target,right,aqua,pleasantness,conservative,no,z,1,1.0168927762,1,190
2019_Oct_28,24,001,1,recog,16,PLACE,HF,target,right,aqua,pleasantness,conservative,no,z,1,1.08360932554,1,191
2019_Oct_28,24,001,1,recog,17,PIANOS,LF,lure,-,-,-,liberal,no,m,1,0.783547442676,1,192
2019_Oct_28,24,001,1,recog,18,TEACUP,LF,target,right,aqua,pleasantness,conservative,no,z,1,3.10012156611,1,193
2019_Oct_28,24,001,1,recog,19,UNDER,HF,lure,-,-,-,conservative,no,m,1,1.05021750655,3,196
2019_Oct_28,24,001,1,recog,20,WAFER,LF,lure,-,-,-,liberal,no,m,1,0.916863961075,1,197
2019_Oct_28,24,001,1,recog,21,DECIDED,HF,target,right,aqua,pleasantness,liberal,no,z,1,0.833543886611,3,200
2019_Oct_28,24,001,1,recog,22,SENSE,HF,lure,-,-,-,liberal,no,m,1,1.08349677791,1,201
2019_Oct_28,24,001,1,recog,23,HEDGED,LF,target,right,aqua,pleasantness,conservative,no,z,1,0.716902014639,1,202
2019_Oct_28,24,001,1,recog,24,TASSELS,LF,lure,-,-,-,liberal,no,m,1,0.73358472637,1,203
2019_Oct_28,24,001,1,recog,25,WRITE,HF,lure,-,-,-,liberal,no,m,1,1.36675460291,1,204
2019_Oct_28,24,001,1,recog,26,KOSHER,LF,lure,-,-,-,conservative,no,m,1,0.733656214279,3,207
2019_Oct_28,24,001,1,recog,27,MOODILY,LF,target,right,aqua,pleasantness,liberal,no,z,1,0.883572591756,3,210
2019_Oct_28,24,001,1,recog,28,KETCHUP,LF,target,left,yellow,imageability,conservative,no,z,1,0.933569402295,1,211
2019_Oct_28,24,001,1,recog,29,CALLED,HF,target,left,yellow,imageability,liberal,no,z,1,1.05024023603,3,214
2019_Oct_28,24,001,1,recog,30,CORNER,HF,target,left,yellow,imageability,conservative,no,z,1,0.933683416345,1,215
2019_Oct_28,24,001,1,recog,31,AUDACIOUS,LF,lure,-,-,-,conservative,no,m,1,0.750147191771,3,218
2019_Oct_28,24,001,1,recog,32,FIGURE,HF,target,right,aqua,pleasantness,conservative,no,z,1,1.11694028817,1,219
2019_Oct_28,24,001,1,recog,33,DERANGED,LF,target,right,aqua,pleasantness,liberal,no,z,1,0.950240016072,3,222
2019_Oct_28,24,001,1,recog,34,TIMES,HF,target,right,aqua,pleasantness,liberal,no,z,1,1.03361618105,3,225
2019_Oct_28,24,001,1,recog,35,HOWEVER,HF,lure,-,-,-,conservative,no,m,1,2.03354066049,3,228
2019_Oct_28,24,001,1,recog,36,MOBILIZE,LF,lure,-,-,-,liberal,no,m,1,1.68353402495,1,229
2019_Oct_28,24,001,1,recog,37,JABBED,LF,lure,-,-,-,conservative,no,m,1,1.41686249466,3,232
2019_Oct_28,24,001,1,recog,38,SIBLINGS,LF,lure,-,-,-,conservative,no,m,1,0.700221135931,3,235
2019_Oct_28,24,001,1,recog,39,TAUNTED,LF,target,left,yellow,imageability,liberal,no,z,1,1.10020148592,3,238
2019_Oct_28,24,001,1,recog,40,POUNDS,HF,target,left,yellow,imageability,conservative,no,z,1,2.2334531153,1,239
2019_Oct_28,24,001,1,recog,41,FREEDOM,HF,target,left,yellow,imageability,liberal,no,z,1,0.683549422341,3,242
2019_Oct_28,24,001,1,recog,42,TERMS,HF,lure,-,-,-,liberal,no,m,1,0.700359345889,1,243
2019_Oct_28,24,001,1,recog,43,GESTURING,LF,lure,-,-,-,liberal,no,m,1,1.33359264503,1,244
2019_Oct_28,24,001,1,recog,44,FUNNILY,LF,target,left,yellow,imageability,conservative,no,z,1,0.867009393144,1,245
2019_Oct_28,24,001,1,recog,45,POSITION,HF,target,left,yellow,imageability,conservative,no,z,1,1.50004215954,1,246
2019_Oct_28,24,001,1,recog,46,CABLED,LF,target,right,aqua,pleasantness,liberal,no,z,1,0.816949526604,3,249
2019_Oct_28,24,001,1,recog,47,BOOKS,HF,lure,-,-,-,conservative,no,m,1,0.900019576688,3,252
2019_Oct_28,24,001,1,recog,48,BLUECOATS,LF,target,right,aqua,pleasantness,conservative,no,z,1,1.11695385254,1,253
2019_Oct_28,24,001,1,recog,49,BICEPS,LF,target,right,aqua,pleasantness,liberal,no,z,1,0.700292623841,3,256
2019_Oct_28,24,001,1,recog,50,BEGAN,HF,target,left,yellow,imageability,conservative,no,z,1,1.2002185697,1,257
2019_Oct_28,24,001,1,recog,51,LIQUEUR,LF,lure,-,-,-,liberal,no,m,1,0.900243938741,1,258
2019_Oct_28,24,001,1,recog,52,CAUGHT,HF,lure,-,-,-,liberal,no,m,1,0.650319276,1,259
2019_Oct_28,24,001,1,recog,53,WALKED,HF,target,right,aqua,pleasantness,liberal,no,z,1,0.700254496955,3,262
2019_Oct_28,24,001,1,recog,54,RINSING,LF,lure,-,-,-,conservative,no,m,1,0.733594624696,3,265
2019_Oct_28,24,001,1,recog,55,POLICE,HF,lure,-,-,-,liberal,no,z,0,1.50024232568,-1,264
2019_Oct_28,24,001,1,recog,56,DEEPEN,LF,target,right,aqua,pleasantness,liberal,yes,m,0,1.93354447318,-3,261
2019_Oct_28,24,001,1,recog,57,PIECE,HF,target,right,aqua,pleasantness,liberal,no,z,1,1.40025347046,3,264
2019_Oct_28,24,001,1,recog,58,LAXATIVE,LF,lure,-,-,-,liberal,no,m,1,1.33333455535,1,265
2019_Oct_28,24,001,1,recog,59,VARIOUS,HF,lure,-,-,-,liberal,no,z,0,0.716861321522,-1,264
2019_Oct_28,24,001,1,recog,60,WETTER,LF,target,left,yellow,imageability,conservative,no,z,1,1.03357218849,1,265
2019_Oct_28,24,001,1,recog,61,DOCTOR,HF,lure,-,-,-,conservative,no,m,1,3.11687283291,3,268
2019_Oct_28,24,001,1,recog,62,REBATE,LF,target,left,yellow,imageability,liberal,no,z,1,0.833533621681,3,271
2019_Oct_28,24,001,1,recog,63,IRISES,LF,lure,-,-,-,liberal,no,m,1,0.76698461067,1,272
2019_Oct_28,24,001,1,recog,64,CLASS,HF,target,right,aqua,pleasantness,conservative,no,z,1,0.683617244204,1,273
2019_Oct_28,24,001,1,recog,65,ARRIVED,HF,lure,-,-,-,conservative,no,m,1,0.766866197364,3,276
2019_Oct_28,24,001,1,recog,66,HUSBAND,HF,lure,-,-,-,conservative,no,m,1,1.73352020395,3,279
2019_Oct_28,24,001,1,recog,67,LETTER,HF,target,left,yellow,imageability,liberal,no,z,1,0.783332612344,3,282
2019_Oct_28,24,001,1,recog,68,YOUNG,HF,lure,-,-,-,conservative,no,m,1,0.983679127071,3,285
2019_Oct_28,24,001,1,recog,69,GADGET,LF,target,left,yellow,imageability,conservative,no,z,1,0.983557047718,1,286
2019_Oct_28,24,001,1,recog,70,DOUBT,HF,lure,-,-,-,conservative,no,m,1,1.15022249237,3,289
2019_Oct_28,24,001,1,recog,71,YANKED,LF,target,right,aqua,pleasantness,conservative,no,z,1,0.966906230593,1,290
2019_Oct_28,24,001,1,recog,72,LEARN,HF,lure,-,-,-,liberal,no,m,1,1.61689519579,1,291
2019_Oct_28,24,001,1,recog,73,SKYLIGHT,LF,target,left,yellow,imageability,conservative,no,z,1,0.700319019377,1,292
2019_Oct_28,24,001,1,recog,74,LEDGES,LF,lure,-,-,-,liberal,no,m,1,0.950278509561,1,293
2019_Oct_28,24,001,1,recog,75,SURER,LF,target,left,yellow,imageability,liberal,no,z,1,0.850254093691,3,296
2019_Oct_28,24,001,1,recog,76,KIPPERS,LF,lure,-,-,-,conservative,no,m,1,0.616711160253,3,299
2019_Oct_28,24,001,1,recog,77,MOUTH,HF,target,right,aqua,pleasantness,liberal,no,z,1,0.916916018938,3,302
2019_Oct_28,24,001,1,recog,78,PAUNCH,LF,target,left,yellow,imageability,liberal,yes,z,1,0.866942671097,3,305
2019_Oct_28,24,001,1,recog,79,ATTACK,HF,lure,-,-,-,liberal,no,m,1,1.85026142578,1,306
2019_Oct_28,24,001,1,recog,80,ARGUABLE,LF,target,left,yellow,imageability,liberal,no,m,0,1.73349527483,-3,303
2019_Oct_28,24,001,1,recog,81,NERVY,LF,target,left,yellow,imageability,liberal,no,z,1,1.10030413523,3,306
2019_Oct_28,24,001,1,recog,82,BUTCHERED,LF,lure,-,-,-,liberal,no,m,1,0.933680850112,1,307
2019_Oct_28,24,001,1,recog,83,ANSWER,HF,target,right,aqua,pleasantness,conservative,no,z,1,1.80021732324,1,308
2019_Oct_28,24,001,1,recog,84,ZIPPED,LF,target,left,yellow,imageability,conservative,no,z,1,0.866950736399,1,309
2019_Oct_28,24,001,1,recog,85,PEWTER,LF,lure,-,-,-,conservative,no,m,1,0.733371362457,3,312
2019_Oct_28,24,001,1,recog,86,SHALL,HF,lure,-,-,-,conservative,no,m,1,1.70022040272,3,315
2019_Oct_28,24,001,1,recog,87,JEERED,LF,lure,-,-,-,conservative,no,m,1,0.583537104424,3,318
2019_Oct_28,24,001,1,recog,88,NATIONAL,HF,lure,-,-,-,conservative,no,m,1,0.750248741263,3,321
2019_Oct_28,24,001,1,recog,89,MOVED,HF,target,right,aqua,pleasantness,conservative,no,m,0,1.46687690222,-1,320
2019_Oct_28,24,001,1,recog,90,EARLIER,HF,target,right,aqua,pleasantness,liberal,no,z,1,2.58345938424,3,323
2019_Oct_28,24,001,1,recog,91,TALKING,HF,lure,-,-,-,liberal,no,m,1,1.30020962455,1,324
2019_Oct_28,24,001,1,recog,92,SEEMED,HF,lure,-,-,-,conservative,no,m,1,1.09996869196,3,327
2019_Oct_28,24,001,1,recog,93,INDEED,HF,lure,-,-,-,liberal,no,m,1,0.70029885612,1,328
2019_Oct_28,24,001,1,recog,94,BELIEVE,HF,lure,-,-,-,conservative,no,m,1,3.46672696091,3,331
2019_Oct_28,24,001,1,recog,95,SIMILAR,HF,lure,-,-,-,liberal,no,m,1,0.933604229738,1,332
2019_Oct_28,24,001,2,source,0,SUMMER,HF,target,left,yellow,imageability,conservative,no,1,1,2.55010495891,-,-
2019_Oct_28,24,001,2,source,1,ETHER,LF,target,left,yellow,imageability,conservative,no,1,1,1.10023484695,-,-
2019_Oct_28,24,001,2,source,2,SORRY,HF,target,left,yellow,imageability,liberal,no,8,0,2.21682209482,-,-
2019_Oct_28,24,001,2,source,3,SARDINES,LF,target,right,aqua,pleasantness,conservative,no,9,1,3.18350176373,-,-
2019_Oct_28,24,001,2,source,4,NEGATION,LF,target,right,aqua,pleasantness,conservative,no,8,1,2.65009748018,-,-
2019_Oct_28,24,001,2,source,5,MAKES,HF,target,right,aqua,pleasantness,liberal,no,9,1,1.11692855682,-,-
2019_Oct_28,24,001,2,source,6,BOGEY,LF,target,right,aqua,pleasantness,conservative,no,9,1,2.16690703712,-,-
2019_Oct_28,24,001,2,source,7,STICKER,LF,target,left,yellow,imageability,liberal,no,3,1,1.81659465329,-,-
2019_Oct_28,24,001,2,source,8,FIELD,HF,target,right,aqua,pleasantness,liberal,no,9,1,2.03351206533,-,-
2019_Oct_28,24,001,2,source,9,AFIELD,LF,target,right,aqua,pleasantness,conservative,no,3,0,1.71660359844,-,-
2019_Oct_28,24,001,2,source,10,AHEAD,HF,target,left,yellow,imageability,liberal,yes,3,1,1.18356408653,-,-
2019_Oct_28,24,001,2,source,11,TYRANTS,LF,target,left,yellow,imageability,liberal,no,1,1,1.78353974398,-,-
2019_Oct_28,24,001,2,source,12,REDDENED,LF,target,left,yellow,imageability,liberal,no,1,1,1.23355759762,-,-
2019_Oct_28,24,001,2,source,13,LOTTERY,LF,target,right,aqua,pleasantness,conservative,yes,1,0,0.533622046724,-,-
2019_Oct_28,24,001,2,source,14,QUESTION,HF,target,left,yellow,imageability,conservative,no,8,0,1.48356291339,-,-
2019_Oct_28,24,001,2,source,15,PUBLIC,HF,target,right,aqua,pleasantness,liberal,no,1,0,1.08359099531,-,-
2019_Oct_28,24,001,2,source,16,WOMAN,HF,target,right,aqua,pleasantness,conservative,no,1,0,0.867003894075,-,-
2019_Oct_28,24,001,2,source,17,PRIVATE,HF,target,right,aqua,pleasantness,conservative,no,9,1,2.85015034457,-,-
2019_Oct_28,24,001,2,source,18,HOTEL,HF,target,right,aqua,pleasantness,conservative,no,9,1,1.1835065296,-,-
2019_Oct_28,24,001,2,source,19,BOMBARDED,LF,target,right,aqua,pleasantness,liberal,no,1,0,2.76683613578,-,-
2019_Oct_28,24,001,2,source,20,ALONE,HF,target,left,yellow,imageability,liberal,no,1,1,1.86681142663,-,-
2019_Oct_28,24,001,2,source,21,ATONEMENT,LF,target,left,yellow,imageability,conservative,no,1,1,0.783350942577,-,-
2019_Oct_28,24,001,2,source,22,ANYONE,HF,target,left,yellow,imageability,conservative,no,1,1,1.40021534358,-,-
2019_Oct_28,24,001,2,source,23,TREES,HF,target,right,aqua,pleasantness,liberal,no,1,0,1.63357497469,-,-
2019_Oct_28,24,001,2,source,24,TUSKS,LF,target,left,yellow,imageability,conservative,no,9,0,1.65017336734,-,-
2019_Oct_28,24,001,2,source,25,ARDENTLY,LF,target,right,aqua,pleasantness,liberal,no,9,1,0.91687055996,-,-
2019_Oct_28,24,001,2,source,26,TESTIFIES,LF,target,right,aqua,pleasantness,liberal,no,3,0,1.66685974512,-,-
2019_Oct_28,24,001,2,source,27,FEELING,HF,target,right,aqua,pleasantness,liberal,no,2,0,1.7001947404,-,-
2019_Oct_28,24,001,2,source,28,DICHOTOMY,LF,target,left,yellow,imageability,liberal,no,1,1,1.50021079768,-,-
2019_Oct_28,24,001,2,source,29,TODAY,HF,target,left,yellow,imageability,conservative,no,1,1,2.49995344121,-,-
2019_Oct_28,24,001,2,source,30,AROUND,HF,target,left,yellow,imageability,conservative,no,8,0,3.04990955863,-,-
2019_Oct_28,24,001,2,source,31,MELODIC,LF,target,left,yellow,imageability,liberal,no,9,0,1.84996117657,-,-
2019_Oct_28,24,001,2,source,32,ACORNS,LF,target,right,aqua,pleasantness,liberal,no,1,0,2.21690054822,-,-
2019_Oct_28,24,001,2,source,33,RETURN,HF,target,right,aqua,pleasantness,conservative,no,8,1,1.54994438607,-,-
2019_Oct_28,24,001,2,source,34,HORDE,LF,target,right,aqua,pleasantness,liberal,yes,8,1,0.700242399002,-,-
2019_Oct_28,24,001,2,source,35,TEDIUM,LF,target,right,aqua,pleasantness,liberal,no,9,1,2.21662889417,-,-
2019_Oct_28,24,001,2,source,36,ADDED,HF,target,left,yellow,imageability,liberal,no,2,1,3.33344600317,-,-
2019_Oct_28,24,001,2,source,37,MAGGOT,LF,target,left,yellow,imageability,liberal,no,1,1,1.28357053877,-,-
2019_Oct_28,24,001,2,source,38,SPOKE,HF,target,left,yellow,imageability,liberal,no,1,1,1.25017615354,-,-
2019_Oct_28,24,001,2,source,39,RABBIS,LF,target,right,aqua,pleasantness,conservative,no,9,1,1.5169162389,-,-
2019_Oct_28,24,001,2,source,40,MOISTENED,LF,target,left,yellow,imageability,conservative,no,1,1,1.21695187287,-,-
2019_Oct_28,24,001,2,source,41,YORKER,LF,target,left,yellow,imageability,conservative,no,2,1,2.0335098657,-,-
2019_Oct_28,24,001,2,source,42,CHIEF,HF,target,right,aqua,pleasantness,conservative,no,9,1,1.18358974885,-,-
2019_Oct_28,24,001,2,source,43,HIKING,LF,target,left,yellow,imageability,conservative,yes,9,0,1.03355129202,-,-
2019_Oct_28,24,001,2,source,44,ANIMAL,HF,target,left,yellow,imageability,liberal,no,9,0,1.60021761653,-,-
2019_Oct_28,24,001,2,source,45,MAYBE,HF,target,left,yellow,imageability,conservative,no,1,1,2.75017578693,-,-
2019_Oct_28,24,001,2,source,46,GENERAL,HF,target,right,aqua,pleasantness,liberal,no,9,1,2.1166283076,-,-
2019_Oct_28,24,001,2,source,47,SUPPORT,HF,target,right,aqua,pleasantness,conservative,no,9,1,1.70020683835,-,-
2019_Oct_28,24,001,2,recog,0,AROUND,HF,target,left,yellow,imageability,conservative,no,z,1,1.70021123761,1,333
2019_Oct_28,24,001,2,recog,1,TREES,HF,target,right,aqua,pleasantness,liberal,no,z,1,1.11688713049,3,336
2019_Oct_28,24,001,2,recog,2,MOISTENED,LF,target,left,yellow,imageability,conservative,no,z,1,0.716924744128,1,337
2019_Oct_28,24,001,2,recog,3,TOMBSTONE,LF,lure,-,-,-,conservative,no,m,1,0.900295629999,3,340
2019_Oct_28,24,001,2,recog,4,SKIDDED,LF,lure,-,-,-,liberal,no,m,1,1.18356335332,1,341
2019_Oct_28,24,001,2,recog,5,LOTTERY,LF,target,right,aqua,pleasantness,conservative,no,z,1,0.866950736399,1,342
2019_Oct_28,24,001,2,recog,6,TEDIUM,LF,target,right,aqua,pleasantness,liberal,no,z,1,0.850291120762,3,345
2019_Oct_28,24,001,2,recog,7,TARIFF,LF,lure,-,-,-,liberal,no,m,1,0.700211604211,1,346
2019_Oct_28,24,001,2,recog,8,BOGEY,LF,target,right,aqua,pleasantness,conservative,no,z,1,0.766910556527,1,347
2019_Oct_28,24,001,2,recog,9,HIKING,LF,target,left,yellow,imageability,conservative,no,z,1,0.683586449411,1,348
2019_Oct_28,24,001,2,recog,10,OSTRACISM,LF,lure,-,-,-,conservative,no,m,1,0.783586302769,3,351
2019_Oct_28,24,001,2,recog,11,PARENTS,HF,lure,-,-,-,liberal,no,m,1,1.51666768094,1,352
2019_Oct_28,24,001,2,recog,12,ARDENTLY,LF,target,right,aqua,pleasantness,liberal,no,z,1,0.700250830909,3,355
2019_Oct_28,24,001,2,recog,13,ADDED,HF,target,left,yellow,imageability,liberal,no,z,1,1.31691983163,3,358
2019_Oct_28,24,001,2,recog,14,PHYSICAL,HF,lure,-,-,-,liberal,no,m,1,0.900239539486,1,359
2019_Oct_28,24,001,2,recog,15,PRIVATE,HF,target,right,aqua,pleasantness,conservative,no,z,1,1.43353750769,1,360
2019_Oct_28,24,001,2,recog,16,HIPPY,LF,lure,-,-,-,conservative,no,m,1,0.61691389263,3,363
2019_Oct_28,24,001,2,recog,17,ETHER,LF,target,left,yellow,imageability,conservative,no,z,1,0.783577137653,1,364
2019_Oct_28,24,001,2,recog,18,ALMOST,HF,lure,-,-,-,conservative,no,m,1,1.88348130719,3,367
2019_Oct_28,24,001,2,recog,19,QUESTION,HF,target,left,yellow,imageability,conservative,no,z,1,0.966861504824,1,368
2019_Oct_28,24,001,2,recog,20,SUMMER,HF,target,left,yellow,imageability,conservative,yes,m,0,1.10023411374,-1,367
2019_Oct_28,24,001,2,recog,21,POTASH,LF,lure,-,-,-,conservative,no,m,1,1.58353747103,3,370
2019_Oct_28,24,001,2,recog,22,REDDENED,LF,target,left,yellow,imageability,liberal,no,z,1,0.766913489366,3,373
2019_Oct_28,24,001,2,recog,23,ORPHANAGE,LF,lure,-,-,-,liberal,no,m,1,0.783584836352,1,374
2019_Oct_28,24,001,2,recog,24,RABBIS,LF,target,right,aqua,pleasantness,conservative,no,z,1,1.15023532353,1,375
2019_Oct_28,24,001,2,recog,25,BECAME,HF,lure,-,-,-,liberal,no,m,1,0.983568412463,1,376
2019_Oct_28,24,001,2,recog,26,DAUGHTER,HF,lure,-,-,-,conservative,no,m,1,1.35018883806,3,379
2019_Oct_28,24,001,2,recog,27,TUSKS,LF,target,left,yellow,imageability,conservative,no,z,1,0.766656866102,1,380
2019_Oct_28,24,001,2,recog,28,EVIDENCE,HF,lure,-,-,-,conservative,no,m,1,0.95023744984,3,383
2019_Oct_28,24,001,2,recog,29,ANIMAL,HF,target,left,yellow,imageability,liberal,no,z,1,0.850270224297,3,386
2019_Oct_28,24,001,2,recog,30,DWELT,LF,lure,-,-,-,liberal,no,m,1,0.716868653615,1,387
2019_Oct_28,24,001,2,recog,31,THEORY,HF,lure,-,-,-,liberal,no,m,1,0.883673774641,1,388
2019_Oct_28,24,001,2,recog,32,WRONG,HF,lure,-,-,-,liberal,no,m,1,0.600272240622,1,389
2019_Oct_28,24,001,2,recog,33,TYRANTS,LF,target,left,yellow,imageability,liberal,no,z,1,0.800038053564,3,392
2019_Oct_28,24,001,2,recog,34,SARDINES,LF,target,right,aqua,pleasantness,conservative,no,z,1,0.916858462006,1,393
2019_Oct_28,24,001,2,recog,35,ARTIFACTS,LF,lure,-,-,-,liberal,no,m,1,0.76703263588,1,394
2019_Oct_28,24,001,2,recog,36,BEREAVED,LF,lure,-,-,-,conservative,no,m,1,1.11663160704,3,397
2019_Oct_28,24,001,2,recog,37,MELODIC,LF,target,left,yellow,imageability,liberal,no,z,1,0.766920454854,3,400
2019_Oct_28,24,001,2,recog,38,REWRITE,LF,lure,-,-,-,liberal,no,m,1,0.666880274983,1,401
2019_Oct_28,24,001,2,recog,39,FEELING,HF,target,right,aqua,pleasantness,liberal,yes,m,0,0.583373598745,-3,398
2019_Oct_28,24,001,2,recog,40,CASES,HF,lure,-,-,-,conservative,no,m,1,1.7668691302,3,401
2019_Oct_28,24,001,2,recog,41,EYEBALL,LF,lure,-,-,-,conservative,no,m,1,2.63348369013,3,404
2019_Oct_28,24,001,2,recog,42,TAKEN,HF,lure,-,-,-,conservative,no,m,1,1.13359257171,3,407
2019_Oct_28,24,001,2,recog,43,CHIEF,HF,target,right,aqua,pleasantness,conservative,no,z,1,0.716938308501,1,408
2019_Oct_28,24,001,2,recog,44,INHABITS,LF,lure,-,-,-,conservative,no,m,1,1.81689600232,3,411
2019_Oct_28,24,001,2,recog,45,SPOKE,HF,target,left,yellow,imageability,liberal,no,z,1,1.45025578007,3,414
2019_Oct_28,24,001,2,recog,46,YORKER,LF,target,left,yellow,imageability,conservative,no,z,1,0.800197526592,1,415
2019_Oct_28,24,001,2,recog,47,TRIED,HF,lure,-,-,-,liberal,no,m,1,2.33347496493,1,416
2019_Oct_28,24,001,2,recog,48,GUESSWORK,LF,lure,-,-,-,liberal,no,m,1,2.75016662182,1,417
2019_Oct_28,24,001,2,recog,49,AFIELD,LF,target,right,aqua,pleasantness,conservative,no,z,1,0.883368759564,1,418
2019_Oct_28,24,001,2,recog,50,SUPPORT,HF,target,right,aqua,pleasantness,conservative,no,z,1,0.733589125626,1,419
2019_Oct_28,24,001,2,recog,51,MENFOLK,LF,lure,-,-,-,conservative,no,m,1,0.716958471758,3,422
2019_Oct_28,24,001,2,recog,52,ENERGY,HF,lure,-,-,-,conservative,no,m,1,0.866855419186,3,425
2019_Oct_28,24,001,2,recog,53,HORDE,LF,target,right,aqua,pleasantness,liberal,no,z,1,0.833539487355,3,428
2019_Oct_28,24,001,2,recog,54,TINGLING,LF,lure,-,-,-,conservative,no,m,1,1.40021351055,3,431
2019_Oct_28,24,001,2,recog,55,NEGATION,LF,target,right,aqua,pleasantness,conservative,no,z,1,0.850241629132,1,432
2019_Oct_28,24,001,2,recog,56,FRIEND,HF,lure,-,-,-,liberal,no,m,1,2.71686095492,1,433
2019_Oct_28,24,001,2,recog,57,NOTHING,HF,lure,-,-,-,liberal,no,m,1,0.833357284838,1,434
2019_Oct_28,24,001,2,recog,58,RETURN,HF,target,right,aqua,pleasantness,conservative,no,z,1,0.733563463299,1,435
2019_Oct_28,24,001,2,recog,59,SORRY,HF,target,left,yellow,imageability,liberal,no,z,1,0.750303731962,3,438
2019_Oct_28,24,001,2,recog,60,TESTIFIES,LF,target,right,aqua,pleasantness,liberal,no,z,1,0.666934532473,3,441
2019_Oct_28,24,001,2,recog,61,SEDAN,LF,lure,-,-,-,conservative,no,m,1,0.716889916685,3,444
2019_Oct_28,24,001,2,recog,62,FIELD,HF,target,right,aqua,pleasantness,liberal,no,z,1,0.666918768473,3,447
2019_Oct_28,24,001,2,recog,63,PAPER,HF,lure,-,-,-,liberal,no,m,1,0.750270370938,1,448
2019_Oct_28,24,001,2,recog,64,EMIGRATED,LF,lure,-,-,-,liberal,no,m,1,0.950197123327,1,449
2019_Oct_28,24,001,2,recog,65,MUSIC,HF,lure,-,-,-,conservative,no,m,1,1.41688705717,3,452
2019_Oct_28,24,001,2,recog,66,ACORNS,LF,target,right,aqua,pleasantness,liberal,no,z,1,0.70027759305,3,455
2019_Oct_28,24,001,2,recog,67,ACROSS,HF,lure,-,-,-,liberal,no,m,1,1.34995054503,1,456
2019_Oct_28,24,001,2,recog,68,HOTEL,HF,target,right,aqua,pleasantness,conservative,no,z,1,0.733577027672,1,457
2019_Oct_28,24,001,2,recog,69,ALONE,HF,target,left,yellow,imageability,liberal,no,z,1,0.733583626557,3,460
2019_Oct_28,24,001,2,recog,70,EMBATTLED,LF,lure,-,-,-,conservative,no,m,1,0.750302265544,3,463
2019_Oct_28,24,001,2,recog,71,MAGGOT,LF,target,left,yellow,imageability,liberal,no,z,1,0.633585972826,3,466
2019_Oct_28,24,001,2,recog,72,WOMAN,HF,target,right,aqua,pleasantness,conservative,no,z,1,0.716871953057,1,467
2019_Oct_28,24,001,2,recog,73,TODAY,HF,target,left,yellow,imageability,conservative,no,z,1,0.767011006205,1,468
2019_Oct_28,24,001,2,recog,74,AHEAD,HF,target,left,yellow,imageability,liberal,no,z,1,1.45024551514,3,471
2019_Oct_28,24,001,2,recog,75,FINAL,HF,lure,-,-,-,conservative,no,m,1,3.10012669857,3,474
2019_Oct_28,24,001,2,recog,76,GENERAL,HF,target,right,aqua,pleasantness,liberal,no,z,1,0.717003197526,3,477
2019_Oct_28,24,001,2,recog,77,BAPTIZED,LF,lure,-,-,-,conservative,no,m,1,0.916910519867,3,480
2019_Oct_28,24,001,2,recog,78,STICKER,LF,target,left,yellow,imageability,liberal,no,m,0,1.13356104371,-3,477
2019_Oct_28,24,001,2,recog,79,BOMBARDED,LF,target,right,aqua,pleasantness,liberal,no,z,1,2.2335004073,3,480
2019_Oct_28,24,001,2,recog,80,RIPEN,LF,lure,-,-,-,liberal,no,m,1,0.716910446547,1,481
2019_Oct_28,24,001,2,recog,81,ATONEMENT,LF,target,left,yellow,imageability,conservative,no,z,1,0.800215123616,1,482
2019_Oct_28,24,001,2,recog,82,GAMBITS,LF,lure,-,-,-,liberal,no,m,1,1.3668957457,1,483
2019_Oct_28,24,001,2,recog,83,PUBLIC,HF,target,right,aqua,pleasantness,liberal,no,z,1,0.683627509135,3,486
2019_Oct_28,24,001,2,recog,84,DYEING,LF,lure,-,-,-,liberal,no,m,1,1.71688808366,1,487
2019_Oct_28,24,001,2,recog,85,DICHOTOMY,LF,target,left,yellow,imageability,liberal,no,z,1,0.850355276578,3,490
2019_Oct_28,24,001,2,recog,86,KNOWLEDGE,HF,lure,-,-,-,liberal,no,m,1,1.08330357725,1,491
2019_Oct_28,24,001,2,recog,87,MAJOR,HF,lure,-,-,-,liberal,no,m,1,0.833531055448,1,492
2019_Oct_28,24,001,2,recog,88,STUDENT,HF,lure,-,-,-,conservative,no,m,1,1.16686781042,3,495
2019_Oct_28,24,001,2,recog,89,MAYBE,HF,target,left,yellow,imageability,conservative,no,z,1,0.983595907812,1,496
2019_Oct_28,24,001,2,recog,90,ACTION,HF,lure,-,-,-,conservative,no,m,1,2.11685780212,3,499
2019_Oct_28,24,001,2,recog,91,USUAL,HF,lure,-,-,-,conservative,yes,m,1,0.583622889915,3,502
2019_Oct_28,24,001,2,recog,92,MAKES,HF,target,right,aqua,pleasantness,liberal,no,z,1,1.63350165375,3,505
2019_Oct_28,24,001,2,recog,93,QUALITY,HF,lure,-,-,-,conservative,yes,m,1,0.533375321787,3,508
2019_Oct_28,24,001,2,recog,94,SUNBURN,LF,lure,-,-,-,liberal,no,m,1,5.53335002607,1,509
2019_Oct_28,24,001,2,recog,95,ANYONE,HF,target,left,yellow,imageability,conservative,no,z,1,1.20017384393,1,510
2019_Oct_28,24,001,3,source,0,AVAILABLE,HF,target,left,yellow,imageability,conservative,yes,8,0,1.30020925794,-,-
2019_Oct_28,24,001,3,source,1,PAGANISM,LF,target,left,yellow,imageability,conservative,no,1,1,2.43351771104,-,-
2019_Oct_28,24,001,3,source,2,WAKED,LF,target,right,aqua,pleasantness,conservative,no,1,0,3.31673213004,-,-
2019_Oct_28,24,001,3,source,3,GREATER,HF,target,left,yellow,imageability,conservative,no,1,1,1.41686029503,-,-
2019_Oct_28,24,001,3,source,4,OBSCURELY,LF,target,right,aqua,pleasantness,liberal,no,9,1,3.36679786225,-,-
2019_Oct_28,24,001,3,source,5,FLYWHEEL,LF,target,left,yellow,imageability,conservative,no,9,0,2.24995215809,-,-
2019_Oct_28,24,001,3,source,6,HESITATES,LF,target,right,aqua,pleasantness,conservative,no,9,1,3.44984225001,-,-
2019_Oct_28,24,001,3,source,7,WICKEDLY,LF,target,left,yellow,imageability,liberal,yes,9,0,0.70024459863,-,-
2019_Oct_28,24,001,3,source,8,STYLED,LF,target,right,aqua,pleasantness,conservative,no,1,0,1.70020427212,-,-
2019_Oct_28,24,001,3,source,9,GROUND,HF,target,left,yellow,imageability,liberal,no,1,1,1.00024195908,-,-
2019_Oct_28,24,001,3,source,10,BLEACH,LF,target,right,aqua,pleasantness,liberal,no,9,1,1.13351155208,-,-
2019_Oct_28,24,001,3,source,11,EXCEPT,HF,target,right,aqua,pleasantness,conservative,no,9,1,2.03368107007,-,-
2019_Oct_28,24,001,3,source,12,KRONOR,LF,target,right,aqua,pleasantness,conservative,no,9,1,1.90014312246,-,-
2019_Oct_28,24,001,3,source,13,FATHER,HF,target,right,aqua,pleasantness,liberal,no,9,1,1.55020247575,-,-
2019_Oct_28,24,001,3,source,14,UTILIZE,LF,target,left,yellow,imageability,conservative,no,1,1,1.98358307665,-,-
2019_Oct_28,24,001,3,source,15,LAVISHED,LF,target,left,yellow,imageability,conservative,no,1,1,1.26683283634,-,-
2019_Oct_28,24,001,3,source,16,LARGE,HF,target,left,yellow,imageability,liberal,no,1,1,1.45024844798,-,-
2019_Oct_28,24,001,3,source,17,MAILBOX,LF,target,left,yellow,imageability,liberal,no,1,1,4.35000260289,-,-
2019_Oct_28,24,001,3,source,18,COACHED,LF,target,left,yellow,imageability,liberal,no,1,1,1.06690865018,-,-
2019_Oct_28,24,001,3,source,19,REPORT,HF,target,right,aqua,pleasantness,conservative,no,9,1,1.56682909697,-,-
2019_Oct_28,24,001,3,source,20,BIBLES,LF,target,left,yellow,imageability,conservative,no,1,1,1.98358234344,-,-
2019_Oct_28,24,001,3,source,21,ALKALINE,LF,target,left,yellow,imageability,conservative,no,1,1,0.916932882752,-,-
2019_Oct_28,24,001,3,source,22,PUMPKIN,LF,target,right,aqua,pleasantness,conservative,no,9,1,1.41681960191,-,-
2019_Oct_28,24,001,3,source,23,CUPID,LF,target,left,yellow,imageability,liberal,no,1,1,0.850187005038,-,-
2019_Oct_28,24,001,3,source,24,UNTIL,HF,target,left,yellow,imageability,conservative,no,8,0,1.48357721097,-,-
2019_Oct_28,24,001,3,source,25,WEEKS,HF,target,left,yellow,imageability,liberal,no,2,1,1.48349509153,-,-
2019_Oct_28,24,001,3,source,26,RESEARCH,HF,target,right,aqua,pleasantness,liberal,no,9,1,2.28353057886,-,-
2019_Oct_28,24,001,3,source,27,CUCKOO,LF,target,right,aqua,pleasantness,liberal,no,9,1,1.18363007537,-,-
2019_Oct_28,24,001,3,source,28,GIVEN,HF,target,left,yellow,imageability,conservative,no,1,1,1.05002137305,-,-
2019_Oct_28,24,001,3,source,29,INTEREST,HF,target,left,yellow,imageability,liberal,no,9,0,1.96683180985,-,-
2019_Oct_28,24,001,3,source,30,NEITHER,HF,target,left,yellow,imageability,conservative,no,2,1,1.56687895521,-,-
2019_Oct_28,24,001,3,source,31,COUNCIL,HF,target,left,yellow,imageability,liberal,no,1,1,2.58348211373,-,-
2019_Oct_28,24,001,3,source,32,OUTSIDE,HF,target,left,yellow,imageability,liberal,no,8,0,1.85018517201,-,-
2019_Oct_28,24,001,3,source,33,TRADE,HF,target,left,yellow,imageability,conservative,yes,9,0,0.817018081675,-,-
2019_Oct_28,24,001,3,source,34,BEHIND,HF,target,right,aqua,pleasantness,conservative,no,1,0,1.56660876757,-,-
2019_Oct_28,24,001,3,source,35,EITHER,HF,target,right,aqua,pleasantness,conservative,no,1,0,1.51661049061,-,-
2019_Oct_28,24,001,3,source,36,ALTHOUGH,HF,target,right,aqua,pleasantness,liberal,no,8,1,1.2002185697,-,-
2019_Oct_28,24,001,3,source,37,FRUGAL,LF,target,right,aqua,pleasantness,liberal,no,8,1,1.26691972164,-,-
2019_Oct_28,24,001,3,source,38,UNOPENED,LF,target,left,yellow,imageability,liberal,no,1,1,1.46694069143,-,-
2019_Oct_28,24,001,3,source,39,PROBABLY,HF,target,right,aqua,pleasantness,liberal,no,9,1,1.78353167868,-,-
2019_Oct_28,24,001,3,source,40,AMONG,HF,target,right,aqua,pleasantness,conservative,no,1,0,2.04995868365,-,-
2019_Oct_28,24,001,3,source,41,CLEAR,HF,target,right,aqua,pleasantness,liberal,no,8,1,2.05015591696,-,-
2019_Oct_28,24,001,3,source,42,DWINDLE,LF,target,left,yellow,imageability,liberal,no,9,0,2.11682224147,-,-
2019_Oct_28,24,001,3,source,43,SHORT,HF,target,right,aqua,pleasantness,conservative,no,9,1,1.31694916,-,-
2019_Oct_28,24,001,3,source,44,GEARING,LF,target,right,aqua,pleasantness,liberal,yes,9,1,0.566884820881,-,-
2019_Oct_28,24,001,3,source,45,INLAID,LF,target,right,aqua,pleasantness,conservative,no,9,1,0.816690337108,-,-
2019_Oct_28,24,001,3,source,46,MANDARIN,LF,target,right,aqua,pleasantness,liberal,no,1,0,2.73321298924,-,-
2019_Oct_28,24,001,3,source,47,BROUGHT,HF,target,right,aqua,pleasantness,liberal,no,8,1,1.36688364775,-,-
2019_Oct_28,24,001,3,recog,0,AUBURN,LF,lure,-,-,-,conservative,no,m,1,1.21685545585,3,513
2019_Oct_28,24,001,3,recog,1,RESEARCH,HF,target,right,aqua,pleasantness,liberal,no,z,1,0.983613138231,3,516
2019_Oct_28,24,001,3,recog,2,GREATER,HF,target,left,yellow,imageability,conservative,no,z,1,0.716919611663,1,517
2019_Oct_28,24,001,3,recog,3,LAVISHED,LF,target,left,yellow,imageability,conservative,no,z,1,0.850266191645,1,518
2019_Oct_28,24,001,3,recog,4,BROUGHT,HF,target,right,aqua,pleasantness,liberal,no,z,1,2.60012046629,3,521
2019_Oct_28,24,001,3,recog,5,DEXTERITY,LF,lure,-,-,-,conservative,no,m,1,0.683582783366,3,524
2019_Oct_28,24,001,3,recog,6,TRADE,HF,target,left,yellow,imageability,conservative,no,z,1,0.800245185198,1,525
2019_Oct_28,24,001,3,recog,7,BLEACH,LF,target,right,aqua,pleasantness,liberal,no,z,1,0.700280525887,3,528
2019_Oct_28,24,001,3,recog,8,OUTSIDE,HF,target,left,yellow,imageability,liberal,no,z,1,0.800195693569,3,531
2019_Oct_28,24,001,3,recog,9,REPORT,HF,target,right,aqua,pleasantness,conservative,no,z,1,1.06689141976,1,532
2019_Oct_28,24,001,3,recog,10,AVAILABLE,HF,target,left,yellow,imageability,conservative,no,m,0,1.00022876131,-1,531
2019_Oct_28,24,001,3,recog,11,HATCHES,LF,lure,-,-,-,liberal,no,m,1,1.46690843022,1,532
2019_Oct_28,24,001,3,recog,12,UDDER,LF,lure,-,-,-,conservative,no,m,1,0.683342290707,3,535
2019_Oct_28,24,001,3,recog,13,SKATES,LF,lure,-,-,-,liberal,no,m,1,0.766868763596,1,536
2019_Oct_28,24,001,3,recog,14,ALLOWED,HF,lure,-,-,-,conservative,no,m,1,1.13351778436,3,539
2019_Oct_28,24,001,3,recog,15,HAVING,HF,lure,-,-,-,conservative,no,m,1,0.850247861412,3,542
2019_Oct_28,24,001,3,recog,16,FLYWHEEL,LF,target,left,yellow,imageability,conservative,no,z,1,0.900254570277,1,543
2019_Oct_28,24,001,3,recog,17,PUMPKIN,LF,target,right,aqua,pleasantness,conservative,no,z,1,1.95025614668,1,544
2019_Oct_28,24,001,3,recog,18,BASIC,HF,lure,-,-,-,liberal,no,m,1,0.800225021941,1,545
2019_Oct_28,24,001,3,recog,19,BIBLES,LF,target,left,yellow,imageability,conservative,no,z,1,0.700038933415,1,546
2019_Oct_28,24,001,3,recog,20,GIVEN,HF,target,left,yellow,imageability,conservative,no,z,1,2.31685347618,1,547
2019_Oct_28,24,001,3,recog,21,INTEREST,HF,target,left,yellow,imageability,liberal,no,z,1,0.70024459863,3,550
2019_Oct_28,24,001,3,recog,22,UNOPENED,LF,target,left,yellow,imageability,liberal,no,z,1,0.800240419337,3,553
2019_Oct_28,24,001,3,recog,23,PUNCTUAL,LF,lure,-,-,-,conservative,no,m,1,0.983533218416,3,556
2019_Oct_28,24,001,3,recog,24,CLEAR,HF,target,right,aqua,pleasantness,liberal,no,z,1,0.650294713488,3,559
2019_Oct_28,24,001,3,recog,25,GEARING,LF,target,right,aqua,pleasantness,liberal,no,m,0,0.717013829061,-3,556
2019_Oct_28,24,001,3,recog,26,BOVINE,LF,lure,-,-,-,liberal,no,m,1,2.20013351742,1,557
2019_Oct_28,24,001,3,recog,27,AMONG,HF,target,right,aqua,pleasantness,conservative,no,z,1,0.783534978118,1,558
2019_Oct_28,24,001,3,recog,28,PAGANISM,LF,target,left,yellow,imageability,conservative,no,z,1,0.966931526315,1,559
2019_Oct_28,24,001,3,recog,29,TABLE,HF,lure,-,-,-,conservative,no,m,1,0.966691766866,3,562
2019_Oct_28,24,001,3,recog,30,UTILIZE,LF,target,left,yellow,imageability,conservative,no,z,1,0.766918988435,1,563
2019_Oct_28,24,001,3,recog,31,STAFF,HF,lure,-,-,-,conservative,no,m,1,0.733566762741,3,566
2019_Oct_28,24,001,3,recog,32,WAKED,LF,target,right,aqua,pleasantness,conservative,no,z,1,0.800346734689,1,567
2019_Oct_28,24,001,3,recog,33,SHORT,HF,target,right,aqua,pleasantness,conservative,no,z,1,0.866918841793,1,568
2019_Oct_28,24,001,3,recog,34,WEEKS,HF,target,left,yellow,imageability,liberal,no,z,1,0.700248997886,3,571
2019_Oct_28,24,001,3,recog,35,DWINDLE,LF,target,left,yellow,imageability,liberal,no,z,1,0.700208304768,3,574
2019_Oct_28,24,001,3,recog,36,RANGE,HF,lure,-,-,-,liberal,no,m,1,0.733538900787,1,575
2019_Oct_28,24,001,3,recog,37,FATHER,HF,target,right,aqua,pleasantness,liberal,no,z,1,0.800226488361,3,578
2019_Oct_28,24,001,3,recog,38,FRUGAL,LF,target,right,aqua,pleasantness,liberal,no,z,1,0.750250574286,3,581
2019_Oct_28,24,001,3,recog,39,KRONOR,LF,target,right,aqua,pleasantness,conservative,yes,m,0,0.583582563403,-1,580
2019_Oct_28,24,001,3,recog,40,ENOUGH,HF,lure,-,-,-,conservative,no,m,1,2.60009993643,3,583
2019_Oct_28,24,001,3,recog,41,INLAID,LF,target,right,aqua,pleasantness,conservative,no,z,1,0.816908833486,1,584
2019_Oct_28,24,001,3,recog,42,SLOWLY,HF,lure,-,-,-,liberal,no,m,1,1.76685923188,1,585
2019_Oct_28,24,001,3,recog,43,SUCCESS,HF,lure,-,-,-,liberal,no,m,1,1.1835541882,1,586
2019_Oct_28,24,001,3,recog,44,SLIGHTLY,HF,lure,-,-,-,liberal,no,m,1,0.733581426928,1,587
2019_Oct_28,24,001,3,recog,45,LARGE,HF,target,left,yellow,imageability,liberal,no,z,1,0.683535491364,3,590
2019_Oct_28,24,001,3,recog,46,JADED,LF,lure,-,-,-,liberal,no,m,1,0.633599537198,1,591
2019_Oct_28,24,001,3,recog,47,MERELY,HF,lure,-,-,-,liberal,no,m,1,1.01685501592,1,592
2019_Oct_28,24,001,3,recog,48,GLASS,HF,lure,-,-,-,conservative,no,m,1,1.51690744039,3,595
2019_Oct_28,24,001,3,recog,49,RUFFLES,LF,lure,-,-,-,liberal,yes,m,1,0.716963604223,1,596
2019_Oct_28,24,001,3,recog,50,RATHER,HF,lure,-,-,-,conservative,no,m,1,2.43344768955,3,599
2019_Oct_28,24,001,3,recog,51,MANDARIN,LF,target,right,aqua,pleasantness,liberal,no,z,1,0.783606832631,3,602
2019_Oct_28,24,001,3,recog,52,TRUTH,HF,lure,-,-,-,liberal,no,m,1,0.716966170456,1,603
2019_Oct_28,24,001,3,recog,53,EITHER,HF,target,right,aqua,pleasantness,conservative,no,z,1,0.800230521012,1,604
2019_Oct_28,24,001,3,recog,54,HESITATES,LF,target,right,aqua,pleasantness,conservative,no,m,0,0.450074677369,-1,603
2019_Oct_28,24,001,3,recog,55,PROBABLY,HF,target,right,aqua,pleasantness,liberal,no,z,1,1.30017956296,3,606
2019_Oct_28,24,001,3,recog,56,SALAMI,LF,lure,-,-,-,liberal,no,m,1,0.750280269264,1,607
2019_Oct_28,24,001,3,recog,57,MAILBOX,LF,target,left,yellow,imageability,liberal,no,z,1,0.866910776491,3,610
2019_Oct_28,24,001,3,recog,58,OTTOMAN,LF,lure,-,-,-,liberal,no,m,1,0.716935009059,1,611
2019_Oct_28,24,001,3,recog,59,ATROCITY,LF,lure,-,-,-,liberal,no,m,1,1.25024030936,1,612
2019_Oct_28,24,001,3,recog,60,ALKALINE,LF,target,left,yellow,imageability,conservative,no,z,1,0.750048208512,1,613
2019_Oct_28,24,001,3,recog,61,CUCKOO,LF,target,right,aqua,pleasantness,liberal,no,z,1,0.75024140917,3,616
2019_Oct_28,24,001,3,recog,62,CERTAIN,HF,lure,-,-,-,liberal,no,m,1,0.800247018221,1,617
2019_Oct_28,24,001,3,recog,63,YOGHURT,LF,lure,-,-,-,liberal,no,m,1,0.86690601063,1,618
2019_Oct_28,24,001,3,recog,64,UNFAILING,LF,lure,-,-,-,conservative,no,m,1,0.766918255225,3,621
2019_Oct_28,24,001,3,recog,65,TWENTY,HF,lure,-,-,-,liberal,no,m,1,0.616917925282,1,622
2019_Oct_28,24,001,3,recog,66,NAIVELY,LF,lure,-,-,-,conservative,no,m,1,1.10023008109,3,625
2019_Oct_28,24,001,3,recog,67,GROUND,HF,target,left,yellow,imageability,liberal,no,z,1,0.850291853972,3,628
2019_Oct_28,24,001,3,recog,68,GEOLOGIST,LF,lure,-,-,-,liberal,no,m,1,0.766963347599,1,629
2019_Oct_28,24,001,3,recog,69,OBSCURELY,LF,target,right,aqua,pleasantness,liberal,no,m,0,0.700344681703,-3,626
2019_Oct_28,24,001,3,recog,70,ALTHOUGH,HF,target,right,aqua,pleasantness,liberal,yes,z,1,5.06641630012,3,629
2019_Oct_28,24,001,3,recog,71,ORDER,HF,lure,-,-,-,conservative,no,m,1,1.46668370156,3,632
2019_Oct_28,24,001,3,recog,72,ROPED,LF,lure,-,-,-,conservative,no,m,1,0.733582160137,3,635
2019_Oct_28,24,001,3,recog,73,BIGNESS,LF,lure,-,-,-,conservative,no,m,1,0.750210247774,3,638
2019_Oct_28,24,001,3,recog,74,BEHIND,HF,target,right,aqua,pleasantness,conservative,no,z,1,0.766890759876,1,639
2019_Oct_28,24,001,3,recog,75,JOWLS,LF,lure,-,-,-,conservative,no,m,1,0.600297902948,3,642
2019_Oct_28,24,001,3,recog,76,UNTIL,HF,target,left,yellow,imageability,conservative,no,z,1,1.11690509412,1,643
2019_Oct_28,24,001,3,recog,77,LIGHT,HF,lure,-,-,-,liberal,no,m,1,1.10017985625,1,644
2019_Oct_28,24,001,3,recog,78,STYLED,LF,target,right,aqua,pleasantness,conservative,no,z,1,1.45018502537,1,645
2019_Oct_28,24,001,3,recog,79,NEITHER,HF,target,left,yellow,imageability,conservative,no,z,1,0.98363586772,1,646
2019_Oct_28,24,001,3,recog,80,SCHOOL,HF,lure,-,-,-,liberal,no,m,1,1.88356122701,1,647
2019_Oct_28,24,001,3,recog,81,EXCEPT,HF,target,right,aqua,pleasantness,conservative,no,z,1,0.883317434912,1,648
2019_Oct_28,24,001,3,recog,82,WAITING,HF,lure,-,-,-,conservative,yes,m,1,1.13350971906,3,651
2019_Oct_28,24,001,3,recog,83,SUDDENLY,HF,lure,-,-,-,conservative,no,m,1,2.76683283634,3,654
2019_Oct_28,24,001,3,recog,84,PLUGGING,LF,lure,-,-,-,liberal,no,m,1,0.683611011924,1,655
2019_Oct_28,24,001,3,recog,85,COUNCIL,HF,target,left,yellow,imageability,liberal,no,z,1,0.983564013207,3,658
2019_Oct_28,24,001,3,recog,86,LUMBER,LF,lure,-,-,-,conservative,no,m,1,0.633530615522,3,661
2019_Oct_28,24,001,3,recog,87,RAMBLE,LF,lure,-,-,-,conservative,no,m,1,0.81690443423,3,664
2019_Oct_28,24,001,3,recog,88,SUBJECT,HF,lure,-,-,-,conservative,no,m,1,0.916933615961,3,667
2019_Oct_28,24,001,3,recog,89,MIDDLE,HF,lure,-,-,-,liberal,no,m,1,1.08359612777,1,668
2019_Oct_28,24,001,3,recog,90,AFTERNOON,HF,lure,-,-,-,conservative,no,m,1,2.98350132381,3,671
2019_Oct_28,24,001,3,recog,91,ADHERE,LF,lure,-,-,-,liberal,no,m,1,2.33350502652,1,672
2019_Oct_28,24,001,3,recog,92,COACHED,LF,target,left,yellow,imageability,liberal,no,m,0,1.36698776347,-3,669
2019_Oct_28,24,001,3,recog,93,WEBBED,LF,lure,-,-,-,conservative,no,m,1,1.80017296408,3,672
2019_Oct_28,24,001,3,recog,94,CUPID,LF,target,left,yellow,imageability,liberal,no,z,1,0.833349952745,3,675
2019_Oct_28,24,001,3,recog,95,WICKEDLY,LF,target,left,yellow,imageability,liberal,no,m,0,1.76690395764,-3,672
2019_Oct_28,24,001,4,source,0,OFTEN,HF,target,right,aqua,pleasantness,liberal,no,8,1,1.80015500045,-,-
2019_Oct_28,24,001,4,source,1,MILES,HF,target,left,yellow,imageability,conservative,yes,2,1,1.51693786858,-,-
2019_Oct_28,24,001,4,source,2,VILLAGE,HF,target,left,yellow,imageability,liberal,no,8,0,0.583586229449,-,-
2019_Oct_28,24,001,4,source,3,PAYOFF,LF,target,right,aqua,pleasantness,liberal,no,2,0,2.01684731722,-,-
2019_Oct_28,24,001,4,source,4,CAPITAL,HF,target,right,aqua,pleasantness,conservative,no,8,1,1.05022703827,-,-
2019_Oct_28,24,001,4,source,5,TOTAL,HF,target,right,aqua,pleasantness,conservative,yes,8,1,0.566968773348,-,-
2019_Oct_28,24,001,4,source,6,TOYED,LF,target,left,yellow,imageability,conservative,no,1,1,2.18350506318,-,-
2019_Oct_28,24,001,4,source,7,LATER,HF,target,right,aqua,pleasantness,liberal,no,8,1,1.60020918462,-,-
2019_Oct_28,24,001,4,source,8,APART,HF,target,right,aqua,pleasantness,conservative,no,9,1,1.83356148364,-,-
2019_Oct_28,24,001,4,source,9,OVENS,LF,target,left,yellow,imageability,conservative,no,2,1,1.53352636291,-,-
2019_Oct_28,24,001,4,source,10,FOUND,HF,target,left,yellow,imageability,liberal,no,8,0,2.48344120064,-,-
2019_Oct_28,24,001,4,source,11,OBVIOUSLY,HF,target,left,yellow,imageability,conservative,no,1,1,1.7002893244,-,-
2019_Oct_28,24,001,4,source,12,SEGMENTED,LF,target,right,aqua,pleasantness,conservative,no,9,1,1.96676215496,-,-
2019_Oct_28,24,001,4,source,13,GETTING,HF,target,left,yellow,imageability,liberal,no,1,1,1.08354443652,-,-
2019_Oct_28,24,001,4,source,14,EASILY,HF,target,right,aqua,pleasantness,liberal,no,1,0,0.800240785941,-,-
2019_Oct_28,24,001,4,source,15,IDEAS,HF,target,left,yellow,imageability,conservative,no,2,1,0.916889623401,-,-
2019_Oct_28,24,001,4,source,16,CHAIR,HF,target,left,yellow,imageability,conservative,no,8,0,0.283559907234,-,-
2019_Oct_28,24,001,4,source,17,NINETIES,LF,target,right,aqua,pleasantness,liberal,no,2,0,0.28355954063,-,-
2019_Oct_28,24,001,4,source,18,SCOFFED,LF,target,left,yellow,imageability,liberal,no,1,1,1.91686029503,-,-
2019_Oct_28,24,001,4,source,19,RUINOUS,LF,target,right,aqua,pleasantness,conservative,no,9,1,0.866902344584,-,-
2019_Oct_28,24,001,4,source,20,JOCKEYS,LF,target,right,aqua,pleasantness,conservative,no,9,1,1.58342052414,-,-
2019_Oct_28,24,001,4,source,21,BEECHES,LF,target,left,yellow,imageability,liberal,no,1,1,2.93340919606,-,-
2019_Oct_28,24,001,4,source,22,VELVETY,LF,target,right,aqua,pleasantness,liberal,no,9,1,1.86688694719,-,-
2019_Oct_28,24,001,4,source,23,VALUE,HF,target,right,aqua,pleasantness,liberal,no,1,0,1.10026930778,-,-
2019_Oct_28,24,001,4,source,24,JAUNDICE,LF,target,left,yellow,imageability,liberal,no,1,1,0.966863337848,-,-
2019_Oct_28,24,001,4,source,25,SUING,LF,target,left,yellow,imageability,liberal,no,1,1,1.4002094779,-,-
2019_Oct_28,24,001,4,source,26,DOING,HF,target,left,yellow,imageability,liberal,no,2,1,1.1335683758,-,-
2019_Oct_28,24,001,4,source,27,ROTARY,LF,target,right,aqua,pleasantness,liberal,yes,8,1,0.700273927004,-,-
2019_Oct_28,24,001,4,source,28,SOCIAL,HF,target,left,yellow,imageability,conservative,no,8,0,2.21681916199,-,-
2019_Oct_28,24,001,4,source,29,LANGUAGE,HF,target,right,aqua,pleasantness,conservative,no,8,1,0.966940691431,-,-
2019_Oct_28,24,001,4,source,30,SIFTED,LF,target,right,aqua,pleasantness,conservative,no,1,0,2.6167701836,-,-
2019_Oct_28,24,001,4,source,31,BUMBLING,LF,target,left,yellow,imageability,liberal,no,1,1,0.933607895785,-,-
2019_Oct_28,24,001,4,source,32,BRING,HF,target,right,aqua,pleasantness,conservative,no,1,0,1.00018953461,-,-
2019_Oct_28,24,001,4,source,33,MOGUL,LF,target,right,aqua,pleasantness,liberal,no,8,1,1.16684728056,-,-
2019_Oct_28,24,001,4,source,34,SUGARY,LF,target,left,yellow,imageability,conservative,no,1,1,1.35018920467,-,-
2019_Oct_28,24,001,4,source,35,FURTHER,HF,target,left,yellow,imageability,liberal,no,9,0,0.833377081489,-,-
2019_Oct_28,24,001,4,source,36,WATCH,HF,target,left,yellow,imageability,liberal,no,2,1,0.666697339257,-,-
2019_Oct_28,24,001,4,source,37,UNSAVOURY,LF,target,left,yellow,imageability,conservative,no,8,0,0.78361929719,-,-
2019_Oct_28,24,001,4,source,38,CLOSE,HF,target,right,aqua,pleasantness,liberal,no,2,0,0.433596897645,-,-
2019_Oct_28,24,001,4,source,39,COVER,HF,target,left,yellow,imageability,conservative,no,1,1,0.0835942947515,-,-
2019_Oct_28,24,001,4,source,40,RAFTERS,LF,target,left,yellow,imageability,conservative,no,1,1,3.68338628327,-,-
2019_Oct_28,24,001,4,source,41,OEDIPAL,LF,target,left,yellow,imageability,conservative,no,1,1,1.28337183904,-,-
2019_Oct_28,24,001,4,source,42,SHUNNED,LF,target,right,aqua,pleasantness,conservative,no,8,1,1.23355723102,-,-
2019_Oct_28,24,001,4,source,43,PEEKED,LF,target,right,aqua,pleasantness,liberal,no,2,0,1.01684841704,-,-
2019_Oct_28,24,001,4,source,44,NEEDED,HF,target,right,aqua,pleasantness,conservative,no,8,1,0.366925074073,-,-
2019_Oct_28,24,001,4,source,45,FLUFF,LF,target,left,yellow,imageability,liberal,yes,1,1,1.11694908668,-,-
2019_Oct_28,24,001,4,source,46,WHOLE,HF,target,right,aqua,pleasantness,liberal,no,1,0,1.18364620597,-,-
2019_Oct_28,24,001,4,source,47,GATEHOUSE,LF,target,right,aqua,pleasantness,conservative,no,1,0,1.73353376832,-,-
2019_Oct_28,24,001,4,recog,0,BRACES,LF,lure,-,-,-,liberal,no,m,1,1.28350015067,1,673
2019_Oct_28,24,001,4,recog,1,APPEARED,HF,lure,-,-,-,conservative,no,m,1,3.18339764801,3,676
2019_Oct_28,24,001,4,recog,2,FAMILY,HF,lure,-,-,-,conservative,no,m,1,0.883522000312,3,679
2019_Oct_28,24,001,4,recog,3,JAUNDICE,LF,target,left,yellow,imageability,liberal,no,z,1,0.733583259951,3,682
2019_Oct_28,24,001,4,recog,4,LYNCH,LF,lure,-,-,-,conservative,no,m,1,2.05017278078,3,685
2019_Oct_28,24,001,4,recog,5,CAPITAL,HF,target,right,aqua,pleasantness,conservative,no,m,0,0.900190781066,-1,684
2019_Oct_28,24,001,4,recog,6,AREAS,HF,lure,-,-,-,conservative,no,m,1,2.83350062726,3,687
2019_Oct_28,24,001,4,recog,7,OVENS,LF,target,left,yellow,imageability,conservative,no,z,1,1.43351661122,1,688
2019_Oct_28,24,001,4,recog,8,UNVEILED,LF,lure,-,-,-,conservative,no,m,1,1.5668628246,3,691
2019_Oct_28,24,001,4,recog,9,ROYALS,LF,lure,-,-,-,conservative,no,m,1,0.833616840939,3,694
2019_Oct_28,24,001,4,recog,10,RECENT,HF,lure,-,-,-,liberal,no,m,1,1.00023352717,1,695
2019_Oct_28,24,001,4,recog,11,PAYOFF,LF,target,right,aqua,pleasantness,liberal,no,z,1,1.91681740228,3,698
2019_Oct_28,24,001,4,recog,12,RUINOUS,LF,target,right,aqua,pleasantness,conservative,no,m,0,1.38342008422,-1,697
2019_Oct_28,24,001,4,recog,13,OBVIOUSLY,HF,target,left,yellow,imageability,conservative,no,z,1,2.50015434056,1,698
2019_Oct_28,24,001,4,recog,14,LOBBIES,LF,lure,-,-,-,liberal,no,m,1,1.73355649781,1,699
2019_Oct_28,24,001,4,recog,15,AGGRAVATE,LF,lure,-,-,-,liberal,no,m,1,1.05022300562,1,700
2019_Oct_28,24,001,4,recog,16,CURATOR,LF,lure,-,-,-,conservative,yes,m,1,0.616705661182,3,703
2019_Oct_28,24,001,4,recog,17,COGENT,LF,lure,-,-,-,conservative,yes,m,1,0.800237853105,3,706
2019_Oct_28,24,001,4,recog,18,ASKED,HF,lure,-,-,-,liberal,no,m,1,2.15003845683,1,707
2019_Oct_28,24,001,4,recog,19,TOYED,LF,target,left,yellow,imageability,conservative,no,z,1,1.90018271576,1,708
2019_Oct_28,24,001,4,recog,20,JEALOUSLY,LF,lure,-,-,-,conservative,no,m,1,0.766890393272,3,711
2019_Oct_28,24,001,4,recog,21,EXPECT,HF,lure,-,-,-,liberal,no,m,1,1.23353670116,1,712
2019_Oct_28,24,001,4,recog,22,EVENING,HF,lure,-,-,-,liberal,no,m,1,2.26694685039,1,713
2019_Oct_28,24,001,4,recog,23,RAFTERS,LF,target,left,yellow,imageability,conservative,no,z,1,0.916936182194,1,714
2019_Oct_28,24,001,4,recog,24,PASSED,HF,lure,-,-,-,liberal,no,m,1,0.733586559393,1,715
2019_Oct_28,24,001,4,recog,25,FLUFF,LF,target,left,yellow,imageability,liberal,no,z,1,0.883600820315,3,718
2019_Oct_28,24,001,4,recog,26,FISHY,LF,lure,-,-,-,liberal,no,m,1,1.16684068168,1,719
2019_Oct_28,24,001,4,recog,27,EXUDED,LF,lure,-,-,-,liberal,no,m,1,1.20022370216,1,720
2019_Oct_28,24,001,4,recog,28,UNGAINLY,LF,lure,-,-,-,conservative,no,m,1,0.900190414462,3,723
2019_Oct_28,24,001,4,recog,29,UNSAVOURY,LF,target,left,yellow,imageability,conservative,no,z,1,0.949983392808,1,724
2019_Oct_28,24,001,4,recog,30,SUGARY,LF,target,left,yellow,imageability,conservative,no,z,1,0.767008439972,1,725
2019_Oct_28,24,001,4,recog,31,POWER,HF,lure,-,-,-,liberal,no,m,1,1.8502390629,1,726
2019_Oct_28,24,001,4,recog,32,OEDIPAL,LF,target,left,yellow,imageability,conservative,no,z,1,0.667033882336,1,727
2019_Oct_28,24,001,4,recog,33,TILTS,LF,lure,-,-,-,conservative,no,m,1,1.70020977119,3,730
2019_Oct_28,24,001,4,recog,34,BLOOD,HF,lure,-,-,-,conservative,no,z,0,1.75040491485,-3,727
2019_Oct_28,24,001,4,recog,35,ROTARY,LF,target,right,aqua,pleasantness,liberal,no,z,1,1.81686924018,3,730
2019_Oct_28,24,001,4,recog,36,VELVETY,LF,target,right,aqua,pleasantness,liberal,no,z,1,0.933386466569,3,733
2019_Oct_28,24,001,4,recog,37,MORNING,HF,lure,-,-,-,liberal,yes,m,1,0.733609655487,1,734
2019_Oct_28,24,001,4,recog,38,TOWARDS,HF,lure,-,-,-,conservative,no,m,1,3.63341550166,3,737
2019_Oct_28,24,001,4,recog,39,SCOFFED,LF,target,left,yellow,imageability,liberal,no,z,1,1.56686612404,3,740
2019_Oct_28,24,001,4,recog,40,GETTING,HF,target,left,yellow,imageability,liberal,no,z,1,0.950206655048,3,743
2019_Oct_28,24,001,4,recog,41,BEECHES,LF,target,left,yellow,imageability,liberal,no,z,1,0.766924120901,3,746
2019_Oct_28,24,001,4,recog,42,NINETIES,LF,target,right,aqua,pleasantness,liberal,no,m,0,1.30021805645,-3,743
2019_Oct_28,24,001,4,recog,43,SHUNNED,LF,target,right,aqua,pleasantness,conservative,no,z,1,3.03349703453,1,744
2019_Oct_28,24,001,4,recog,44,CONCERNED,HF,lure,-,-,-,conservative,no,m,1,1.95013809998,3,747
2019_Oct_28,24,001,4,recog,45,VILLAGE,HF,target,left,yellow,imageability,liberal,no,z,1,1.18357288504,3,750
2019_Oct_28,24,001,4,recog,46,LEPROSY,LF,lure,-,-,-,conservative,no,m,1,2.45015826323,3,753
2019_Oct_28,24,001,4,recog,47,BUMBLING,LF,target,left,yellow,imageability,liberal,no,z,1,1.01685025006,3,756
2019_Oct_28,24,001,4,recog,48,FASCINATE,LF,lure,-,-,-,liberal,no,m,1,2.9668285104,1,757
2019_Oct_28,24,001,4,recog,49,SOCIAL,HF,target,left,yellow,imageability,conservative,no,m,0,1.9499987902,-1,756
2019_Oct_28,24,001,4,recog,50,FURTHER,HF,target,left,yellow,imageability,liberal,no,z,1,2.18345850438,3,759
2019_Oct_28,24,001,4,recog,51,SHIELDING,LF,lure,-,-,-,liberal,no,m,1,1.86680739398,1,760
2019_Oct_28,24,001,4,recog,52,STOOD,HF,lure,-,-,-,liberal,no,m,1,1.25023187745,1,761
2019_Oct_28,24,001,4,recog,53,KITCHEN,HF,lure,-,-,-,conservative,no,z,0,1.78326552369,-3,758
2019_Oct_28,24,001,4,recog,54,CLOSE,HF,target,right,aqua,pleasantness,liberal,no,z,1,1.41687825866,3,761
2019_Oct_28,24,001,4,recog,55,INORGANIC,LF,lure,-,-,-,liberal,no,m,1,1.10018168927,1,762
2019_Oct_28,24,001,4,recog,56,MOGUL,LF,target,right,aqua,pleasantness,liberal,no,z,1,1.55016104943,3,765
2019_Oct_28,24,001,4,recog,57,OFTEN,HF,target,right,aqua,pleasantness,liberal,no,z,1,0.983612038417,3,768
2019_Oct_28,24,001,4,recog,58,MODERN,HF,lure,-,-,-,conservative,no,m,1,1.4668285104,3,771
2019_Oct_28,24,001,4,recog,59,NECESSARY,HF,lure,-,-,-,liberal,no,m,1,1.68352559304,1,772
2019_Oct_28,24,001,4,recog,60,LANGUAGE,HF,target,right,aqua,pleasantness,conservative,no,z,1,4.70003233453,1,773
2019_Oct_28,24,001,4,recog,61,THOUSAND,HF,lure,-,-,-,liberal,no,m,1,0.866956602074,1,774
2019_Oct_28,24,001,4,recog,62,ALREADY,HF,lure,-,-,-,liberal,no,m,1,1.46666793756,1,775
2019_Oct_28,24,001,4,recog,63,TROUBLE,HF,lure,-,-,-,conservative,no,m,1,1.06705529205,3,778
2019_Oct_28,24,001,4,recog,64,EASILY,HF,target,right,aqua,pleasantness,liberal,no,z,1,0.833551951913,3,781
2019_Oct_28,24,001,4,recog,65,APART,HF,target,right,aqua,pleasantness,conservative,no,m,0,0.850257759737,-1,780
2019_Oct_28,24,001,4,recog,66,SEGMENTED,LF,target,right,aqua,pleasantness,conservative,no,m,0,1.53355789091,-1,779
2019_Oct_28,24,001,4,recog,67,BRING,HF,target,right,aqua,pleasantness,conservative,no,z,1,1.78355880742,1,780
2019_Oct_28,24,001,4,recog,68,NEEDED,HF,target,right,aqua,pleasantness,conservative,no,z,1,3.30006408249,1,781
2019_Oct_28,24,001,4,recog,69,ECONOMIC,HF,lure,-,-,-,liberal,no,m,1,0.899981083199,1,782
2019_Oct_28,24,001,4,recog,70,QUICKLY,HF,lure,-,-,-,conservative,no,z,0,1.08338752972,-3,779
2019_Oct_28,24,001,4,recog,71,CHAIR,HF,target,left,yellow,imageability,conservative,no,z,1,1.45003508407,1,780
2019_Oct_28,24,001,4,recog,72,IDEAS,HF,target,left,yellow,imageability,conservative,no,z,1,0.716916312221,1,781
2019_Oct_28,24,001,4,recog,73,GATEHOUSE,LF,target,right,aqua,pleasantness,conservative,no,z,1,0.60022568183,1,782
2019_Oct_28,24,001,4,recog,74,TOTAL,HF,target,right,aqua,pleasantness,conservative,no,m,0,3.13349945413,-1,781
2019_Oct_28,24,001,4,recog,75,SABLE,LF,lure,-,-,-,liberal,no,m,1,1.26686583076,1,782
2019_Oct_28,24,001,4,recog,76,SIFTED,LF,target,right,aqua,pleasantness,conservative,no,z,1,0.883530065615,1,783
2019_Oct_28,24,001,4,recog,77,LINEAGE,LF,lure,-,-,-,conservative,no,m,1,1.56686905688,3,786
2019_Oct_28,24,001,4,recog,78,PEEKED,LF,target,right,aqua,pleasantness,liberal,no,z,1,2.06687895521,3,789
2019_Oct_28,24,001,4,recog,79,DOING,HF,target,left,yellow,imageability,liberal,no,m,0,0.866888413606,-3,786
2019_Oct_28,24,001,4,recog,80,DEDICATE,LF,lure,-,-,-,liberal,no,z,0,1.58351840759,-1,785
2019_Oct_28,24,001,4,recog,81,COVER,HF,target,left,yellow,imageability,conservative,yes,m,0,0.766969213273,-1,784
2019_Oct_28,24,001,4,recog,82,CATALYST,LF,lure,-,-,-,liberal,no,m,1,2.26685629904,1,785
2019_Oct_28,24,001,4,recog,83,FOUND,HF,target,left,yellow,imageability,liberal,no,z,1,1.81681681572,3,788
2019_Oct_28,24,001,4,recog,84,LATER,HF,target,right,aqua,pleasantness,liberal,no,z,1,1.36688438096,3,791
2019_Oct_28,24,001,4,recog,85,NEARLY,HF,lure,-,-,-,conservative,no,m,1,0.783601700165,3,794
2019_Oct_28,24,001,4,recog,86,WHOLE,HF,target,right,aqua,pleasantness,liberal,no,z,1,1.81695832512,3,797
2019_Oct_28,24,001,4,recog,87,SUING,LF,target,left,yellow,imageability,liberal,no,z,1,0.833604009776,3,800
2019_Oct_28,24,001,4,recog,88,HYENA,LF,lure,-,-,-,conservative,no,m,1,1.18347316857,3,803
2019_Oct_28,24,001,4,recog,89,PECKED,LF,lure,-,-,-,conservative,no,z,0,1.95022241905,-3,800
2019_Oct_28,24,001,4,recog,90,VALUE,HF,target,right,aqua,pleasantness,liberal,no,z,1,1.58362802238,3,803
2019_Oct_28,24,001,4,recog,91,WATCH,HF,target,left,yellow,imageability,liberal,no,z,1,1.00026212233,3,806
2019_Oct_28,24,001,4,recog,92,JOCKEYS,LF,target,right,aqua,pleasantness,conservative,no,m,0,0.583578897355,-1,805
2019_Oct_28,24,001,4,recog,93,THANK,HF,lure,-,-,-,conservative,no,m,1,3.80007947989,3,808
2019_Oct_28,24,001,4,recog,94,LUCERNE,LF,lure,-,-,-,liberal,no,m,1,1.40020361223,1,809
2019_Oct_28,24,001,4,recog,95,MILES,HF,target,left,yellow,imageability,conservative,no,z,1,1.48359297497,1,810
