date,subj,session,cycle,task,trial,item,wf,type,source,colour,encoding,bias,null,response,corr,rt,points,total
2019_Oct_30,25,001,0,source,0,DOGMAS,LF,target,right,yellow,imageability,conservative,no,9,1,2.75010264968,-,-
2019_Oct_30,25,001,0,source,1,HEDGED,LF,target,right,yellow,imageability,liberal,no,8,1,2.59995879349,-,-
2019_Oct_30,25,001,0,source,2,GURGLE,LF,target,right,yellow,imageability,conservative,no,9,1,2.28330028991,-,-
2019_Oct_30,25,001,0,source,3,LEECH,LF,target,right,yellow,imageability,conservative,no,9,1,1.03335564742,-,-
2019_Oct_30,25,001,0,source,4,BREAK,HF,target,left,aqua,pleasantness,conservative,no,1,1,2.38344275301,-,-
2019_Oct_30,25,001,0,source,5,YOUNG,HF,target,left,aqua,pleasantness,liberal,no,1,1,1.56696425298,-,-
2019_Oct_30,25,001,0,source,6,SYNDICATE,LF,target,left,aqua,pleasantness,conservative,no,1,1,1.33339590076,-,-
2019_Oct_30,25,001,0,source,7,FURTHER,HF,target,left,aqua,pleasantness,liberal,no,1,1,0.966854051216,-,-
2019_Oct_30,25,001,0,source,8,LOOKED,HF,target,right,yellow,imageability,conservative,no,7,1,2.83351394789,-,-
2019_Oct_30,25,001,0,source,9,ITSELF,HF,target,left,aqua,pleasantness,liberal,no,1,1,1.21695890053,-,-
2019_Oct_30,25,001,0,source,10,FUSELAGE,LF,target,right,yellow,imageability,conservative,no,9,1,1.10029900386,-,-
2019_Oct_30,25,001,0,source,11,NARRATOR,LF,target,left,aqua,pleasantness,liberal,no,1,1,1.08360999867,-,-
2019_Oct_30,25,001,0,source,12,OTHERS,HF,target,right,yellow,imageability,conservative,no,1,0,0.98359071519,-,-
2019_Oct_30,25,001,0,source,13,DICHOTOMY,LF,target,right,yellow,imageability,liberal,no,9,1,0.91687685411,-,-
2019_Oct_30,25,001,0,source,14,PROBABLY,HF,target,right,yellow,imageability,liberal,no,3,0,2.81678021677,-,-
2019_Oct_30,25,001,0,source,15,WOMAN,HF,target,right,yellow,imageability,liberal,yes,7,1,2.20026696249,-,-
2019_Oct_30,25,001,0,source,16,SUBJECT,HF,target,left,aqua,pleasantness,conservative,no,1,1,1.30000872522,-,-
2019_Oct_30,25,001,0,source,17,DAUGHTER,HF,target,right,yellow,imageability,liberal,no,9,1,1.0335620466,-,-
2019_Oct_30,25,001,0,source,18,DYEING,LF,target,left,aqua,pleasantness,conservative,no,1,1,0.883638887219,-,-
2019_Oct_30,25,001,0,source,19,AREAS,HF,target,left,aqua,pleasantness,liberal,no,1,1,0.700245699345,-,-
2019_Oct_30,25,001,0,source,20,PIPELINES,LF,target,right,yellow,imageability,conservative,no,9,1,0.833585436063,-,-
2019_Oct_30,25,001,0,source,21,PAVILIONS,LF,target,right,yellow,imageability,liberal,no,9,1,0.900353554832,-,-
2019_Oct_30,25,001,0,source,22,SITTING,HF,target,left,aqua,pleasantness,conservative,yes,3,1,1.7668481122,-,-
2019_Oct_30,25,001,0,source,23,REWRITE,LF,target,right,yellow,imageability,liberal,no,7,1,2.48348476605,-,-
2019_Oct_30,25,001,0,source,24,FLAGGED,LF,target,left,aqua,pleasantness,liberal,no,7,0,2.70009832373,-,-
2019_Oct_30,25,001,0,source,25,FRONT,HF,target,right,yellow,imageability,conservative,no,8,1,2.20016797887,-,-
2019_Oct_30,25,001,0,source,26,MINISTER,HF,target,left,aqua,pleasantness,conservative,no,2,1,1.53357157836,-,-
2019_Oct_30,25,001,0,source,27,ACORNS,LF,target,left,aqua,pleasantness,liberal,no,1,1,1.21695816732,-,-
2019_Oct_30,25,001,0,source,28,MOVED,HF,target,right,yellow,imageability,conservative,no,8,1,1.4501819099,-,-
2019_Oct_30,25,001,0,source,29,GANGWAY,LF,target,left,aqua,pleasantness,liberal,no,1,1,1.03330505579,-,-
2019_Oct_30,25,001,0,source,30,WALKED,HF,target,right,yellow,imageability,liberal,no,7,1,1.25026578935,-,-
2019_Oct_30,25,001,0,source,31,NAPPY,LF,target,right,yellow,imageability,liberal,no,9,1,1.13351790724,-,-
2019_Oct_30,25,001,0,source,32,THWART,LF,target,left,aqua,pleasantness,liberal,no,9,0,1.13356299978,-,-
2019_Oct_30,25,001,0,source,33,BLACK,HF,target,right,yellow,imageability,conservative,no,9,1,1.88351864045,-,-
2019_Oct_30,25,001,0,source,34,ACTION,HF,target,right,yellow,imageability,liberal,yes,7,1,1.13340205974,-,-
2019_Oct_30,25,001,0,source,35,ACACIA,LF,target,left,aqua,pleasantness,conservative,no,2,1,2.96685038516,-,-
2019_Oct_30,25,001,0,source,36,SUAVE,LF,target,left,aqua,pleasantness,conservative,yes,3,1,0.950258897161,-,-
2019_Oct_30,25,001,0,source,37,SUDDENLY,HF,target,left,aqua,pleasantness,conservative,no,2,1,2.5166222829,-,-
2019_Oct_30,25,001,0,source,38,LONGER,HF,target,right,yellow,imageability,conservative,no,8,1,1.83331084816,-,-
2019_Oct_30,25,001,0,source,39,SPEAK,HF,target,left,aqua,pleasantness,liberal,no,2,1,1.700298124,-,-
2019_Oct_30,25,001,0,source,40,TEACUP,LF,target,left,aqua,pleasantness,conservative,no,2,1,1.23338174977,-,-
2019_Oct_30,25,001,0,source,41,DULLED,LF,target,left,aqua,pleasantness,conservative,no,7,0,1.65015448777,-,-
2019_Oct_30,25,001,0,source,42,FOAMING,LF,target,right,yellow,imageability,conservative,no,9,1,2.85013916364,-,-
2019_Oct_30,25,001,0,source,43,DWINDLE,LF,target,left,aqua,pleasantness,liberal,no,8,0,1.91664845857,-,-
2019_Oct_30,25,001,0,source,44,THING,HF,target,left,aqua,pleasantness,liberal,no,1,1,1.16694027695,-,-
2019_Oct_30,25,001,0,source,45,GEOLOGIST,LF,target,right,yellow,imageability,liberal,no,2,0,2.31687516772,-,-
2019_Oct_30,25,001,0,source,46,WHETHER,HF,target,right,yellow,imageability,liberal,no,9,1,1.0669345579,-,-
2019_Oct_30,25,001,0,source,47,ALTHOUGH,HF,target,left,aqua,pleasantness,conservative,no,7,0,1.05031924051,-,-
2019_Oct_30,25,001,0,recog,0,WALKED,HF,target,right,yellow,imageability,liberal,no,z,1,1.25023499445,3,3
2019_Oct_30,25,001,0,recog,1,YOUNG,HF,target,left,aqua,pleasantness,liberal,no,z,1,0.850187555632,3,6
2019_Oct_30,25,001,0,recog,2,MUGGING,LF,lure,-,-,-,liberal,no,m,1,0.883619823707,1,7
2019_Oct_30,25,001,0,recog,3,TEACUP,LF,target,left,aqua,pleasantness,conservative,no,m,0,1.91690618259,-1,6
2019_Oct_30,25,001,0,recog,4,ARBITER,LF,lure,-,-,-,conservative,no,z,0,2.70019767396,-3,3
2019_Oct_30,25,001,0,recog,5,DUELLING,LF,lure,-,-,-,conservative,no,m,1,2.66687245484,3,6
2019_Oct_30,25,001,0,recog,6,SPEAK,HF,target,left,aqua,pleasantness,liberal,no,z,1,2.41691718077,3,9
2019_Oct_30,25,001,0,recog,7,JEERED,LF,lure,-,-,-,liberal,no,m,1,0.850041646442,1,10
2019_Oct_30,25,001,0,recog,8,SUMMER,HF,lure,-,-,-,liberal,no,m,1,2.6499304915,1,11
2019_Oct_30,25,001,0,recog,9,WHETHER,HF,target,right,yellow,imageability,liberal,no,z,1,0.75029548444,3,14
2019_Oct_30,25,001,0,recog,10,FUSELAGE,LF,target,right,yellow,imageability,conservative,no,m,0,1.05029467791,-1,13
2019_Oct_30,25,001,0,recog,11,PIPELINES,LF,target,right,yellow,imageability,conservative,no,z,1,4.36677794381,1,14
2019_Oct_30,25,001,0,recog,12,PROBABLY,HF,target,right,yellow,imageability,liberal,no,z,1,5.73340557916,3,17
2019_Oct_30,25,001,0,recog,13,ECONOMIC,HF,lure,-,-,-,liberal,no,m,1,1.01688953868,1,18
2019_Oct_30,25,001,0,recog,14,UPTIGHT,LF,lure,-,-,-,conservative,no,m,1,2.31697488456,3,21
2019_Oct_30,25,001,0,recog,15,THOUSAND,HF,lure,-,-,-,conservative,no,m,1,2.43352479943,3,24
2019_Oct_30,25,001,0,recog,16,HUDDLE,LF,lure,-,-,-,conservative,no,m,1,0.583699083925,3,27
2019_Oct_30,25,001,0,recog,17,HUNDRED,HF,lure,-,-,-,conservative,no,m,1,0.700357880783,3,30
2019_Oct_30,25,001,0,recog,18,ACTION,HF,target,right,yellow,imageability,liberal,no,z,1,1.71686944867,3,33
2019_Oct_30,25,001,0,recog,19,THWART,LF,target,left,aqua,pleasantness,liberal,no,z,1,0.583629428784,3,36
2019_Oct_30,25,001,0,recog,20,UNION,HF,lure,-,-,-,conservative,no,m,1,0.883544669475,3,39
2019_Oct_30,25,001,0,recog,21,EPIDEMICS,LF,lure,-,-,-,liberal,no,m,1,1.65019408122,1,40
2019_Oct_30,25,001,0,recog,22,OTHERS,HF,target,right,yellow,imageability,conservative,no,z,1,1.08357920376,1,41
2019_Oct_30,25,001,0,recog,23,CAGED,LF,lure,-,-,-,conservative,no,m,1,1.10018059012,3,44
2019_Oct_30,25,001,0,recog,24,WEEKS,HF,lure,-,-,-,conservative,no,m,1,3.80020559265,3,47
2019_Oct_30,25,001,0,recog,25,FURTHER,HF,target,left,aqua,pleasantness,liberal,no,z,1,0.966944969506,3,50
2019_Oct_30,25,001,0,recog,26,SUBJECT,HF,target,left,aqua,pleasantness,conservative,no,z,1,1.18360581936,1,51
2019_Oct_30,25,001,0,recog,27,DAILIES,LF,lure,-,-,-,liberal,yes,m,1,1.25025295814,1,52
2019_Oct_30,25,001,0,recog,28,SIPHON,LF,lure,-,-,-,liberal,no,m,1,1.06684253979,1,53
2019_Oct_30,25,001,0,recog,29,LONGER,HF,target,right,yellow,imageability,conservative,no,z,1,1.28350558928,1,54
2019_Oct_30,25,001,0,recog,30,NATIONAL,HF,lure,-,-,-,conservative,no,m,1,1.65021424455,3,57
2019_Oct_30,25,001,0,recog,31,DULLED,LF,target,left,aqua,pleasantness,conservative,no,z,1,0.766784322754,1,58
2019_Oct_30,25,001,0,recog,32,DWINDLE,LF,target,left,aqua,pleasantness,liberal,no,z,1,0.683572824817,3,61
2019_Oct_30,25,001,0,recog,33,TOWARDS,HF,lure,-,-,-,liberal,no,z,0,0.666932944829,-1,60
2019_Oct_30,25,001,0,recog,34,DAUGHTER,HF,target,right,yellow,imageability,liberal,no,z,1,0.850239980291,3,63
2019_Oct_30,25,001,0,recog,35,BLACK,HF,target,right,yellow,imageability,conservative,yes,m,0,0.78359320811,-1,62
2019_Oct_30,25,001,0,recog,36,ALTHOUGH,HF,target,left,aqua,pleasantness,conservative,no,z,1,2.51690640255,1,63
2019_Oct_30,25,001,0,recog,37,ITSELF,HF,target,left,aqua,pleasantness,liberal,no,z,1,0.650249805332,3,66
2019_Oct_30,25,001,0,recog,38,MINISTER,HF,target,left,aqua,pleasantness,conservative,no,z,1,1.05030201003,1,67
2019_Oct_30,25,001,0,recog,39,MODERN,HF,lure,-,-,-,liberal,no,m,1,1.21697576441,1,68
2019_Oct_30,25,001,0,recog,40,MEANS,HF,lure,-,-,-,liberal,no,m,1,0.916911315074,1,69
2019_Oct_30,25,001,0,recog,41,SYNDICATE,LF,target,left,aqua,pleasantness,conservative,no,z,1,0.783525385999,1,70
2019_Oct_30,25,001,0,recog,42,EASILY,HF,lure,-,-,-,conservative,no,m,1,1.23359511446,3,73
2019_Oct_30,25,001,0,recog,43,GODMOTHER,LF,lure,-,-,-,conservative,no,m,1,1.11696564608,3,76
2019_Oct_30,25,001,0,recog,44,FOAMING,LF,target,right,yellow,imageability,conservative,no,z,1,0.983614177974,1,77
2019_Oct_30,25,001,0,recog,45,SWOOPING,LF,lure,-,-,-,conservative,no,m,1,0.983356820558,3,80
2019_Oct_30,25,001,0,recog,46,BUTCHERED,LF,lure,-,-,-,liberal,no,m,1,0.900263369755,1,81
2019_Oct_30,25,001,0,recog,47,SUAVE,LF,target,left,aqua,pleasantness,conservative,no,z,1,0.833339443433,1,82
2019_Oct_30,25,001,0,recog,48,PAVILIONS,LF,target,right,yellow,imageability,liberal,no,z,1,0.850311835068,3,85
2019_Oct_30,25,001,0,recog,49,DICHOTOMY,LF,target,right,yellow,imageability,liberal,no,z,1,0.766874507832,3,88
2019_Oct_30,25,001,0,recog,50,SERIOUS,HF,lure,-,-,-,liberal,no,m,1,0.716933238113,1,89
2019_Oct_30,25,001,0,recog,51,CHAIR,HF,lure,-,-,-,liberal,no,m,1,0.700301056852,1,90
2019_Oct_30,25,001,0,recog,52,VIGILANT,LF,lure,-,-,-,liberal,yes,z,0,3.03349532431,-1,89
2019_Oct_30,25,001,0,recog,53,RELAXES,LF,lure,-,-,-,conservative,no,m,1,2.33329031823,3,92
2019_Oct_30,25,001,0,recog,54,AREAS,HF,target,left,aqua,pleasantness,liberal,no,z,1,0.800270115305,3,95
2019_Oct_30,25,001,0,recog,55,MOVED,HF,target,right,yellow,imageability,conservative,no,z,1,0.833625029512,1,96
2019_Oct_30,25,001,0,recog,56,BUOYANCY,LF,lure,-,-,-,conservative,no,m,1,0.766698536949,3,99
2019_Oct_30,25,001,0,recog,57,GURGLE,LF,target,right,yellow,imageability,conservative,no,z,1,0.816959487104,1,100
2019_Oct_30,25,001,0,recog,58,GROUND,HF,lure,-,-,-,liberal,no,m,1,1.55027084852,1,101
2019_Oct_30,25,001,0,recog,59,COHESIVE,LF,lure,-,-,-,liberal,no,m,1,0.666872454838,1,102
2019_Oct_30,25,001,0,recog,60,FLAGGED,LF,target,left,aqua,pleasantness,liberal,no,z,1,0.683605819357,3,105
2019_Oct_30,25,001,0,recog,61,AHEAD,HF,lure,-,-,-,conservative,no,m,1,0.766859476985,3,108
2019_Oct_30,25,001,0,recog,62,DIGESTING,LF,lure,-,-,-,liberal,no,m,1,0.733316493898,1,109
2019_Oct_30,25,001,0,recog,63,PRUDENTLY,LF,lure,-,-,-,conservative,no,m,1,0.63359012862,3,112
2019_Oct_30,25,001,0,recog,64,SLOWLY,HF,lure,-,-,-,liberal,no,m,1,0.866887925611,1,113
2019_Oct_30,25,001,0,recog,65,SENSE,HF,lure,-,-,-,conservative,no,m,1,0.716974664592,3,116
2019_Oct_30,25,001,0,recog,66,FRONT,HF,target,right,yellow,imageability,conservative,no,z,1,0.633534037901,1,117
2019_Oct_30,25,001,0,recog,67,DOGMAS,LF,target,right,yellow,imageability,conservative,yes,m,0,1.46692590599,-1,116
2019_Oct_30,25,001,0,recog,68,HAVING,HF,lure,-,-,-,liberal,no,m,1,2.16689775065,1,117
2019_Oct_30,25,001,0,recog,69,LEECH,LF,target,right,yellow,imageability,conservative,no,z,1,0.716965499442,1,118
2019_Oct_30,25,001,0,recog,70,GANGWAY,LF,target,left,aqua,pleasantness,liberal,no,z,1,0.866898557186,3,121
2019_Oct_30,25,001,0,recog,71,CLOSE,HF,lure,-,-,-,conservative,no,m,1,0.750350841947,3,124
2019_Oct_30,25,001,0,recog,72,HEDGED,LF,target,right,yellow,imageability,liberal,no,z,1,0.683617917355,3,127
2019_Oct_30,25,001,0,recog,73,HEALTH,HF,lure,-,-,-,conservative,no,m,1,0.63333130478,3,130
2019_Oct_30,25,001,0,recog,74,NARRATOR,LF,target,left,aqua,pleasantness,liberal,no,z,1,0.700041866406,3,133
2019_Oct_30,25,001,0,recog,75,HIKING,LF,lure,-,-,-,liberal,no,m,1,0.583627595754,1,134
2019_Oct_30,25,001,0,recog,76,RADIAL,LF,lure,-,-,-,liberal,no,m,1,0.683579057119,1,135
2019_Oct_30,25,001,0,recog,77,LOOKED,HF,target,right,yellow,imageability,conservative,no,z,1,0.733223009366,1,136
2019_Oct_30,25,001,0,recog,78,HYPNOSIS,LF,lure,-,-,-,conservative,no,m,1,0.666891151744,3,139
2019_Oct_30,25,001,0,recog,79,GEOLOGIST,LF,target,right,yellow,imageability,liberal,no,z,1,0.783566812478,3,142
2019_Oct_30,25,001,0,recog,80,SHORT,HF,lure,-,-,-,conservative,no,m,1,1.16688785229,3,145
2019_Oct_30,25,001,0,recog,81,THING,HF,target,left,aqua,pleasantness,liberal,no,z,1,0.916998567304,3,148
2019_Oct_30,25,001,0,recog,82,AEROSOL,LF,lure,-,-,-,liberal,no,m,1,0.683620483597,1,149
2019_Oct_30,25,001,0,recog,83,PIANOS,LF,lure,-,-,-,conservative,no,m,1,0.616887559005,3,152
2019_Oct_30,25,001,0,recog,84,ACORNS,LF,target,left,aqua,pleasantness,liberal,no,z,1,0.633675547819,3,155
2019_Oct_30,25,001,0,recog,85,BREAK,HF,target,left,aqua,pleasantness,conservative,no,z,1,1.66691094847,1,156
2019_Oct_30,25,001,0,recog,86,ACACIA,LF,target,left,aqua,pleasantness,conservative,no,z,1,0.650298563931,1,157
2019_Oct_30,25,001,0,recog,87,SITTING,HF,target,left,aqua,pleasantness,conservative,no,z,1,0.600236314231,1,158
2019_Oct_30,25,001,0,recog,88,REWRITE,LF,target,right,yellow,imageability,liberal,no,z,1,0.600268942166,3,161
2019_Oct_30,25,001,0,recog,89,NAPPY,LF,target,right,yellow,imageability,liberal,no,z,1,0.566886532509,3,164
2019_Oct_30,25,001,0,recog,90,WOMAN,HF,target,right,yellow,imageability,liberal,no,z,1,0.566973784738,3,167
2019_Oct_30,25,001,0,recog,91,DYEING,LF,target,left,aqua,pleasantness,conservative,no,z,1,0.650321660109,1,168
2019_Oct_30,25,001,0,recog,92,GIRLS,HF,lure,-,-,-,conservative,no,m,1,0.783541516664,3,171
2019_Oct_30,25,001,0,recog,93,SUDDENLY,HF,target,left,aqua,pleasantness,conservative,no,z,1,0.833628695572,1,172
2019_Oct_30,25,001,0,recog,94,SPACE,HF,lure,-,-,-,liberal,no,m,1,2.06678351622,1,173
2019_Oct_30,25,001,0,recog,95,WATCH,HF,lure,-,-,-,liberal,no,m,1,0.766966892545,1,174
2019_Oct_30,25,001,1,source,0,LOCAL,HF,target,right,yellow,imageability,conservative,no,3,0,2.06680001349,-,-
2019_Oct_30,25,001,1,source,1,QUALITY,HF,target,left,aqua,pleasantness,liberal,no,7,0,2.80015830047,-,-
2019_Oct_30,25,001,1,source,2,MASKING,LF,target,left,aqua,pleasantness,conservative,no,1,1,1.08332147974,-,-
2019_Oct_30,25,001,1,source,3,OPENED,HF,target,left,aqua,pleasantness,liberal,no,1,1,0.850340063731,-,-
2019_Oct_30,25,001,1,source,4,ROPED,LF,target,left,aqua,pleasantness,liberal,no,2,1,1.26688000692,-,-
2019_Oct_30,25,001,1,source,5,FAMILY,HF,target,right,yellow,imageability,liberal,no,8,1,1.06689423123,-,-
2019_Oct_30,25,001,1,source,6,FULCRUM,LF,target,left,aqua,pleasantness,conservative,no,7,0,2.10039358821,-,-
2019_Oct_30,25,001,1,source,7,SONAR,LF,target,left,aqua,pleasantness,liberal,no,1,1,1.20017751063,-,-
2019_Oct_30,25,001,1,source,8,DAWDLING,LF,target,left,aqua,pleasantness,conservative,no,7,0,1.95002060326,-,-
2019_Oct_30,25,001,1,source,9,VILLAGE,HF,target,left,aqua,pleasantness,conservative,no,2,1,1.55026424961,-,-
2019_Oct_30,25,001,1,source,10,MOUTH,HF,target,left,aqua,pleasantness,conservative,no,7,0,1.21683755395,-,-
2019_Oct_30,25,001,1,source,11,INSIDE,HF,target,right,yellow,imageability,conservative,no,9,1,0.866696557276,-,-
2019_Oct_30,25,001,1,source,12,MUNCH,LF,target,right,yellow,imageability,liberal,no,2,0,1.61688425955,-,-
2019_Oct_30,25,001,1,source,13,CHROMIUM,LF,target,left,aqua,pleasantness,conservative,no,1,1,1.15028133345,-,-
2019_Oct_30,25,001,1,source,14,JELLIES,LF,target,right,yellow,imageability,conservative,no,9,1,0.850119366915,-,-
2019_Oct_30,25,001,1,source,15,SEINE,LF,target,left,aqua,pleasantness,conservative,no,1,1,1.08358030358,-,-
2019_Oct_30,25,001,1,source,16,APART,HF,target,right,yellow,imageability,conservative,no,7,1,1.21688081345,-,-
2019_Oct_30,25,001,1,source,17,HOSPITAL,HF,target,right,yellow,imageability,liberal,no,7,1,1.00032701256,-,-
2019_Oct_30,25,001,1,source,18,UPSTART,LF,target,left,aqua,pleasantness,liberal,no,1,1,1.15031836066,-,-
2019_Oct_30,25,001,1,source,19,THANK,HF,target,left,aqua,pleasantness,conservative,no,2,1,2.15013065838,-,-
2019_Oct_30,25,001,1,source,20,ROTARY,LF,target,left,aqua,pleasantness,liberal,no,1,1,0.883525605963,-,-
2019_Oct_30,25,001,1,source,21,PEOPLED,LF,target,right,yellow,imageability,liberal,no,9,1,1.03361520447,-,-
2019_Oct_30,25,001,1,source,22,VALUE,HF,target,right,yellow,imageability,liberal,no,9,1,1.68350097004,-,-
2019_Oct_30,25,001,1,source,23,TRIED,HF,target,left,aqua,pleasantness,liberal,no,7,0,1.03356094678,-,-
2019_Oct_30,25,001,1,source,24,RETURN,HF,target,left,aqua,pleasantness,liberal,no,1,1,1.01669450428,-,-
2019_Oct_30,25,001,1,source,25,VELVETY,LF,target,left,aqua,pleasantness,liberal,no,1,1,0.766945996003,-,-
2019_Oct_30,25,001,1,source,26,MILES,HF,target,right,yellow,imageability,liberal,yes,3,0,0.983401546491,-,-
2019_Oct_30,25,001,1,source,27,TUMBLER,LF,target,right,yellow,imageability,conservative,yes,7,1,0.400208012248,-,-
2019_Oct_30,25,001,1,source,28,FATHER,HF,target,left,aqua,pleasantness,conservative,no,1,1,0.766945996003,-,-
2019_Oct_30,25,001,1,source,29,FOUND,HF,target,right,yellow,imageability,conservative,no,8,1,1.33359570103,-,-
2019_Oct_30,25,001,1,source,30,SOVIET,HF,target,right,yellow,imageability,liberal,no,9,1,0.866900756821,-,-
2019_Oct_30,25,001,1,source,31,SQUADRONS,LF,target,right,yellow,imageability,conservative,no,9,1,0.883623856373,-,-
2019_Oct_30,25,001,1,source,32,SUING,LF,target,right,yellow,imageability,liberal,no,9,1,0.916696117349,-,-
2019_Oct_30,25,001,1,source,33,OMITTING,LF,target,right,yellow,imageability,liberal,no,9,1,0.683338196973,-,-
2019_Oct_30,25,001,1,source,34,SUGARY,LF,target,left,aqua,pleasantness,conservative,no,1,1,1.83347252141,-,-
2019_Oct_30,25,001,1,source,35,IRRIGATED,LF,target,right,yellow,imageability,conservative,no,3,0,1.16695787404,-,-
2019_Oct_30,25,001,1,source,36,MELODIC,LF,target,right,yellow,imageability,conservative,no,8,1,1.3334897519,-,-
2019_Oct_30,25,001,1,source,37,BETTER,HF,target,left,aqua,pleasantness,conservative,no,3,1,1.66690911544,-,-
2019_Oct_30,25,001,1,source,38,SPLASHES,LF,target,right,yellow,imageability,liberal,no,9,1,0.816913661353,-,-
2019_Oct_30,25,001,1,source,39,DECIDED,HF,target,left,aqua,pleasantness,liberal,no,7,0,1.0003420434,-,-
2019_Oct_30,25,001,1,source,40,EIGHT,HF,target,left,aqua,pleasantness,liberal,no,1,1,0.800270481911,-,-
2019_Oct_30,25,001,1,source,41,LETTER,HF,target,right,yellow,imageability,conservative,yes,7,1,0.73338688225,-,-
2019_Oct_30,25,001,1,source,42,EXPECT,HF,target,left,aqua,pleasantness,conservative,no,7,0,1.03355471448,-,-
2019_Oct_30,25,001,1,source,43,SYSTEM,HF,target,right,yellow,imageability,conservative,no,7,1,1.96691527442,-,-
2019_Oct_30,25,001,1,source,44,REGAINING,LF,target,left,aqua,pleasantness,liberal,no,2,1,1.15027510115,-,-
2019_Oct_30,25,001,1,source,45,BOVINE,LF,target,right,yellow,imageability,liberal,yes,3,0,0.850279207134,-,-
2019_Oct_30,25,001,1,source,46,HAUNCHES,LF,target,right,yellow,imageability,conservative,no,8,1,0.950276860855,-,-
2019_Oct_30,25,001,1,source,47,CONCERNED,HF,target,right,yellow,imageability,liberal,no,3,0,1.18355302809,-,-
2019_Oct_30,25,001,1,recog,0,EXPECT,HF,target,left,aqua,pleasantness,conservative,no,z,1,2.11684319968,1,175
2019_Oct_30,25,001,1,recog,1,CUDDLE,LF,lure,-,-,-,liberal,no,m,1,0.817024742973,1,176
2019_Oct_30,25,001,1,recog,2,ERSTWHILE,LF,lure,-,-,-,conservative,no,m,1,0.900198113885,3,179
2019_Oct_30,25,001,1,recog,3,SQUADRONS,LF,target,right,yellow,imageability,conservative,no,z,1,0.800295777725,1,180
2019_Oct_30,25,001,1,recog,4,VALUE,HF,target,right,yellow,imageability,liberal,no,z,1,0.683627815717,3,183
2019_Oct_30,25,001,1,recog,5,WHATEVER,HF,lure,-,-,-,conservative,no,m,1,0.700240200255,3,186
2019_Oct_30,25,001,1,recog,6,MELODIC,LF,target,right,yellow,imageability,conservative,no,z,1,0.85028507283,1,187
2019_Oct_30,25,001,1,recog,7,PICTURE,HF,lure,-,-,-,conservative,no,m,1,1.10021248484,3,190
2019_Oct_30,25,001,1,recog,8,LETTER,HF,target,right,yellow,imageability,conservative,no,z,1,0.866903323064,1,191
2019_Oct_30,25,001,1,recog,9,LOCAL,HF,target,right,yellow,imageability,conservative,no,z,1,0.650245039454,1,192
2019_Oct_30,25,001,1,recog,10,INSIDE,HF,target,right,yellow,imageability,conservative,no,z,1,0.600202219873,1,193
2019_Oct_30,25,001,1,recog,11,TUMBLER,LF,target,right,yellow,imageability,conservative,no,z,1,0.533637934043,1,194
2019_Oct_30,25,001,1,recog,12,PEOPLED,LF,target,right,yellow,imageability,liberal,no,z,1,0.616959413783,3,197
2019_Oct_30,25,001,1,recog,13,BEAUTIFUL,HF,lure,-,-,-,liberal,no,m,1,0.716914174601,1,198
2019_Oct_30,25,001,1,recog,14,DIDACTIC,LF,lure,-,-,-,conservative,no,m,1,1.41687392126,3,201
2019_Oct_30,25,001,1,recog,15,DAWDLING,LF,target,left,aqua,pleasantness,conservative,no,z,1,0.783569745326,1,202
2019_Oct_30,25,001,1,recog,16,SPLASHES,LF,target,right,yellow,imageability,liberal,no,z,1,0.716700076694,3,205
2019_Oct_30,25,001,1,recog,17,DOTTY,LF,lure,-,-,-,conservative,no,m,1,0.600249878653,3,208
2019_Oct_30,25,001,1,recog,18,SUING,LF,target,right,yellow,imageability,liberal,no,z,1,0.900237340728,3,211
2019_Oct_30,25,001,1,recog,19,HAUNCHES,LF,target,right,yellow,imageability,conservative,no,z,1,0.616947315784,1,212
2019_Oct_30,25,001,1,recog,20,VULTURE,LF,lure,-,-,-,conservative,no,m,1,0.76693793067,3,215
2019_Oct_30,25,001,1,recog,21,ENSCONCED,LF,lure,-,-,-,liberal,no,m,1,0.883592694862,1,216
2019_Oct_30,25,001,1,recog,22,SEINE,LF,target,left,aqua,pleasantness,conservative,no,z,1,0.63357913044,1,217
2019_Oct_30,25,001,1,recog,23,MILES,HF,target,right,yellow,imageability,liberal,no,z,1,1.08358103679,3,220
2019_Oct_30,25,001,1,recog,24,OLDER,HF,lure,-,-,-,conservative,no,m,1,1.93354093009,3,223
2019_Oct_30,25,001,1,recog,25,SUGARY,LF,target,left,aqua,pleasantness,conservative,yes,m,0,1.18360911881,-1,222
2019_Oct_30,25,001,1,recog,26,FAMILY,HF,target,right,yellow,imageability,liberal,no,z,1,1.63352853881,3,225
2019_Oct_30,25,001,1,recog,27,MOUTH,HF,target,left,aqua,pleasantness,conservative,no,z,1,1.71680895868,1,226
2019_Oct_30,25,001,1,recog,28,ALLOWED,HF,lure,-,-,-,conservative,no,m,1,0.650361253558,3,229
2019_Oct_30,25,001,1,recog,29,RIPEN,LF,lure,-,-,-,liberal,yes,z,0,1.43353176494,-1,228
2019_Oct_30,25,001,1,recog,30,VOUCH,LF,lure,-,-,-,liberal,no,m,1,0.950188875414,1,229
2019_Oct_30,25,001,1,recog,31,QUALITY,HF,target,left,aqua,pleasantness,liberal,no,z,1,1.61687472779,3,232
2019_Oct_30,25,001,1,recog,32,OPENED,HF,target,left,aqua,pleasantness,liberal,no,z,1,0.66688418623,3,235
2019_Oct_30,25,001,1,recog,33,VACATED,LF,lure,-,-,-,conservative,no,m,1,0.783671661796,3,238
2019_Oct_30,25,001,1,recog,34,SULKED,LF,lure,-,-,-,conservative,no,m,1,0.700192541474,3,241
2019_Oct_30,25,001,1,recog,35,BEYOND,HF,lure,-,-,-,liberal,no,m,1,1.70029299152,1,242
2019_Oct_30,25,001,1,recog,36,RETURN,HF,target,left,aqua,pleasantness,liberal,no,z,1,0.633608092314,3,245
2019_Oct_30,25,001,1,recog,37,REBATE,LF,lure,-,-,-,liberal,no,m,1,0.683643579776,1,246
2019_Oct_30,25,001,1,recog,38,NECESSARY,HF,lure,-,-,-,liberal,no,m,1,0.633579863652,1,247
2019_Oct_30,25,001,1,recog,39,AMONG,HF,lure,-,-,-,conservative,no,m,1,1.13354356966,3,250
2019_Oct_30,25,001,1,recog,40,TRIED,HF,target,left,aqua,pleasantness,liberal,no,z,1,0.61702943553,3,253
2019_Oct_30,25,001,1,recog,41,MUNCH,LF,target,right,yellow,imageability,liberal,no,z,1,0.600207352357,3,256
2019_Oct_30,25,001,1,recog,42,VILLAGE,HF,target,left,aqua,pleasantness,conservative,no,z,1,0.950242766497,1,257
2019_Oct_30,25,001,1,recog,43,DAPPER,LF,lure,-,-,-,liberal,no,m,1,1.03361373805,1,258
2019_Oct_30,25,001,1,recog,44,ALONE,HF,lure,-,-,-,liberal,no,m,1,0.816888732144,1,259
2019_Oct_30,25,001,1,recog,45,UPSTART,LF,target,left,aqua,pleasantness,liberal,no,z,1,0.733530591805,3,262
2019_Oct_30,25,001,1,recog,46,PLEASE,HF,lure,-,-,-,conservative,no,m,1,0.666901416712,3,265
2019_Oct_30,25,001,1,recog,47,UNNAMED,LF,lure,-,-,-,conservative,no,m,1,0.600313668098,3,268
2019_Oct_30,25,001,1,recog,48,NUCLEAR,HF,lure,-,-,-,conservative,no,m,1,0.633420023433,3,271
2019_Oct_30,25,001,1,recog,49,CORNER,HF,lure,-,-,-,conservative,no,m,1,0.633396560649,3,274
2019_Oct_30,25,001,1,recog,50,IRRIGATED,LF,target,right,yellow,imageability,conservative,no,z,1,1.05031520784,1,275
2019_Oct_30,25,001,1,recog,51,DILATED,LF,lure,-,-,-,conservative,no,m,1,0.816862336512,3,278
2019_Oct_30,25,001,1,recog,52,INTEREST,HF,lure,-,-,-,liberal,no,m,1,0.966736737295,1,279
2019_Oct_30,25,001,1,recog,53,EIGHT,HF,target,left,aqua,pleasantness,liberal,no,z,1,0.683564759484,3,282
2019_Oct_30,25,001,1,recog,54,POUNDS,HF,lure,-,-,-,liberal,no,m,1,0.716957800716,1,283
2019_Oct_30,25,001,1,recog,55,WASHBASIN,LF,lure,-,-,-,conservative,no,m,1,0.716936904174,3,286
2019_Oct_30,25,001,1,recog,56,FATHER,HF,target,left,aqua,pleasantness,conservative,no,z,1,0.650243939636,1,287
2019_Oct_30,25,001,1,recog,57,DOING,HF,lure,-,-,-,conservative,no,m,1,0.733628475608,3,290
2019_Oct_30,25,001,1,recog,58,FULCRUM,LF,target,left,aqua,pleasantness,conservative,no,z,1,2.85012486601,1,291
2019_Oct_30,25,001,1,recog,59,FOUND,HF,target,right,yellow,imageability,conservative,no,z,1,0.716670748214,1,292
2019_Oct_30,25,001,1,recog,60,SONAR,LF,target,left,aqua,pleasantness,liberal,no,z,1,0.800295411119,3,295
2019_Oct_30,25,001,1,recog,61,STOOD,HF,lure,-,-,-,liberal,no,m,1,0.716985296166,1,296
2019_Oct_30,25,001,1,recog,62,SEEMED,HF,lure,-,-,-,conservative,no,m,1,0.86664669886,3,299
2019_Oct_30,25,001,1,recog,63,ROPED,LF,target,left,aqua,pleasantness,liberal,no,z,1,0.666707115529,3,302
2019_Oct_30,25,001,1,recog,64,PERHAPS,HF,lure,-,-,-,conservative,no,m,1,0.666705649105,3,305
2019_Oct_30,25,001,1,recog,65,STRAIGHT,HF,lure,-,-,-,liberal,no,z,0,0.783659930403,-1,304
2019_Oct_30,25,001,1,recog,66,WELCOMES,LF,lure,-,-,-,liberal,no,m,1,1.83352237983,1,305
2019_Oct_30,25,001,1,recog,67,BASIC,HF,lure,-,-,-,liberal,no,m,1,0.583582869821,1,306
2019_Oct_30,25,001,1,recog,68,HALLMARK,LF,lure,-,-,-,conservative,no,m,1,0.750254791174,3,309
2019_Oct_30,25,001,1,recog,69,MASKING,LF,target,left,aqua,pleasantness,conservative,no,z,1,0.633589028802,1,310
2019_Oct_30,25,001,1,recog,70,CONCERNED,HF,target,right,yellow,imageability,liberal,yes,z,1,1.23361674422,3,313
2019_Oct_30,25,001,1,recog,71,APART,HF,target,right,yellow,imageability,conservative,no,m,0,1.18354386294,-1,312
2019_Oct_30,25,001,1,recog,72,BOVINE,LF,target,right,yellow,imageability,liberal,no,m,0,2.16689848386,-3,309
2019_Oct_30,25,001,1,recog,73,POINT,HF,lure,-,-,-,liberal,no,z,0,0.916923046467,-1,308
2019_Oct_30,25,001,1,recog,74,JELLIES,LF,target,right,yellow,imageability,conservative,no,z,1,1.01668863859,1,309
2019_Oct_30,25,001,1,recog,75,DARKEN,LF,lure,-,-,-,liberal,no,m,1,0.650242473212,1,310
2019_Oct_30,25,001,1,recog,76,BETTER,HF,target,left,aqua,pleasantness,conservative,no,z,1,1.08334530913,1,311
2019_Oct_30,25,001,1,recog,77,WRANGLING,LF,lure,-,-,-,conservative,no,m,1,0.866929718696,3,314
2019_Oct_30,25,001,1,recog,78,VELVETY,LF,target,left,aqua,pleasantness,liberal,no,z,1,0.533566812478,3,317
2019_Oct_30,25,001,1,recog,79,SYSTEM,HF,target,right,yellow,imageability,conservative,no,m,0,0.550266449245,-1,316
2019_Oct_30,25,001,1,recog,80,LIGHT,HF,lure,-,-,-,liberal,no,m,1,1.21684122001,1,317
2019_Oct_30,25,001,1,recog,81,CHROMIUM,LF,target,left,aqua,pleasantness,conservative,no,z,1,0.78367312822,1,318
2019_Oct_30,25,001,1,recog,82,HOSPITAL,HF,target,right,yellow,imageability,liberal,no,z,1,0.583486085836,3,321
2019_Oct_30,25,001,1,recog,83,CRYPT,LF,lure,-,-,-,liberal,no,m,1,0.61694035027,1,322
2019_Oct_30,25,001,1,recog,84,FIFTIETH,LF,lure,-,-,-,liberal,no,m,1,0.633598560558,1,323
2019_Oct_30,25,001,1,recog,85,INHABITS,LF,lure,-,-,-,liberal,no,m,1,0.650041206515,1,324
2019_Oct_30,25,001,1,recog,86,DURING,HF,lure,-,-,-,conservative,no,m,1,0.650055504149,3,327
2019_Oct_30,25,001,1,recog,87,DECIDED,HF,target,left,aqua,pleasantness,liberal,no,z,1,0.800339770446,3,330
2019_Oct_30,25,001,1,recog,88,ROTARY,LF,target,left,aqua,pleasantness,liberal,no,z,1,0.633637054189,3,333
2019_Oct_30,25,001,1,recog,89,SUPPORT,HF,lure,-,-,-,liberal,no,m,1,1.00020713239,1,334
2019_Oct_30,25,001,1,recog,90,ONCOMING,LF,lure,-,-,-,liberal,no,m,1,2.10016555927,1,335
2019_Oct_30,25,001,1,recog,91,YACHTING,LF,lure,-,-,-,conservative,no,m,1,1.83352164662,3,338
2019_Oct_30,25,001,1,recog,92,THANK,HF,target,left,aqua,pleasantness,conservative,yes,m,0,0.80019166162,-1,337
2019_Oct_30,25,001,1,recog,93,REGAINING,LF,target,left,aqua,pleasantness,liberal,no,z,1,0.800236020946,3,340
2019_Oct_30,25,001,1,recog,94,OMITTING,LF,target,right,yellow,imageability,liberal,no,z,1,0.900282433267,3,343
2019_Oct_30,25,001,1,recog,95,SOVIET,HF,target,right,yellow,imageability,liberal,no,z,1,0.550294677907,3,346
2019_Oct_30,25,001,2,source,0,ROLLERS,LF,target,right,yellow,imageability,conservative,no,7,1,1.40025970369,-,-
2019_Oct_30,25,001,2,source,1,CITES,LF,target,right,yellow,imageability,conservative,no,9,1,0.916948342281,-,-
2019_Oct_30,25,001,2,source,2,COOING,LF,target,right,yellow,imageability,conservative,no,7,1,1.03362143677,-,-
2019_Oct_30,25,001,2,source,3,UNGAINLY,LF,target,right,yellow,imageability,conservative,no,9,1,1.13360222662,-,-
2019_Oct_30,25,001,2,source,4,CALLED,HF,target,right,yellow,imageability,liberal,no,3,0,1.05028514615,-,-
2019_Oct_30,25,001,2,source,5,VEILING,LF,target,right,yellow,imageability,liberal,no,8,1,1.06694665589,-,-
2019_Oct_30,25,001,2,source,6,INVOLVED,HF,target,left,aqua,pleasantness,liberal,no,1,1,1.61680910532,-,-
2019_Oct_30,25,001,2,source,7,NIGHT,HF,target,left,aqua,pleasantness,conservative,no,1,1,1.15011672735,-,-
2019_Oct_30,25,001,2,source,8,MAYBE,HF,target,right,yellow,imageability,liberal,no,7,1,1.96694386969,-,-
2019_Oct_30,25,001,2,source,9,VORACIOUS,LF,target,right,yellow,imageability,liberal,yes,3,0,0.750248192266,-,-
2019_Oct_30,25,001,2,source,10,TUBERS,LF,target,left,aqua,pleasantness,conservative,no,7,0,1.01694892885,-,-
2019_Oct_30,25,001,2,source,11,NEARLY,HF,target,left,aqua,pleasantness,liberal,no,3,1,1.81683667409,-,-
2019_Oct_30,25,001,2,source,12,DRINK,HF,target,right,yellow,imageability,conservative,no,8,1,1.28358734241,-,-
2019_Oct_30,25,001,2,source,13,MOTHER,HF,target,right,yellow,imageability,liberal,no,9,1,1.20001547077,-,-
2019_Oct_30,25,001,2,source,14,SLEEP,HF,target,right,yellow,imageability,liberal,no,8,1,1.58359606764,-,-
2019_Oct_30,25,001,2,source,15,GLASS,HF,target,left,aqua,pleasantness,conservative,yes,3,1,0.73363104185,-,-
2019_Oct_30,25,001,2,source,16,BINDINGS,LF,target,left,aqua,pleasantness,liberal,no,1,1,1.93357062518,-,-
2019_Oct_30,25,001,2,source,17,PRACTICE,HF,target,left,aqua,pleasantness,liberal,no,3,1,1.43347530762,-,-
2019_Oct_30,25,001,2,source,18,MOMENT,HF,target,left,aqua,pleasantness,conservative,no,7,0,1.21669091154,-,-
2019_Oct_30,25,001,2,source,19,MUSIC,HF,target,right,yellow,imageability,conservative,no,8,1,0.933620116991,-,-
2019_Oct_30,25,001,2,source,20,ATHEIST,LF,target,right,yellow,imageability,conservative,no,9,1,0.816696263991,-,-
2019_Oct_30,25,001,2,source,21,QUICKLY,HF,target,right,yellow,imageability,conservative,no,7,1,1.4500414998,-,-
2019_Oct_30,25,001,2,source,22,VISCOUS,LF,target,left,aqua,pleasantness,conservative,no,2,1,1.28360347308,-,-
2019_Oct_30,25,001,2,source,23,UNCANNILY,LF,target,left,aqua,pleasantness,conservative,no,1,1,1.10027590768,-,-
2019_Oct_30,25,001,2,source,24,OBSCURELY,LF,target,left,aqua,pleasantness,liberal,no,2,1,1.30023198828,-,-
2019_Oct_30,25,001,2,source,25,AFFABLE,LF,target,left,aqua,pleasantness,conservative,no,1,1,1.18361938378,-,-
2019_Oct_30,25,001,2,source,26,BLOOD,HF,target,right,yellow,imageability,conservative,no,9,1,1.21693323811,-,-
2019_Oct_30,25,001,2,source,27,FELLS,LF,target,left,aqua,pleasantness,liberal,no,1,1,0.800079846788,-,-
2019_Oct_30,25,001,2,source,28,HOPPER,LF,target,left,aqua,pleasantness,liberal,no,7,0,1.000024196,-,-
2019_Oct_30,25,001,2,source,29,TIERS,LF,target,right,yellow,imageability,conservative,no,9,1,0.883574731168,-,-
2019_Oct_30,25,001,2,source,30,HUSBAND,HF,target,right,yellow,imageability,liberal,yes,3,0,0.683675474498,-,-
2019_Oct_30,25,001,2,source,31,DUBIOUSLY,LF,target,left,aqua,pleasantness,liberal,no,1,1,1.36692935209,-,-
2019_Oct_30,25,001,2,source,32,ALREADY,HF,target,left,aqua,pleasantness,liberal,no,3,1,1.31690156335,-,-
2019_Oct_30,25,001,2,source,33,EMIGRATED,LF,target,right,yellow,imageability,liberal,no,9,1,1.28361483787,-,-
2019_Oct_30,25,001,2,source,34,WRITE,HF,target,left,aqua,pleasantness,conservative,no,1,1,0.933357993697,-,-
2019_Oct_30,25,001,2,source,35,SOMEONE,HF,target,right,yellow,imageability,liberal,no,9,1,0.766885872617,-,-
2019_Oct_30,25,001,2,source,36,JOLLITY,LF,target,right,yellow,imageability,liberal,no,9,1,1.16686145666,-,-
2019_Oct_30,25,001,2,source,37,EMPATHY,LF,target,right,yellow,imageability,liberal,no,9,1,0.85004274626,-,-
2019_Oct_30,25,001,2,source,38,LIKELY,HF,target,left,aqua,pleasantness,conservative,yes,7,0,0.800154267807,-,-
2019_Oct_30,25,001,2,source,39,VARIOUS,HF,target,right,yellow,imageability,conservative,no,8,1,1.26693169837,-,-
2019_Oct_30,25,001,2,source,40,TABLE,HF,target,right,yellow,imageability,conservative,no,9,1,0.816937124137,-,-
2019_Oct_30,25,001,2,source,41,GLEANED,LF,target,left,aqua,pleasantness,liberal,no,7,0,0.966695310816,-,-
2019_Oct_30,25,001,2,source,42,HOURS,HF,target,left,aqua,pleasantness,liberal,no,3,1,1.06669296454,-,-
2019_Oct_30,25,001,2,source,43,MURPHY,LF,target,right,yellow,imageability,liberal,no,9,1,0.833614397938,-,-
2019_Oct_30,25,001,2,source,44,COLDEST,LF,target,left,aqua,pleasantness,conservative,no,2,1,1.73331722711,-,-
2019_Oct_30,25,001,2,source,45,APPEARED,HF,target,left,aqua,pleasantness,liberal,no,7,0,1.06668343278,-,-
2019_Oct_30,25,001,2,source,46,FACILE,LF,target,left,aqua,pleasantness,conservative,no,2,1,1.86659794026,-,-
2019_Oct_30,25,001,2,source,47,DOCTOR,HF,target,left,aqua,pleasantness,conservative,no,1,1,0.716911241753,-,-
2019_Oct_30,25,001,2,recog,0,ECLECTIC,LF,lure,-,-,-,conservative,no,m,1,0.916836894055,3,349
2019_Oct_30,25,001,2,recog,1,DIETING,LF,lure,-,-,-,liberal,no,m,1,1.60024951205,1,350
2019_Oct_30,25,001,2,recog,2,LABOUR,HF,lure,-,-,-,liberal,no,m,1,0.583654357992,1,351
2019_Oct_30,25,001,2,recog,3,NIGHT,HF,target,left,aqua,pleasantness,conservative,no,z,1,0.55035590111,1,352
2019_Oct_30,25,001,2,recog,4,WRITE,HF,target,left,aqua,pleasantness,conservative,no,z,1,0.550336470992,1,353
2019_Oct_30,25,001,2,recog,5,DEITIES,LF,lure,-,-,-,conservative,no,m,1,0.566966452618,3,356
2019_Oct_30,25,001,2,recog,6,SOYBEAN,LF,lure,-,-,-,conservative,no,m,1,0.650206179218,3,359
2019_Oct_30,25,001,2,recog,7,PETERED,LF,lure,-,-,-,conservative,no,m,1,0.566989548796,3,362
2019_Oct_30,25,001,2,recog,8,NOTHING,HF,lure,-,-,-,conservative,no,m,1,0.550301276815,3,365
2019_Oct_30,25,001,2,recog,9,ORDER,HF,lure,-,-,-,conservative,no,z,0,0.533571944962,-3,362
2019_Oct_30,25,001,2,recog,10,APPEARED,HF,target,left,aqua,pleasantness,liberal,no,z,1,1.01693829728,3,365
2019_Oct_30,25,001,2,recog,11,LIFEBOAT,LF,lure,-,-,-,conservative,yes,m,1,0.816904129597,3,368
2019_Oct_30,25,001,2,recog,12,LATER,HF,lure,-,-,-,liberal,no,z,0,1.16688601926,-1,367
2019_Oct_30,25,001,2,recog,13,TUBERS,LF,target,left,aqua,pleasantness,conservative,no,m,0,3.25017010519,-1,366
2019_Oct_30,25,001,2,recog,14,OATHS,LF,lure,-,-,-,liberal,no,m,1,1.23360207998,1,367
2019_Oct_30,25,001,2,recog,15,CAPITAL,HF,lure,-,-,-,conservative,no,m,1,0.900186749099,3,370
2019_Oct_30,25,001,2,recog,16,MATERIAL,HF,lure,-,-,-,liberal,no,m,1,0.633570331895,1,371
2019_Oct_30,25,001,2,recog,17,EMPATHY,LF,target,right,yellow,imageability,liberal,yes,z,1,1.15020691243,3,374
2019_Oct_30,25,001,2,recog,18,VEILING,LF,target,right,yellow,imageability,liberal,no,z,1,0.783595407747,3,377
2019_Oct_30,25,001,2,recog,19,EMIGRATED,LF,target,right,yellow,imageability,liberal,no,z,1,0.80020082677,3,380
2019_Oct_30,25,001,2,recog,20,BECAME,HF,lure,-,-,-,liberal,no,m,1,0.766915201098,1,381
2019_Oct_30,25,001,2,recog,21,FENCED,LF,lure,-,-,-,liberal,no,m,1,0.783379843415,1,382
2019_Oct_30,25,001,2,recog,22,BOOKS,HF,lure,-,-,-,liberal,no,m,1,0.650052937907,1,383
2019_Oct_30,25,001,2,recog,23,CALLED,HF,target,right,yellow,imageability,liberal,no,z,1,0.683376690603,3,386
2019_Oct_30,25,001,2,recog,24,MUSIC,HF,target,right,yellow,imageability,conservative,no,z,1,0.750314547953,1,387
2019_Oct_30,25,001,2,recog,25,DOCTOR,HF,target,left,aqua,pleasantness,conservative,no,z,1,0.716961833382,1,388
2019_Oct_30,25,001,2,recog,26,MOMENT,HF,target,left,aqua,pleasantness,conservative,no,z,1,0.666962639915,1,389
2019_Oct_30,25,001,2,recog,27,MURPHY,LF,target,right,yellow,imageability,liberal,no,z,1,0.533337317119,3,392
2019_Oct_30,25,001,2,recog,28,PYJAMA,LF,lure,-,-,-,liberal,no,m,1,0.566933824683,1,393
2019_Oct_30,25,001,2,recog,29,SECOND,HF,lure,-,-,-,conservative,no,m,1,0.816964986193,3,396
2019_Oct_30,25,001,2,recog,30,TABLE,HF,target,right,yellow,imageability,conservative,no,z,1,0.583583969639,1,397
2019_Oct_30,25,001,2,recog,31,JOLLITY,LF,target,right,yellow,imageability,liberal,no,z,1,0.699991274777,3,400
2019_Oct_30,25,001,2,recog,32,ROYALS,LF,lure,-,-,-,liberal,no,m,1,0.68337705721,1,401
2019_Oct_30,25,001,2,recog,33,DUBIOUSLY,LF,target,left,aqua,pleasantness,liberal,no,z,1,0.616946949178,3,404
2019_Oct_30,25,001,2,recog,34,AVAILABLE,HF,lure,-,-,-,liberal,no,m,1,0.716659750033,1,405
2019_Oct_30,25,001,2,recog,35,BEGAN,HF,lure,-,-,-,conservative,no,z,0,1.25026945541,-3,402
2019_Oct_30,25,001,2,recog,36,AFFABLE,LF,target,left,aqua,pleasantness,conservative,no,z,1,1.10024951205,1,403
2019_Oct_30,25,001,2,recog,37,DOUBT,HF,lure,-,-,-,conservative,no,m,1,0.850000586569,3,406
2019_Oct_30,25,001,2,recog,38,CITES,LF,target,right,yellow,imageability,conservative,no,z,1,0.700271361766,1,407
2019_Oct_30,25,001,2,recog,39,KNOWLEDGE,HF,lure,-,-,-,liberal,no,m,1,0.966896944119,1,408
2019_Oct_30,25,001,2,recog,40,VORACIOUS,LF,target,right,yellow,imageability,liberal,no,z,1,0.583648492297,3,411
2019_Oct_30,25,001,2,recog,41,KETCHUP,LF,lure,-,-,-,conservative,no,m,1,0.700296290974,3,414
2019_Oct_30,25,001,2,recog,42,COOING,LF,target,right,yellow,imageability,conservative,no,z,1,0.816854637786,1,415
2019_Oct_30,25,001,2,recog,43,INCLUDING,HF,lure,-,-,-,conservative,no,m,1,1.1834496452,3,418
2019_Oct_30,25,001,2,recog,44,MACARONI,LF,lure,-,-,-,liberal,no,m,1,0.716876780789,1,419
2019_Oct_30,25,001,2,recog,45,BINDINGS,LF,target,left,aqua,pleasantness,liberal,no,z,1,0.667006999242,3,422
2019_Oct_30,25,001,2,recog,46,HOPPER,LF,target,left,aqua,pleasantness,liberal,no,z,1,0.666961906703,3,425
2019_Oct_30,25,001,2,recog,47,VISCOUS,LF,target,left,aqua,pleasantness,conservative,no,z,1,1.26667287453,1,426
2019_Oct_30,25,001,2,recog,48,SANDAL,LF,lure,-,-,-,conservative,no,m,1,2.36681900368,3,429
2019_Oct_30,25,001,2,recog,49,LIKELY,HF,target,left,aqua,pleasantness,conservative,no,z,1,0.866955381116,1,430
2019_Oct_30,25,001,2,recog,50,HOURS,HF,target,left,aqua,pleasantness,liberal,no,z,1,0.600305602766,3,433
2019_Oct_30,25,001,2,recog,51,BLOOD,HF,target,right,yellow,imageability,conservative,yes,m,0,0.850027348808,-1,432
2019_Oct_30,25,001,2,recog,52,PRACTICE,HF,target,left,aqua,pleasantness,liberal,no,z,1,0.600246212593,3,435
2019_Oct_30,25,001,2,recog,53,MOTHER,HF,target,right,yellow,imageability,liberal,no,z,1,0.516958827212,3,438
2019_Oct_30,25,001,2,recog,54,CICADAS,LF,lure,-,-,-,liberal,no,m,1,0.916899950288,1,439
2019_Oct_30,25,001,2,recog,55,UNGAINLY,LF,target,right,yellow,imageability,conservative,no,z,1,0.716924072964,1,440
2019_Oct_30,25,001,2,recog,56,HONKING,LF,lure,-,-,-,liberal,no,m,1,0.750226929118,1,441
2019_Oct_30,25,001,2,recog,57,ROLLERS,LF,target,right,yellow,imageability,conservative,no,z,1,0.883360999866,1,442
2019_Oct_30,25,001,2,recog,58,BEFALL,LF,lure,-,-,-,liberal,no,m,1,0.733599147128,1,443
2019_Oct_30,25,001,2,recog,59,SOMEONE,HF,target,right,yellow,imageability,liberal,no,z,1,1.03335858027,3,446
2019_Oct_30,25,001,2,recog,60,GLASS,HF,target,left,aqua,pleasantness,conservative,no,z,1,1.13366271661,1,447
2019_Oct_30,25,001,2,recog,61,SINCE,HF,lure,-,-,-,liberal,no,m,1,0.816927225775,1,448
2019_Oct_30,25,001,2,recog,62,ABLAZE,LF,lure,-,-,-,liberal,no,m,1,0.86692568603,1,449
2019_Oct_30,25,001,2,recog,63,HUSBAND,HF,target,right,yellow,imageability,liberal,no,z,1,0.666908748832,3,452
2019_Oct_30,25,001,2,recog,64,EFFECT,HF,lure,-,-,-,conservative,yes,m,1,0.800249951975,3,455
2019_Oct_30,25,001,2,recog,65,HILLSIDES,LF,lure,-,-,-,conservative,no,z,0,0.966918573873,-3,452
2019_Oct_30,25,001,2,recog,66,VOICE,HF,lure,-,-,-,liberal,no,m,1,2.05023235489,1,453
2019_Oct_30,25,001,2,recog,67,GLEANED,LF,target,left,aqua,pleasantness,liberal,no,z,1,0.733625176154,3,456
2019_Oct_30,25,001,2,recog,68,OBSCURELY,LF,target,left,aqua,pleasantness,liberal,no,z,1,0.5836242963,3,459
2019_Oct_30,25,001,2,recog,69,ATHEIST,LF,target,right,yellow,imageability,conservative,no,m,0,0.58363346145,-1,458
2019_Oct_30,25,001,2,recog,70,FACILE,LF,target,left,aqua,pleasantness,conservative,no,m,0,2.00013014513,-1,457
2019_Oct_30,25,001,2,recog,71,DRINK,HF,target,right,yellow,imageability,conservative,no,z,1,0.633583529712,1,458
2019_Oct_30,25,001,2,recog,72,INVOLVED,HF,target,left,aqua,pleasantness,liberal,no,z,1,0.583627229148,3,461
2019_Oct_30,25,001,2,recog,73,TIERS,LF,target,right,yellow,imageability,conservative,no,z,1,0.500283019836,1,462
2019_Oct_30,25,001,2,recog,74,MAYBE,HF,target,right,yellow,imageability,liberal,no,z,1,0.783621436773,3,465
2019_Oct_30,25,001,2,recog,75,SLEEP,HF,target,right,yellow,imageability,liberal,no,z,1,0.516955161153,3,468
2019_Oct_30,25,001,2,recog,76,COLDEST,LF,target,left,aqua,pleasantness,conservative,no,z,1,1.58357333806,1,469
2019_Oct_30,25,001,2,recog,77,VARIOUS,HF,target,right,yellow,imageability,conservative,no,z,1,0.566983316494,1,470
2019_Oct_30,25,001,2,recog,78,NEARLY,HF,target,left,aqua,pleasantness,liberal,no,z,1,0.550248118945,3,473
2019_Oct_30,25,001,2,recog,79,ALREADY,HF,target,left,aqua,pleasantness,liberal,no,z,1,0.600383689845,3,476
2019_Oct_30,25,001,2,recog,80,UNCANNILY,LF,target,left,aqua,pleasantness,conservative,no,z,1,0.566892031598,1,477
2019_Oct_30,25,001,2,recog,81,FELLS,LF,target,left,aqua,pleasantness,liberal,no,z,1,0.550250685187,3,480
2019_Oct_30,25,001,2,recog,82,WICKEDLY,LF,lure,-,-,-,conservative,no,z,0,0.483549288711,-3,477
2019_Oct_30,25,001,2,recog,83,MISFITS,LF,lure,-,-,-,liberal,no,m,1,1.16698646931,1,478
2019_Oct_30,25,001,2,recog,84,AGATE,LF,lure,-,-,-,conservative,no,m,1,0.816962786557,3,481
2019_Oct_30,25,001,2,recog,85,VEHEMENCE,LF,lure,-,-,-,conservative,no,m,1,0.550263883003,3,484
2019_Oct_30,25,001,2,recog,86,CUFFED,LF,lure,-,-,-,liberal,no,z,0,0.733541223379,-1,483
2019_Oct_30,25,001,2,recog,87,USING,HF,lure,-,-,-,conservative,no,m,1,0.583703849803,3,486
2019_Oct_30,25,001,2,recog,88,QUICKLY,HF,target,right,yellow,imageability,conservative,no,z,1,0.583644826236,1,487
2019_Oct_30,25,001,2,recog,89,LARGE,HF,lure,-,-,-,conservative,no,m,1,0.616991308505,3,490
2019_Oct_30,25,001,2,recog,90,SPOKE,HF,lure,-,-,-,conservative,no,z,0,0.733671368511,-3,487
2019_Oct_30,25,001,2,recog,91,PRIVATE,HF,lure,-,-,-,conservative,no,m,1,1.10027297483,3,490
2019_Oct_30,25,001,2,recog,92,DORMS,LF,lure,-,-,-,conservative,no,m,1,0.450224436197,3,493
2019_Oct_30,25,001,2,recog,93,GARDEN,HF,lure,-,-,-,liberal,no,m,1,0.816914761171,1,494
2019_Oct_30,25,001,2,recog,94,TERMS,HF,lure,-,-,-,liberal,no,m,1,0.650309562111,1,495
2019_Oct_30,25,001,2,recog,95,RECENT,HF,lure,-,-,-,liberal,no,m,1,0.716972464956,1,496
2019_Oct_30,25,001,3,source,0,ASKED,HF,target,right,yellow,imageability,conservative,no,7,1,1.28357597763,-,-
2019_Oct_30,25,001,3,source,1,ANSWER,HF,target,left,aqua,pleasantness,conservative,no,8,0,1.15027473454,-,-
2019_Oct_30,25,001,3,source,2,ELICIT,LF,target,left,aqua,pleasantness,conservative,no,1,1,1.61664596565,-,-
2019_Oct_30,25,001,3,source,3,EVENING,HF,target,right,yellow,imageability,conservative,no,2,0,1.56681724397,-,-
2019_Oct_30,25,001,3,source,4,AGONIZED,LF,target,right,yellow,imageability,conservative,no,7,1,1.11688389295,-,-
2019_Oct_30,25,001,3,source,5,MAKES,HF,target,right,yellow,imageability,conservative,no,9,1,0.900279133813,-,-
2019_Oct_30,25,001,3,source,6,GYPSIES,LF,target,left,aqua,pleasantness,conservative,no,1,1,0.883650252005,-,-
2019_Oct_30,25,001,3,source,7,KIDNAP,LF,target,right,yellow,imageability,liberal,no,9,1,0.683673274862,-,-
2019_Oct_30,25,001,3,source,8,TWINE,LF,target,right,yellow,imageability,liberal,no,9,1,0.700241666679,-,-
2019_Oct_30,25,001,3,source,9,TUFTS,LF,target,left,aqua,pleasantness,liberal,no,1,1,0.750250391902,-,-
2019_Oct_30,25,001,3,source,10,SOUND,HF,target,left,aqua,pleasantness,conservative,no,7,0,0.866992774929,-,-
2019_Oct_30,25,001,3,source,11,LANGUAGE,HF,target,left,aqua,pleasantness,liberal,no,1,1,0.750328478981,-,-
2019_Oct_30,25,001,3,source,12,RAMBLE,LF,target,left,aqua,pleasantness,liberal,no,1,1,0.899998680218,-,-
2019_Oct_30,25,001,3,source,13,GIVEN,HF,target,right,yellow,imageability,conservative,no,9,1,1.60028213998,-,-
2019_Oct_30,25,001,3,source,14,ORIGINALS,LF,target,left,aqua,pleasantness,liberal,no,1,1,0.80024298646,-,-
2019_Oct_30,25,001,3,source,15,SILENCER,LF,target,right,yellow,imageability,conservative,no,7,1,1.0001829364,-,-
2019_Oct_30,25,001,3,source,16,FIXTURE,LF,target,right,yellow,imageability,conservative,no,9,1,1.16688198659,-,-
2019_Oct_30,25,001,3,source,17,HERSELF,HF,target,left,aqua,pleasantness,conservative,no,2,1,1.61688865882,-,-
2019_Oct_30,25,001,3,source,18,ENERGY,HF,target,right,yellow,imageability,conservative,yes,3,0,1.50016203985,-,-
2019_Oct_30,25,001,3,source,19,MEETING,HF,target,right,yellow,imageability,liberal,no,9,1,2.31687773396,-,-
2019_Oct_30,25,001,3,source,20,GETTING,HF,target,right,yellow,imageability,liberal,no,8,1,1.06695398801,-,-
2019_Oct_30,25,001,3,source,21,HAMLETS,LF,target,left,aqua,pleasantness,liberal,no,1,1,0.850226049263,-,-
2019_Oct_30,25,001,3,source,22,WAITING,HF,target,left,aqua,pleasantness,conservative,no,3,1,1.01689027189,-,-
2019_Oct_30,25,001,3,source,23,TOUSLED,LF,target,right,yellow,imageability,liberal,no,7,1,1.15023037521,-,-
2019_Oct_30,25,001,3,source,24,UNDER,HF,target,right,yellow,imageability,liberal,no,8,1,1.03351768727,-,-
2019_Oct_30,25,001,3,source,25,GOADED,LF,target,left,aqua,pleasantness,conservative,no,2,1,1.20001327114,-,-
2019_Oct_30,25,001,3,source,26,SORRY,HF,target,left,aqua,pleasantness,liberal,no,1,1,1.91679253473,-,-
2019_Oct_30,25,001,3,source,27,DIMMED,LF,target,right,yellow,imageability,liberal,no,1,0,1.08363309484,-,-
2019_Oct_30,25,001,3,source,28,MARKET,HF,target,left,aqua,pleasantness,conservative,no,7,0,2.10016775891,-,-
2019_Oct_30,25,001,3,source,29,MOSAICS,LF,target,right,yellow,imageability,conservative,no,9,1,0.933555227728,-,-
2019_Oct_30,25,001,3,source,30,ARRIVED,HF,target,right,yellow,imageability,liberal,no,7,1,0.966896577513,-,-
2019_Oct_30,25,001,3,source,31,INFECT,LF,target,right,yellow,imageability,liberal,no,9,1,2.63344421943,-,-
2019_Oct_30,25,001,3,source,32,PIECE,HF,target,left,aqua,pleasantness,liberal,no,1,1,1.61693778403,-,-
2019_Oct_30,25,001,3,source,33,ANIMAL,HF,target,left,aqua,pleasantness,liberal,no,1,1,2.44993555066,-,-
2019_Oct_30,25,001,3,source,34,ERRANT,LF,target,left,aqua,pleasantness,conservative,no,1,1,1.10002038329,-,-
2019_Oct_30,25,001,3,source,35,ENZYME,LF,target,left,aqua,pleasantness,liberal,no,1,1,0.816949588741,-,-
2019_Oct_30,25,001,3,source,36,JUNCTURE,LF,target,left,aqua,pleasantness,liberal,yes,3,1,1.250231695,-,-
2019_Oct_30,25,001,3,source,37,HAPPEN,HF,target,right,yellow,imageability,liberal,no,7,1,0.96686101673,-,-
2019_Oct_30,25,001,3,source,38,COUNCIL,HF,target,left,aqua,pleasantness,liberal,no,1,1,0.750289985351,-,-
2019_Oct_30,25,001,3,source,39,FLOOR,HF,target,right,yellow,imageability,conservative,no,9,1,0.666917913983,-,-
2019_Oct_30,25,001,3,source,40,HOWEVER,HF,target,left,aqua,pleasantness,liberal,no,3,1,1.06690632923,-,-
2019_Oct_30,25,001,3,source,41,NUMBER,HF,target,right,yellow,imageability,liberal,no,3,0,1.06685867045,-,-
2019_Oct_30,25,001,3,source,42,MALIGNED,LF,target,left,aqua,pleasantness,conservative,no,8,0,2.05022942204,-,-
2019_Oct_30,25,001,3,source,43,ANVIL,LF,target,right,yellow,imageability,liberal,no,9,1,0.766974224665,-,-
2019_Oct_30,25,001,3,source,44,UNWARY,LF,target,right,yellow,imageability,conservative,no,7,1,0.866707555457,-,-
2019_Oct_30,25,001,3,source,45,ALERTING,LF,target,right,yellow,imageability,conservative,yes,7,1,0.716744436021,-,-
2019_Oct_30,25,001,3,source,46,CUTLER,LF,target,left,aqua,pleasantness,conservative,no,3,1,2.59994339603,-,-
2019_Oct_30,25,001,3,source,47,SMALL,HF,target,left,aqua,pleasantness,conservative,yes,7,0,0.866946949178,-,-
2019_Oct_30,25,001,3,recog,0,ENZYME,LF,target,left,aqua,pleasantness,liberal,no,z,1,0.983566152587,3,499
2019_Oct_30,25,001,3,recog,1,HOWEVER,HF,target,left,aqua,pleasantness,liberal,no,z,1,0.78357487781,3,502
2019_Oct_30,25,001,3,recog,2,KITCHEN,HF,lure,-,-,-,conservative,no,m,1,0.55024298646,3,505
2019_Oct_30,25,001,3,recog,3,ALERTING,LF,target,right,yellow,imageability,conservative,no,m,0,0.633374930895,-1,504
2019_Oct_30,25,001,3,recog,4,HERSELF,HF,target,left,aqua,pleasantness,conservative,no,z,1,0.63361395801,1,505
2019_Oct_30,25,001,3,recog,5,IDOLATRY,LF,lure,-,-,-,conservative,no,m,1,0.733568352223,3,508
2019_Oct_30,25,001,3,recog,6,ANVIL,LF,target,right,yellow,imageability,liberal,no,m,0,0.716995194528,-3,505
2019_Oct_30,25,001,3,recog,7,ELICIT,LF,target,left,aqua,pleasantness,conservative,no,z,1,0.950262563221,1,506
2019_Oct_30,25,001,3,recog,8,TWENTY,HF,lure,-,-,-,liberal,no,m,1,0.85028690586,1,507
2019_Oct_30,25,001,3,recog,9,UDDER,LF,lure,-,-,-,liberal,no,m,1,0.750239393722,1,508
2019_Oct_30,25,001,3,recog,10,TOUSLED,LF,target,right,yellow,imageability,liberal,no,z,1,0.550248118944,3,511
2019_Oct_30,25,001,3,recog,11,MOSAICS,LF,target,right,yellow,imageability,conservative,no,z,1,0.733667702451,1,512
2019_Oct_30,25,001,3,recog,12,TYPHOID,LF,lure,-,-,-,liberal,no,m,1,0.717009492163,1,513
2019_Oct_30,25,001,3,recog,13,DIMMED,LF,target,right,yellow,imageability,liberal,no,z,1,0.666947975675,3,516
2019_Oct_30,25,001,3,recog,14,YELLOWED,LF,lure,-,-,-,conservative,no,m,1,0.716993728105,3,519
2019_Oct_30,25,001,3,recog,15,IMPORTANT,HF,lure,-,-,-,liberal,no,z,0,0.733573484707,-1,518
2019_Oct_30,25,001,3,recog,16,JUNCTURE,LF,target,left,aqua,pleasantness,liberal,no,m,0,0.700240933467,-3,515
2019_Oct_30,25,001,3,recog,17,RUNNING,HF,lure,-,-,-,conservative,no,z,0,1.53351402121,-3,512
2019_Oct_30,25,001,3,recog,18,FIELD,HF,lure,-,-,-,conservative,no,m,1,1.23364313985,3,515
2019_Oct_30,25,001,3,recog,19,ORIGINALS,LF,target,left,aqua,pleasantness,liberal,no,m,0,0.750311248499,-3,512
2019_Oct_30,25,001,3,recog,20,HANDS,HF,lure,-,-,-,liberal,yes,z,0,0.816869668633,-1,511
2019_Oct_30,25,001,3,recog,21,TALKING,HF,lure,-,-,-,liberal,no,z,0,1.25033397807,-1,510
2019_Oct_30,25,001,3,recog,22,CERTAIN,HF,lure,-,-,-,conservative,no,m,1,0.916967772399,3,513
2019_Oct_30,25,001,3,recog,23,NUMBER,HF,target,right,yellow,imageability,liberal,no,z,1,0.666934044646,3,516
2019_Oct_30,25,001,3,recog,24,ENERGY,HF,target,right,yellow,imageability,conservative,no,m,0,0.683639180504,-1,515
2019_Oct_30,25,001,3,recog,25,FOLLOWED,HF,lure,-,-,-,conservative,no,z,0,0.683574291241,-3,512
2019_Oct_30,25,001,3,recog,26,TRADE,HF,lure,-,-,-,conservative,no,m,1,0.650264102967,3,515
2019_Oct_30,25,001,3,recog,27,AGONIZED,LF,target,right,yellow,imageability,conservative,no,z,1,0.900230008608,1,516
2019_Oct_30,25,001,3,recog,28,FLOOR,HF,target,right,yellow,imageability,conservative,no,z,1,0.533590641869,1,517
2019_Oct_30,25,001,3,recog,29,MAILBOX,LF,lure,-,-,-,conservative,no,m,1,0.666903982954,3,520
2019_Oct_30,25,001,3,recog,30,NEURAL,LF,lure,-,-,-,liberal,no,m,1,0.900074201056,1,521
2019_Oct_30,25,001,3,recog,31,MAKES,HF,target,right,yellow,imageability,conservative,no,z,1,0.833550608493,1,522
2019_Oct_30,25,001,3,recog,32,GIVEN,HF,target,right,yellow,imageability,conservative,no,z,1,0.717005826103,1,523
2019_Oct_30,25,001,3,recog,33,GYPSIES,LF,target,left,aqua,pleasantness,conservative,no,z,1,0.58362796236,1,524
2019_Oct_30,25,001,3,recog,34,ANSWER,HF,target,left,aqua,pleasantness,conservative,no,z,1,0.800240420218,1,525
2019_Oct_30,25,001,3,recog,35,DIFFERENT,HF,lure,-,-,-,conservative,no,m,1,0.700253764677,3,528
2019_Oct_30,25,001,3,recog,36,HAMLETS,LF,target,left,aqua,pleasantness,liberal,no,z,1,0.700199873594,3,531
2019_Oct_30,25,001,3,recog,37,GOADED,LF,target,left,aqua,pleasantness,conservative,no,z,1,0.716906475875,1,532
2019_Oct_30,25,001,3,recog,38,LUSCIOUS,LF,lure,-,-,-,conservative,no,m,1,0.683415184234,3,535
2019_Oct_30,25,001,3,recog,39,GREATER,HF,lure,-,-,-,conservative,no,m,1,0.800295411119,3,538
2019_Oct_30,25,001,3,recog,40,EVENING,HF,target,right,yellow,imageability,conservative,no,z,1,1.03359577435,1,539
2019_Oct_30,25,001,3,recog,41,GEARING,LF,lure,-,-,-,liberal,no,m,1,0.750195767607,1,540
2019_Oct_30,25,001,3,recog,42,MALIGNED,LF,target,left,aqua,pleasantness,conservative,no,z,1,0.666946509251,1,541
2019_Oct_30,25,001,3,recog,43,HAPPEN,HF,target,right,yellow,imageability,liberal,no,z,1,0.750228028935,3,544
2019_Oct_30,25,001,3,recog,44,EVOCATION,LF,lure,-,-,-,liberal,yes,z,0,0.633638520613,-1,543
2019_Oct_30,25,001,3,recog,45,EMBATTLED,LF,lure,-,-,-,liberal,no,m,1,0.800282213303,1,544
2019_Oct_30,25,001,3,recog,46,FIXTURE,LF,target,right,yellow,imageability,conservative,no,z,1,0.700242399891,1,545
2019_Oct_30,25,001,3,recog,47,CARRIED,HF,lure,-,-,-,liberal,no,m,1,0.766992921571,1,546
2019_Oct_30,25,001,3,recog,48,TUCKER,LF,lure,-,-,-,liberal,no,m,1,0.833623929694,1,547
2019_Oct_30,25,001,3,recog,49,ZIPPED,LF,lure,-,-,-,conservative,yes,m,1,0.950301423458,3,550
2019_Oct_30,25,001,3,recog,50,RIGGING,LF,lure,-,-,-,liberal,no,m,1,1.33335300786,1,551
2019_Oct_30,25,001,3,recog,51,ABSENCES,LF,lure,-,-,-,conservative,no,m,1,0.633531105053,3,554
2019_Oct_30,25,001,3,recog,52,BEECHES,LF,lure,-,-,-,conservative,no,m,1,0.583633828056,3,557
2019_Oct_30,25,001,3,recog,53,SHEARING,LF,lure,-,-,-,conservative,no,m,1,0.700273194795,3,560
2019_Oct_30,25,001,3,recog,54,CENTRAL,HF,lure,-,-,-,conservative,no,m,1,0.600215784295,3,563
2019_Oct_30,25,001,3,recog,55,LANGUAGE,HF,target,left,aqua,pleasantness,liberal,no,z,1,0.683568792151,3,566
2019_Oct_30,25,001,3,recog,56,STAFF,HF,lure,-,-,-,liberal,no,m,1,0.70028749243,1,567
2019_Oct_30,25,001,3,recog,57,DIPLOMAS,LF,lure,-,-,-,conservative,no,m,1,0.983554421195,3,570
2019_Oct_30,25,001,3,recog,58,ARRIVED,HF,target,right,yellow,imageability,liberal,no,z,1,0.583583603033,3,573
2019_Oct_30,25,001,3,recog,59,TWINE,LF,target,right,yellow,imageability,liberal,no,z,1,0.633628988857,3,576
2019_Oct_30,25,001,3,recog,60,HIMSELF,HF,lure,-,-,-,liberal,no,z,0,0.566914027959,-1,575
2019_Oct_30,25,001,3,recog,61,MEETING,HF,target,right,yellow,imageability,liberal,no,z,1,0.983556620831,3,578
2019_Oct_30,25,001,3,recog,62,HOTEL,HF,lure,-,-,-,liberal,yes,z,0,0.766709535129,-1,577
2019_Oct_30,25,001,3,recog,63,PAPER,HF,lure,-,-,-,liberal,no,m,1,0.733570185253,1,578
2019_Oct_30,25,001,3,recog,64,KIDNAP,LF,target,right,yellow,imageability,liberal,no,z,1,0.733663303179,3,581
2019_Oct_30,25,001,3,recog,65,OFFER,HF,lure,-,-,-,conservative,no,m,1,0.700355314541,3,584
2019_Oct_30,25,001,3,recog,66,SILENCER,LF,target,right,yellow,imageability,conservative,no,z,1,0.866904789487,1,585
2019_Oct_30,25,001,3,recog,67,LIQUEUR,LF,lure,-,-,-,liberal,no,m,1,0.766929865338,1,586
2019_Oct_30,25,001,3,recog,68,GETTING,HF,target,right,yellow,imageability,liberal,no,z,1,0.633614691222,3,589
2019_Oct_30,25,001,3,recog,69,MARKET,HF,target,left,aqua,pleasantness,conservative,no,z,1,0.983567985617,1,590
2019_Oct_30,25,001,3,recog,70,PIECE,HF,target,left,aqua,pleasantness,liberal,no,z,1,0.816907795657,3,593
2019_Oct_30,25,001,3,recog,71,SMALL,HF,target,left,aqua,pleasantness,conservative,no,z,1,0.683613151477,1,594
2019_Oct_30,25,001,3,recog,72,INFECT,LF,target,right,yellow,imageability,liberal,no,z,1,0.583382702942,3,597
2019_Oct_30,25,001,3,recog,73,ERUDITE,LF,lure,-,-,-,liberal,no,m,1,0.900236974122,1,598
2019_Oct_30,25,001,3,recog,74,HOVELS,LF,lure,-,-,-,conservative,no,m,1,0.83340396609,3,601
2019_Oct_30,25,001,3,recog,75,RUDIMENTS,LF,lure,-,-,-,liberal,no,z,0,0.816933091471,-1,600
2019_Oct_30,25,001,3,recog,76,ERRANT,LF,target,left,aqua,pleasantness,conservative,no,z,1,1.21693177169,1,601
2019_Oct_30,25,001,3,recog,77,RAMBLE,LF,target,left,aqua,pleasantness,liberal,no,z,1,0.850190855087,3,604
2019_Oct_30,25,001,3,recog,78,SNUBBED,LF,lure,-,-,-,liberal,no,m,1,0.733577517374,1,605
2019_Oct_30,25,001,3,recog,79,SOUND,HF,target,left,aqua,pleasantness,conservative,no,z,1,0.700275394431,1,606
2019_Oct_30,25,001,3,recog,80,TUFTS,LF,target,left,aqua,pleasantness,liberal,no,z,1,0.700207205714,3,609
2019_Oct_30,25,001,3,recog,81,UNDER,HF,target,right,yellow,imageability,liberal,no,z,1,1.33357480449,3,612
2019_Oct_30,25,001,3,recog,82,ASKED,HF,target,right,yellow,imageability,conservative,no,z,1,0.650269235451,1,613
2019_Oct_30,25,001,3,recog,83,EDUCATION,HF,lure,-,-,-,conservative,no,m,1,0.916956407613,3,616
2019_Oct_30,25,001,3,recog,84,REACHED,HF,lure,-,-,-,liberal,no,z,0,0.833662056718,-1,615
2019_Oct_30,25,001,3,recog,85,CUTLER,LF,target,left,aqua,pleasantness,conservative,no,z,1,0.966897677331,1,616
2019_Oct_30,25,001,3,recog,86,BIGNESS,LF,lure,-,-,-,conservative,no,m,1,0.850209551993,3,619
2019_Oct_30,25,001,3,recog,87,SORRY,HF,target,left,aqua,pleasantness,liberal,no,z,1,0.866911388396,3,622
2019_Oct_30,25,001,3,recog,88,LIZARD,LF,lure,-,-,-,conservative,no,m,1,0.683575024453,3,625
2019_Oct_30,25,001,3,recog,89,EITHER,HF,lure,-,-,-,conservative,no,z,0,0.866942916512,-3,622
2019_Oct_30,25,001,3,recog,90,TURNED,HF,lure,-,-,-,liberal,no,m,1,2.75019906706,1,623
2019_Oct_30,25,001,3,recog,91,COUNCIL,HF,target,left,aqua,pleasantness,liberal,no,m,0,0.55031740748,-3,620
2019_Oct_30,25,001,3,recog,92,LEVEL,HF,lure,-,-,-,liberal,no,m,1,0.583556474189,1,621
2019_Oct_30,25,001,3,recog,93,ANIMAL,HF,target,left,aqua,pleasantness,liberal,no,z,1,0.63370670933,3,624
2019_Oct_30,25,001,3,recog,94,UNWARY,LF,target,right,yellow,imageability,conservative,no,m,0,1.53358111011,-1,623
2019_Oct_30,25,001,3,recog,95,WAITING,HF,target,left,aqua,pleasantness,conservative,no,z,1,0.900290865205,1,624
2019_Oct_30,25,001,4,source,0,WESTERN,HF,target,left,aqua,pleasantness,conservative,no,3,1,1.65038361652,-,-
2019_Oct_30,25,001,4,source,1,BEHIND,HF,target,left,aqua,pleasantness,liberal,no,2,1,1.05023712076,-,-
2019_Oct_30,25,001,4,source,2,POSITION,HF,target,left,aqua,pleasantness,liberal,no,7,0,1.01685067844,-,-
2019_Oct_30,25,001,4,source,3,KERNEL,LF,target,left,aqua,pleasantness,liberal,no,1,1,0.866904422881,-,-
2019_Oct_30,25,001,4,source,4,AFTERNOON,HF,target,right,yellow,imageability,conservative,yes,7,1,0.717005826103,-,-
2019_Oct_30,25,001,4,source,5,LOANED,LF,target,right,yellow,imageability,conservative,no,8,1,1.06686893542,-,-
2019_Oct_30,25,001,4,source,6,PAWNS,LF,target,right,yellow,imageability,liberal,no,9,1,0.866921653364,-,-
2019_Oct_30,25,001,4,source,7,LAVISHED,LF,target,right,yellow,imageability,liberal,no,7,1,0.883583529712,-,-
2019_Oct_30,25,001,4,source,8,MOISTENED,LF,target,left,aqua,pleasantness,conservative,no,1,1,0.716970631926,-,-
2019_Oct_30,25,001,4,source,9,SCYTHE,LF,target,right,yellow,imageability,conservative,no,7,1,0.800190928408,-,-
2019_Oct_30,25,001,4,source,10,DAMASK,LF,target,left,aqua,pleasantness,liberal,no,1,1,1.11689635755,-,-
2019_Oct_30,25,001,4,source,11,WHOLE,HF,target,left,aqua,pleasantness,conservative,no,2,1,1.06689166499,-,-
2019_Oct_30,25,001,4,source,12,AROUND,HF,target,right,yellow,imageability,conservative,no,9,1,0.917012864938,-,-
2019_Oct_30,25,001,4,source,13,ESPECIAL,LF,target,left,aqua,pleasantness,liberal,no,1,1,0.76688843886,-,-
2019_Oct_30,25,001,4,source,14,TILTS,LF,target,left,aqua,pleasantness,conservative,no,2,1,1.30017589756,-,-
2019_Oct_30,25,001,4,source,15,FUTURE,HF,target,right,yellow,imageability,conservative,yes,7,1,1.13358719577,-,-
2019_Oct_30,25,001,4,source,16,TARIFF,LF,target,right,yellow,imageability,conservative,no,9,1,2.9165890684,-,-
2019_Oct_30,25,001,4,source,17,ACCORDING,HF,target,left,aqua,pleasantness,conservative,yes,7,0,0.666943943009,-,-
2019_Oct_30,25,001,4,source,18,AEGIS,LF,target,right,yellow,imageability,liberal,no,2,0,2.80023418792,-,-
2019_Oct_30,25,001,4,source,19,TOTAL,HF,target,right,yellow,imageability,liberal,no,9,1,0.900026542275,-,-
2019_Oct_30,25,001,4,source,20,COMES,HF,target,right,yellow,imageability,liberal,no,7,1,1.66685449114,-,-
2019_Oct_30,25,001,4,source,21,PREPARED,HF,target,right,yellow,imageability,liberal,no,9,1,1.53358477617,-,-
2019_Oct_30,25,001,4,source,22,SUCCESS,HF,target,left,aqua,pleasantness,liberal,no,1,1,1.01694856224,-,-
2019_Oct_30,25,001,4,source,23,LESSENED,LF,target,left,aqua,pleasantness,conservative,no,3,1,1.86696711251,-,-
2019_Oct_30,25,001,4,source,24,PORCHES,LF,target,left,aqua,pleasantness,conservative,no,1,1,1.23334325614,-,-
2019_Oct_30,25,001,4,source,25,CHIEF,HF,target,left,aqua,pleasantness,conservative,no,1,1,0.683324632551,-,-
2019_Oct_30,25,001,4,source,26,CHOICE,HF,target,right,yellow,imageability,conservative,no,3,0,1.3336001003,-,-
2019_Oct_30,25,001,4,source,27,WITHIN,HF,target,left,aqua,pleasantness,liberal,no,3,1,2.13349774391,-,-
2019_Oct_30,25,001,4,source,28,HACKNEY,LF,target,left,aqua,pleasantness,conservative,no,7,0,0.900257137453,-,-
2019_Oct_30,25,001,4,source,29,BELIEVE,HF,target,right,yellow,imageability,conservative,no,7,1,0.716655350761,-,-
2019_Oct_30,25,001,4,source,30,RATHER,HF,target,left,aqua,pleasantness,liberal,no,3,1,1.06671716053,-,-
2019_Oct_30,25,001,4,source,31,BUILDING,HF,target,left,aqua,pleasantness,conservative,no,1,1,0.766956627577,-,-
2019_Oct_30,25,001,4,source,32,SOAPY,LF,target,right,yellow,imageability,liberal,no,9,1,0.966646918823,-,-
2019_Oct_30,25,001,4,source,33,OUTSIDE,HF,target,right,yellow,imageability,liberal,no,9,1,2.18345184483,-,-
2019_Oct_30,25,001,4,source,34,SHALL,HF,target,left,aqua,pleasantness,liberal,no,3,1,1.15006136984,-,-
2019_Oct_30,25,001,4,source,35,SLACKEN,LF,target,left,aqua,pleasantness,conservative,no,7,0,0.850354727971,-,-
2019_Oct_30,25,001,4,source,36,DUMMIES,LF,target,left,aqua,pleasantness,liberal,no,1,1,0.883333871022,-,-
2019_Oct_30,25,001,4,source,37,BRING,HF,target,right,yellow,imageability,liberal,no,9,1,1.43354239652,-,-
2019_Oct_30,25,001,4,source,38,OUGHT,HF,target,right,yellow,imageability,conservative,yes,7,1,1.15006210306,-,-
2019_Oct_30,25,001,4,source,39,POWER,HF,target,left,aqua,pleasantness,conservative,no,1,1,0.950231768316,-,-
2019_Oct_30,25,001,4,source,40,KIMONO,LF,target,left,aqua,pleasantness,liberal,no,1,1,0.766708435311,-,-
2019_Oct_30,25,001,4,source,41,PNEUMATIC,LF,target,right,yellow,imageability,liberal,no,3,0,1.10024621259,-,-
2019_Oct_30,25,001,4,source,42,AVIDLY,LF,target,right,yellow,imageability,conservative,no,7,1,2.26661971666,-,-
2019_Oct_30,25,001,4,source,43,HARDLY,HF,target,right,yellow,imageability,liberal,no,3,0,1.03336151311,-,-
2019_Oct_30,25,001,4,source,44,MOLARS,LF,target,right,yellow,imageability,conservative,no,7,1,1.10010470267,-,-
2019_Oct_30,25,001,4,source,45,VOLITION,LF,target,right,yellow,imageability,conservative,no,7,1,1.1669373441,-,-
2019_Oct_30,25,001,4,source,46,BRUISING,LF,target,right,yellow,imageability,liberal,no,8,1,1.2002731948,-,-
2019_Oct_30,25,001,4,source,47,INACTION,LF,target,left,aqua,pleasantness,liberal,no,3,1,2.95018007687,-,-
2019_Oct_30,25,001,4,recog,0,LESSENED,LF,target,left,aqua,pleasantness,conservative,no,z,1,0.850216884113,1,625
2019_Oct_30,25,001,4,recog,1,RESEARCH,HF,lure,-,-,-,conservative,no,m,1,0.716701909724,3,628
2019_Oct_30,25,001,4,recog,2,ACIDITY,LF,lure,-,-,-,conservative,no,m,1,0.866845399315,3,631
2019_Oct_30,25,001,4,recog,3,COMES,HF,target,right,yellow,imageability,liberal,yes,z,1,1.26670073658,3,634
2019_Oct_30,25,001,4,recog,4,PORCHES,LF,target,left,aqua,pleasantness,conservative,no,z,1,0.666739376858,1,635
2019_Oct_30,25,001,4,recog,5,AGILITY,LF,lure,-,-,-,conservative,no,m,1,1.50018037015,3,638
2019_Oct_30,25,001,4,recog,6,ENAMELLED,LF,lure,-,-,-,conservative,no,m,1,0.566954721226,3,641
2019_Oct_30,25,001,4,recog,7,MAPPED,LF,lure,-,-,-,conservative,no,m,1,0.700228835469,3,644
2019_Oct_30,25,001,4,recog,8,OBVIOUSLY,HF,lure,-,-,-,liberal,no,m,1,1.15022890879,1,645
2019_Oct_30,25,001,4,recog,9,SOAPY,LF,target,right,yellow,imageability,liberal,no,z,1,0.816911095111,3,648
2019_Oct_30,25,001,4,recog,10,SAFARI,LF,lure,-,-,-,conservative,no,m,1,0.816855370998,3,651
2019_Oct_30,25,001,4,recog,11,DINER,LF,lure,-,-,-,conservative,no,m,1,0.85028507283,3,654
2019_Oct_30,25,001,4,recog,12,DEVELOPED,HF,lure,-,-,-,liberal,no,m,1,0.933310701523,1,655
2019_Oct_30,25,001,4,recog,13,RANGE,HF,lure,-,-,-,conservative,no,m,1,0.550367632502,3,658
2019_Oct_30,25,001,4,recog,14,YEOMAN,LF,lure,-,-,-,liberal,no,m,1,0.683548262214,1,659
2019_Oct_30,25,001,4,recog,15,PAINTWORK,LF,lure,-,-,-,conservative,no,m,1,0.566955087832,3,662
2019_Oct_30,25,001,4,recog,16,SLACKEN,LF,target,left,aqua,pleasantness,conservative,no,z,1,0.667013964756,1,663
2019_Oct_30,25,001,4,recog,17,NAUGHT,LF,lure,-,-,-,liberal,no,m,1,0.766848845411,1,664
2019_Oct_30,25,001,4,recog,18,ESPECIAL,LF,target,left,aqua,pleasantness,liberal,yes,z,1,0.766746928941,3,667
2019_Oct_30,25,001,4,recog,19,COVER,HF,lure,-,-,-,liberal,no,m,1,0.883611391768,1,668
2019_Oct_30,25,001,4,recog,20,AROUND,HF,target,right,yellow,imageability,conservative,no,z,1,0.866733217877,1,669
2019_Oct_30,25,001,4,recog,21,NEITHER,HF,lure,-,-,-,conservative,no,m,1,0.783555081086,3,672
2019_Oct_30,25,001,4,recog,22,UNLESS,HF,lure,-,-,-,conservative,no,m,1,0.800244452884,3,675
2019_Oct_30,25,001,4,recog,23,LIARS,LF,lure,-,-,-,liberal,no,m,1,0.600208818781,1,676
2019_Oct_30,25,001,4,recog,24,DAMASK,LF,target,left,aqua,pleasantness,liberal,no,z,1,0.583620263634,3,679
2019_Oct_30,25,001,4,recog,25,EXCEPT,HF,lure,-,-,-,liberal,no,z,0,0.733624076336,-1,678
2019_Oct_30,25,001,4,recog,26,POWER,HF,target,left,aqua,pleasantness,conservative,yes,m,0,1.166980237,-1,677
2019_Oct_30,25,001,4,recog,27,NERVY,LF,lure,-,-,-,liberal,no,m,1,0.983659270513,1,678
2019_Oct_30,25,001,4,recog,28,POPES,LF,lure,-,-,-,liberal,no,m,1,0.816956187649,1,679
2019_Oct_30,25,001,4,recog,29,MOLARS,LF,target,right,yellow,imageability,conservative,no,z,1,0.583652891568,1,680
2019_Oct_30,25,001,4,recog,30,LAVISHED,LF,target,right,yellow,imageability,liberal,no,z,1,0.683536164216,3,683
2019_Oct_30,25,001,4,recog,31,WILDFOWL,LF,lure,-,-,-,conservative,no,m,1,0.98364937215,3,686
2019_Oct_30,25,001,4,recog,32,EVIDENCE,HF,lure,-,-,-,liberal,no,z,0,0.583649225508,-1,685
2019_Oct_30,25,001,4,recog,33,ACCORDING,HF,target,left,aqua,pleasantness,conservative,no,z,1,1.18359995366,1,686
2019_Oct_30,25,001,4,recog,34,TILTS,LF,target,left,aqua,pleasantness,conservative,no,z,1,0.55023015525,1,687
2019_Oct_30,25,001,4,recog,35,CANNOT,HF,lure,-,-,-,conservative,no,m,1,0.716913807995,3,690
2019_Oct_30,25,001,4,recog,36,DUMMIES,LF,target,left,aqua,pleasantness,liberal,no,z,1,0.650261170118,3,693
2019_Oct_30,25,001,4,recog,37,SEVEN,HF,lure,-,-,-,liberal,no,m,1,0.83363896054,1,694
2019_Oct_30,25,001,4,recog,38,AVIDLY,LF,target,right,yellow,imageability,conservative,no,z,1,0.800037687098,1,695
2019_Oct_30,25,001,4,recog,39,LEDGES,LF,lure,-,-,-,liberal,no,m,1,0.983564319557,1,696
2019_Oct_30,25,001,4,recog,40,HACKNEY,LF,target,left,aqua,pleasantness,conservative,no,z,1,0.766706602281,1,697
2019_Oct_30,25,001,4,recog,41,LEARN,HF,lure,-,-,-,conservative,no,m,1,1.33358873552,3,700
2019_Oct_30,25,001,4,recog,42,INACTION,LF,target,left,aqua,pleasantness,liberal,no,z,1,0.80021732404,3,703
2019_Oct_30,25,001,4,recog,43,POSITION,HF,target,left,aqua,pleasantness,liberal,no,z,1,0.650113427898,3,706
2019_Oct_30,25,001,4,recog,44,PNEUMATIC,LF,target,right,yellow,imageability,liberal,no,z,1,0.633583163106,3,709
2019_Oct_30,25,001,4,recog,45,SUCCESS,HF,target,left,aqua,pleasantness,liberal,no,z,1,0.600260143622,3,712
2019_Oct_30,25,001,4,recog,46,PASSED,HF,lure,-,-,-,liberal,no,m,1,0.88359196165,1,713
2019_Oct_30,25,001,4,recog,47,MOPED,LF,lure,-,-,-,conservative,no,z,0,1.30021145834,-3,710
2019_Oct_30,25,001,4,recog,48,KERNEL,LF,target,left,aqua,pleasantness,liberal,no,z,1,1.51666370938,3,713
2019_Oct_30,25,001,4,recog,49,BOUGH,LF,lure,-,-,-,conservative,no,m,1,0.866997907413,3,716
2019_Oct_30,25,001,4,recog,50,CHURCH,HF,lure,-,-,-,conservative,no,m,1,0.866694724246,3,719
2019_Oct_30,25,001,4,recog,51,HUMAN,HF,lure,-,-,-,conservative,no,m,1,0.533651498466,3,722
2019_Oct_30,25,001,4,recog,52,BRING,HF,target,right,yellow,imageability,liberal,no,z,1,0.533639033861,3,725
2019_Oct_30,25,001,4,recog,53,AFTERNOON,HF,target,right,yellow,imageability,conservative,no,z,1,0.78357304478,1,726
2019_Oct_30,25,001,4,recog,54,OUGHT,HF,target,right,yellow,imageability,conservative,no,z,1,0.783569745326,1,727
2019_Oct_30,25,001,4,recog,55,TONAL,LF,lure,-,-,-,liberal,no,m,1,0.750312348317,1,728
2019_Oct_30,25,001,4,recog,56,PAWNS,LF,target,right,yellow,imageability,liberal,no,z,1,0.650036807243,3,731
2019_Oct_30,25,001,4,recog,57,SIZZLING,LF,lure,-,-,-,conservative,no,m,1,0.733611978338,3,734
2019_Oct_30,25,001,4,recog,58,SHALL,HF,target,left,aqua,pleasantness,liberal,no,z,1,0.766913734674,3,737
2019_Oct_30,25,001,4,recog,59,TODAY,HF,lure,-,-,-,liberal,no,m,1,0.900026542275,1,738
2019_Oct_30,25,001,4,recog,60,CHEEKBONE,LF,lure,-,-,-,liberal,no,m,1,0.716936537568,1,739
2019_Oct_30,25,001,4,recog,61,OUTSIDE,HF,target,right,yellow,imageability,liberal,no,z,1,0.833634927874,3,742
2019_Oct_30,25,001,4,recog,62,LOANED,LF,target,right,yellow,imageability,conservative,no,z,1,0.916958607249,1,743
2019_Oct_30,25,001,4,recog,63,FUTURE,HF,target,right,yellow,imageability,conservative,no,z,1,0.866952448268,1,744
2019_Oct_30,25,001,4,recog,64,TARIFF,LF,target,right,yellow,imageability,conservative,no,z,1,0.566962786558,1,745
2019_Oct_30,25,001,4,recog,65,WRONG,HF,lure,-,-,-,liberal,no,m,1,0.80033573778,1,746
2019_Oct_30,25,001,4,recog,66,ZEBRA,LF,lure,-,-,-,liberal,no,m,1,0.633551268384,1,747
2019_Oct_30,25,001,4,recog,67,FIGURE,HF,lure,-,-,-,liberal,no,z,0,0.666912414893,-1,746
2019_Oct_30,25,001,4,recog,68,MAJOR,HF,lure,-,-,-,conservative,no,m,1,0.633565199411,3,749
2019_Oct_30,25,001,4,recog,69,BELIEVE,HF,target,right,yellow,imageability,conservative,no,z,1,0.916888218896,1,750
2019_Oct_30,25,001,4,recog,70,AFRAID,HF,lure,-,-,-,liberal,no,m,1,1.08361256491,1,751
2019_Oct_30,25,001,4,recog,71,HARDLY,HF,target,right,yellow,imageability,liberal,no,z,1,0.583654724599,3,754
2019_Oct_30,25,001,4,recog,72,EVADING,LF,lure,-,-,-,liberal,no,m,1,0.716849285338,1,755
2019_Oct_30,25,001,4,recog,73,WESTERN,HF,target,left,aqua,pleasantness,conservative,no,z,1,0.733543423015,1,756
2019_Oct_30,25,001,4,recog,74,KIMONO,LF,target,left,aqua,pleasantness,liberal,no,z,1,0.733513727929,3,759
2019_Oct_30,25,001,4,recog,75,ELLIPSE,LF,lure,-,-,-,liberal,no,m,1,0.766870475165,1,760
2019_Oct_30,25,001,4,recog,76,WHOLE,HF,target,left,aqua,pleasantness,conservative,no,z,1,0.68367620771,1,761
2019_Oct_30,25,001,4,recog,77,CHOICE,HF,target,right,yellow,imageability,conservative,no,z,1,0.666921946648,1,762
2019_Oct_30,25,001,4,recog,78,HYDRAULIC,LF,lure,-,-,-,liberal,no,m,1,1.10026380968,1,763
2019_Oct_30,25,001,4,recog,79,AEGIS,LF,target,right,yellow,imageability,liberal,no,z,1,0.666956774219,3,766
2019_Oct_30,25,001,4,recog,80,PREPARED,HF,target,right,yellow,imageability,liberal,no,z,1,0.750032994541,3,769
2019_Oct_30,25,001,4,recog,81,LIVED,HF,lure,-,-,-,conservative,no,m,1,0.733528025562,3,772
2019_Oct_30,25,001,4,recog,82,VOLITION,LF,target,right,yellow,imageability,conservative,no,z,1,0.583370604944,1,773
2019_Oct_30,25,001,4,recog,83,SCYTHE,LF,target,right,yellow,imageability,conservative,no,m,0,1.15030846229,-1,772
2019_Oct_30,25,001,4,recog,84,BRUISING,LF,target,right,yellow,imageability,liberal,yes,z,1,0.783581476718,3,775
2019_Oct_30,25,001,4,recog,85,RATHER,HF,target,left,aqua,pleasantness,liberal,no,z,1,1.11695721415,3,778
2019_Oct_30,25,001,4,recog,86,MOISTENED,LF,target,left,aqua,pleasantness,conservative,no,z,1,0.750291085169,1,779
2019_Oct_30,25,001,4,recog,87,STUDENT,HF,lure,-,-,-,liberal,no,m,1,0.866972611598,1,780
2019_Oct_30,25,001,4,recog,88,BUILDING,HF,target,left,aqua,pleasantness,conservative,no,z,1,0.600258677197,1,781
2019_Oct_30,25,001,4,recog,89,HECTOR,LF,lure,-,-,-,conservative,no,m,1,0.766965059515,3,784
2019_Oct_30,25,001,4,recog,90,TOTAL,HF,target,right,yellow,imageability,liberal,no,z,1,0.850236314231,3,787
2019_Oct_30,25,001,4,recog,91,MERELY,HF,lure,-,-,-,conservative,no,m,1,1.16687098841,3,790
2019_Oct_30,25,001,4,recog,92,CHIEF,HF,target,left,aqua,pleasantness,conservative,no,z,1,0.850287272466,1,791
2019_Oct_30,25,001,4,recog,93,WITHIN,HF,target,left,aqua,pleasantness,liberal,no,m,0,1.11688902543,-3,788
2019_Oct_30,25,001,4,recog,94,BEHIND,HF,target,left,aqua,pleasantness,liberal,no,z,1,0.583652158356,3,791
2019_Oct_30,25,001,4,recog,95,FORCE,HF,lure,-,-,-,conservative,no,m,1,0.783610071986,3,794
