date,subj,session,cycle,task,trial,item,wf,type,source,colour,encoding,bias,null,response,corr,rt,points,total
2019_Oct_30,26,001,0,source,0,SPACE,HF,target,right,aqua,imageability,liberal,no,9,1,5.79974256926,-,-
2019_Oct_30,26,001,0,source,1,POSITION,HF,target,left,yellow,pleasantness,conservative,no,1,1,3.70016137996,-,-
2019_Oct_30,26,001,0,source,2,OMITTING,LF,target,left,yellow,pleasantness,conservative,no,3,1,4.98338688225,-,-
2019_Oct_30,26,001,0,source,3,ARRIVED,HF,target,right,aqua,imageability,conservative,no,9,1,2.06697011868,-,-
2019_Oct_30,26,001,0,source,4,SABLE,LF,target,right,aqua,imageability,conservative,no,9,1,3.85009920359,-,-
2019_Oct_30,26,001,0,source,5,ANEMONES,LF,target,right,aqua,imageability,conservative,no,1,0,3.66672104656,-,-
2019_Oct_30,26,001,0,source,6,VAULTED,LF,target,left,yellow,pleasantness,liberal,no,3,1,5.06675308792,-,-
2019_Oct_30,26,001,0,source,7,LIGHT,HF,target,left,yellow,pleasantness,liberal,no,1,1,2.45026183001,-,-
2019_Oct_30,26,001,0,source,8,ARPEGGIO,LF,target,left,yellow,pleasantness,liberal,no,1,1,2.78330652221,-,-
2019_Oct_30,26,001,0,source,9,MATERIAL,HF,target,right,aqua,imageability,liberal,no,9,1,3.16674487595,-,-
2019_Oct_30,26,001,0,source,10,CYNIC,LF,target,left,yellow,pleasantness,liberal,no,1,1,2.30021365798,-,-
2019_Oct_30,26,001,0,source,11,PAPER,HF,target,right,aqua,imageability,liberal,no,9,1,1.45015808051,-,-
2019_Oct_30,26,001,0,source,12,ABHORRENT,LF,target,left,yellow,pleasantness,conservative,no,3,1,2.0669532548,-,-
2019_Oct_30,26,001,0,source,13,FLOOR,HF,target,right,aqua,imageability,conservative,no,7,1,2.30015683405,-,-
2019_Oct_30,26,001,0,source,14,TANGIER,LF,target,left,yellow,pleasantness,liberal,no,1,1,1.60027480786,-,-
2019_Oct_30,26,001,0,source,15,SURER,LF,target,left,yellow,pleasantness,liberal,no,7,0,1.13355713408,-,-
2019_Oct_30,26,001,0,source,16,ASPIRED,LF,target,left,yellow,pleasantness,liberal,no,7,0,4.33344539257,-,-
2019_Oct_30,26,001,0,source,17,HISTORY,HF,target,right,aqua,imageability,liberal,yes,1,0,3.53351218818,-,-
2019_Oct_30,26,001,0,source,18,DOING,HF,target,right,aqua,imageability,liberal,yes,9,1,1.68348667241,-,-
2019_Oct_30,26,001,0,source,19,CREAK,LF,target,right,aqua,imageability,liberal,no,9,1,1.70024423292,-,-
2019_Oct_30,26,001,0,source,20,MOVED,HF,target,left,yellow,pleasantness,liberal,no,7,0,1.31697928383,-,-
2019_Oct_30,26,001,0,source,21,ENVIRONS,LF,target,left,yellow,pleasantness,conservative,no,1,1,1.55026168337,-,-
2019_Oct_30,26,001,0,source,22,HAVING,HF,target,left,yellow,pleasantness,conservative,no,7,0,1.1002953378,-,-
2019_Oct_30,26,001,0,source,23,BETTER,HF,target,right,aqua,imageability,liberal,no,7,1,0.966949002172,-,-
2019_Oct_30,26,001,0,source,24,MISFITS,LF,target,right,aqua,imageability,conservative,no,8,1,1.233616011,-,-
2019_Oct_30,26,001,0,source,25,SECOND,HF,target,right,aqua,imageability,conservative,no,8,1,1.21686944867,-,-
2019_Oct_30,26,001,0,source,26,TWENTY,HF,target,right,aqua,imageability,conservative,no,3,0,0.866952814874,-,-
2019_Oct_30,26,001,0,source,27,TOGETHER,HF,target,right,aqua,imageability,conservative,no,9,1,2.13356519941,-,-
2019_Oct_30,26,001,0,source,28,FICKLE,LF,target,right,aqua,imageability,conservative,no,9,1,1.41683616084,-,-
2019_Oct_30,26,001,0,source,29,SHALL,HF,target,left,yellow,pleasantness,liberal,no,3,1,1.25021483112,-,-
2019_Oct_30,26,001,0,source,30,FOAMING,LF,target,right,aqua,imageability,conservative,no,9,1,1.21668101318,-,-
2019_Oct_30,26,001,0,source,31,SQUADRONS,LF,target,right,aqua,imageability,conservative,no,9,1,1.21696110017,-,-
2019_Oct_30,26,001,0,source,32,SHORT,HF,target,left,yellow,pleasantness,conservative,no,1,1,1.25021739736,-,-
2019_Oct_30,26,001,0,source,33,ENGULF,LF,target,left,yellow,pleasantness,conservative,no,9,0,1.51687744068,-,-
2019_Oct_30,26,001,0,source,34,WITHIN,HF,target,left,yellow,pleasantness,conservative,no,3,1,1.13364658594,-,-
2019_Oct_30,26,001,0,source,35,JARRED,LF,target,right,aqua,imageability,liberal,yes,7,1,0.616673827703,-,-
2019_Oct_30,26,001,0,source,36,ITSELF,HF,target,left,yellow,pleasantness,liberal,yes,7,0,0.383671515153,-,-
2019_Oct_30,26,001,0,source,37,INVOLVED,HF,target,left,yellow,pleasantness,conservative,no,7,0,1.33358470285,-,-
2019_Oct_30,26,001,0,source,38,ENFORCING,LF,target,right,aqua,imageability,liberal,no,9,1,2.10018095672,-,-
2019_Oct_30,26,001,0,source,39,MOMENT,HF,target,left,yellow,pleasantness,liberal,no,9,0,0.750311615105,-,-
2019_Oct_30,26,001,0,source,40,BOASTS,LF,target,right,aqua,imageability,liberal,no,1,0,0.733577150768,-,-
2019_Oct_30,26,001,0,source,41,IMMEDIACY,LF,target,left,yellow,pleasantness,conservative,no,9,0,1.00017963694,-,-
2019_Oct_30,26,001,0,source,42,DRYER,LF,target,right,aqua,imageability,liberal,no,9,1,1.15024467285,-,-
2019_Oct_30,26,001,0,source,43,GLASS,HF,target,right,aqua,imageability,conservative,no,1,0,1.36697224499,-,-
2019_Oct_30,26,001,0,source,44,BANALITY,LF,target,right,aqua,imageability,liberal,no,9,1,1.93347714065,-,-
2019_Oct_30,26,001,0,source,45,ERODE,LF,target,left,yellow,pleasantness,conservative,no,9,0,2.16678850206,-,-
2019_Oct_30,26,001,0,source,46,SEVEN,HF,target,left,yellow,pleasantness,conservative,no,1,1,1.96688594594,-,-
2019_Oct_30,26,001,0,source,47,STRAIGHT,HF,target,left,yellow,pleasantness,liberal,no,9,0,2.51686974195,-,-
2019_Oct_30,26,001,0,recog,0,MOVED,HF,target,left,yellow,pleasantness,liberal,no,z,1,2.4666091584,3,3
2019_Oct_30,26,001,0,recog,1,GERANIUMS,LF,lure,-,-,-,liberal,no,m,1,1.98350822884,1,4
2019_Oct_30,26,001,0,recog,2,ENGULF,LF,target,left,yellow,pleasantness,conservative,no,z,1,2.63357473117,1,5
2019_Oct_30,26,001,0,recog,3,WITHIN,HF,target,left,yellow,pleasantness,conservative,no,None,-1,-1,-1,4
2019_Oct_30,26,001,0,recog,4,USUAL,HF,lure,-,-,-,liberal,no,m,1,4.55009597745,1,5
2019_Oct_30,26,001,0,recog,5,ANEMONES,LF,target,right,aqua,imageability,conservative,no,z,1,2.96674516923,1,6
2019_Oct_30,26,001,0,recog,6,DITTO,LF,lure,-,-,-,liberal,no,m,1,1.45018594257,1,7
2019_Oct_30,26,001,0,recog,7,TANGIER,LF,target,left,yellow,pleasantness,liberal,no,z,1,1.51693756406,3,10
2019_Oct_30,26,001,0,recog,8,FICKLE,LF,target,right,aqua,imageability,conservative,no,z,1,1.18351270143,1,11
2019_Oct_30,26,001,0,recog,9,ENVIRONS,LF,target,left,yellow,pleasantness,conservative,no,z,1,1.03358404296,1,12
2019_Oct_30,26,001,0,recog,10,JARRED,LF,target,right,aqua,imageability,liberal,no,z,1,0.983562853134,3,15
2019_Oct_30,26,001,0,recog,11,GLASS,HF,target,right,aqua,imageability,conservative,no,z,1,0.850073907771,1,16
2019_Oct_30,26,001,0,recog,12,PLEASE,HF,lure,-,-,-,conservative,no,m,1,0.950261096797,3,19
2019_Oct_30,26,001,0,recog,13,OMITTING,LF,target,left,yellow,pleasantness,conservative,yes,z,1,2.48361014531,1,20
2019_Oct_30,26,001,0,recog,14,FINAL,HF,lure,-,-,-,conservative,no,m,1,1.78335784706,3,23
2019_Oct_30,26,001,0,recog,15,DRAFTING,LF,lure,-,-,-,conservative,yes,z,0,0.850237780654,-3,20
2019_Oct_30,26,001,0,recog,16,DINER,LF,lure,-,-,-,liberal,no,m,1,1.65020251316,1,21
2019_Oct_30,26,001,0,recog,17,POSITION,HF,target,left,yellow,pleasantness,conservative,no,z,1,1.30027891385,1,22
2019_Oct_30,26,001,0,recog,18,MOMENT,HF,target,left,yellow,pleasantness,liberal,no,z,1,1.21691894048,3,25
2019_Oct_30,26,001,0,recog,19,BETTER,HF,target,right,aqua,imageability,liberal,no,m,0,1.21697979708,-3,22
2019_Oct_30,26,001,0,recog,20,ENFORCING,LF,target,right,aqua,imageability,liberal,no,z,1,1.33356563934,3,25
2019_Oct_30,26,001,0,recog,21,ERODE,LF,target,left,yellow,pleasantness,conservative,no,z,1,1.30021182495,1,26
2019_Oct_30,26,001,0,recog,22,TIMES,HF,lure,-,-,-,liberal,no,m,1,1.55017039847,1,27
2019_Oct_30,26,001,0,recog,23,PAPER,HF,target,right,aqua,imageability,liberal,no,z,1,0.833580303579,3,30
2019_Oct_30,26,001,0,recog,24,SIMILAR,HF,lure,-,-,-,liberal,no,m,1,1.01677589082,1,31
2019_Oct_30,26,001,0,recog,25,CYNIC,LF,target,left,yellow,pleasantness,liberal,no,z,1,0.766937930671,3,34
2019_Oct_30,26,001,0,recog,26,ALCHEMIST,LF,lure,-,-,-,conservative,no,m,1,1.18380048715,3,37
2019_Oct_30,26,001,0,recog,27,SHORT,HF,target,left,yellow,pleasantness,conservative,no,z,1,1.01673886361,1,38
2019_Oct_30,26,001,0,recog,28,BOTANIST,LF,lure,-,-,-,conservative,no,m,1,0.866869961917,3,41
2019_Oct_30,26,001,0,recog,29,POWER,HF,lure,-,-,-,conservative,no,m,1,1.06688909875,3,44
2019_Oct_30,26,001,0,recog,30,STRAIGHT,HF,target,left,yellow,pleasantness,liberal,no,z,1,1.03365516453,3,47
2019_Oct_30,26,001,0,recog,31,DRYER,LF,target,right,aqua,imageability,liberal,no,z,1,0.73353829053,3,50
2019_Oct_30,26,001,0,recog,32,ABHORRENT,LF,target,left,yellow,pleasantness,conservative,no,m,0,1.50002236297,-1,49
2019_Oct_30,26,001,0,recog,33,JUNCTURE,LF,lure,-,-,-,conservative,no,m,1,1.50023022857,3,52
2019_Oct_30,26,001,0,recog,34,FLOOR,HF,target,right,aqua,imageability,conservative,no,z,1,0.96689217824,1,53
2019_Oct_30,26,001,0,recog,35,ARRIVED,HF,target,right,aqua,imageability,conservative,no,z,1,1.3503078024,1,54
2019_Oct_30,26,001,0,recog,36,FOAMING,LF,target,right,aqua,imageability,conservative,no,z,1,2.11688535937,1,55
2019_Oct_30,26,001,0,recog,37,GIRLS,HF,lure,-,-,-,liberal,no,m,1,0.883625322796,1,56
2019_Oct_30,26,001,0,recog,38,FIGURE,HF,lure,-,-,-,liberal,no,m,1,1.11701073862,1,57
2019_Oct_30,26,001,0,recog,39,STUDENT,HF,lure,-,-,-,conservative,no,m,1,0.866919453728,3,60
2019_Oct_30,26,001,0,recog,40,HYSTERICS,LF,lure,-,-,-,conservative,no,m,1,1.93361498451,3,63
2019_Oct_30,26,001,0,recog,41,HISTORY,HF,target,right,aqua,imageability,liberal,no,z,1,1.31683520767,3,66
2019_Oct_30,26,001,0,recog,42,BEHIND,HF,lure,-,-,-,liberal,no,m,1,0.983576417556,1,67
2019_Oct_30,26,001,0,recog,43,SECOND,HF,target,right,aqua,imageability,conservative,no,z,1,1.30031777409,1,68
2019_Oct_30,26,001,0,recog,44,SEVEN,HF,target,left,yellow,pleasantness,conservative,no,z,1,0.916903982954,1,69
2019_Oct_30,26,001,0,recog,45,CAUGHT,HF,lure,-,-,-,liberal,no,m,1,0.916937344101,1,70
2019_Oct_30,26,001,0,recog,46,DOWDY,LF,lure,-,-,-,liberal,no,m,1,0.883664549639,1,71
2019_Oct_30,26,001,0,recog,47,MISFITS,LF,target,right,aqua,imageability,conservative,no,z,1,0.90020324637,1,72
2019_Oct_30,26,001,0,recog,48,ARPEGGIO,LF,target,left,yellow,pleasantness,liberal,no,z,1,1.08356563934,3,75
2019_Oct_30,26,001,0,recog,49,MATERIAL,HF,target,right,aqua,imageability,liberal,no,z,1,0.816954721226,3,78
2019_Oct_30,26,001,0,recog,50,SHALL,HF,target,left,yellow,pleasantness,liberal,no,z,1,1.61691358803,3,81
2019_Oct_30,26,001,0,recog,51,TWINE,LF,lure,-,-,-,liberal,no,m,1,0.950248998799,1,82
2019_Oct_30,26,001,0,recog,52,TOGETHER,HF,target,right,aqua,imageability,conservative,no,z,1,0.950253031465,1,83
2019_Oct_30,26,001,0,recog,53,TIDILY,LF,lure,-,-,-,conservative,no,m,1,4.61670718885,3,86
2019_Oct_30,26,001,0,recog,54,REQUIRED,HF,lure,-,-,-,liberal,no,m,1,0.98365487124,1,87
2019_Oct_30,26,001,0,recog,55,NEMESIS,LF,lure,-,-,-,conservative,no,m,1,1.86685016519,3,90
2019_Oct_30,26,001,0,recog,56,LIGHT,HF,target,left,yellow,pleasantness,liberal,no,z,1,0.983598780522,3,93
2019_Oct_30,26,001,0,recog,57,BANALITY,LF,target,right,aqua,imageability,liberal,yes,z,1,1.33356710576,3,96
2019_Oct_30,26,001,0,recog,58,WHATEVER,HF,lure,-,-,-,conservative,no,m,1,1.10026894217,3,99
2019_Oct_30,26,001,0,recog,59,TUSKS,LF,lure,-,-,-,liberal,no,m,1,2.30014656908,1,100
2019_Oct_30,26,001,0,recog,60,SABLE,LF,target,right,aqua,imageability,conservative,no,z,1,0.900235141092,1,101
2019_Oct_30,26,001,0,recog,61,PROBABLY,HF,lure,-,-,-,liberal,no,m,1,1.2503112485,1,102
2019_Oct_30,26,001,0,recog,62,SOUND,HF,lure,-,-,-,conservative,no,m,1,1.75019980027,3,105
2019_Oct_30,26,001,0,recog,63,DOING,HF,target,right,aqua,imageability,liberal,no,m,0,1.96690024357,-3,102
2019_Oct_30,26,001,0,recog,64,GIVEN,HF,lure,-,-,-,conservative,no,m,1,2.14992535902,3,105
2019_Oct_30,26,001,0,recog,65,ASPIRED,LF,target,left,yellow,pleasantness,liberal,no,z,1,3.3334409933,3,108
2019_Oct_30,26,001,0,recog,66,THOUSAND,HF,lure,-,-,-,liberal,no,m,1,0.816698463627,1,109
2019_Oct_30,26,001,0,recog,67,NUANCE,LF,lure,-,-,-,liberal,no,m,1,1.83351761395,1,110
2019_Oct_30,26,001,0,recog,68,PHOBIC,LF,lure,-,-,-,liberal,no,m,1,0.950324519637,1,111
2019_Oct_30,26,001,0,recog,69,ITSELF,HF,target,left,yellow,pleasantness,liberal,no,m,0,0.900243206424,-3,108
2019_Oct_30,26,001,0,recog,70,DIZZINESS,LF,lure,-,-,-,conservative,no,z,0,4.31678754889,-3,105
2019_Oct_30,26,001,0,recog,71,SQUADRONS,LF,target,right,aqua,imageability,conservative,no,z,1,2.00017010519,1,106
2019_Oct_30,26,001,0,recog,72,PRACTICE,HF,lure,-,-,-,conservative,no,m,1,1.45032745248,3,109
2019_Oct_30,26,001,0,recog,73,ACCORDING,HF,lure,-,-,-,conservative,no,m,1,1.95027869389,3,112
2019_Oct_30,26,001,0,recog,74,HAVING,HF,target,left,yellow,pleasantness,conservative,no,m,0,1.5499522679,-1,111
2019_Oct_30,26,001,0,recog,75,CREAK,LF,target,right,aqua,imageability,liberal,no,z,1,1.31698698255,3,114
2019_Oct_30,26,001,0,recog,76,NOSTRIL,LF,lure,-,-,-,liberal,no,m,1,0.883544302869,1,115
2019_Oct_30,26,001,0,recog,77,TIGHTNESS,LF,lure,-,-,-,conservative,yes,m,1,1.86691908712,3,118
2019_Oct_30,26,001,0,recog,78,SLOWLY,HF,lure,-,-,-,conservative,no,z,0,1.9335654927,-3,115
2019_Oct_30,26,001,0,recog,79,SPEAK,HF,lure,-,-,-,liberal,no,m,1,1.65029159842,1,116
2019_Oct_30,26,001,0,recog,80,APRICOT,LF,lure,-,-,-,conservative,no,m,1,0.966887412363,3,119
2019_Oct_30,26,001,0,recog,81,VILLAGE,HF,lure,-,-,-,liberal,no,m,1,1.05022172331,1,120
2019_Oct_30,26,001,0,recog,82,BOASTS,LF,target,right,aqua,imageability,liberal,no,m,0,1.96691270818,-3,117
2019_Oct_30,26,001,0,recog,83,SURER,LF,target,left,yellow,pleasantness,liberal,no,z,1,2.05023492113,3,120
2019_Oct_30,26,001,0,recog,84,IRRIGATED,LF,lure,-,-,-,conservative,no,m,1,1.86683036847,3,123
2019_Oct_30,26,001,0,recog,85,BACHELORS,LF,lure,-,-,-,liberal,no,m,1,1.08361953042,1,124
2019_Oct_30,26,001,0,recog,86,VAULTED,LF,target,left,yellow,pleasantness,liberal,no,z,1,1.01689173831,3,127
2019_Oct_30,26,001,0,recog,87,IMMEDIACY,LF,target,left,yellow,pleasantness,conservative,no,z,1,1.51691813395,1,128
2019_Oct_30,26,001,0,recog,88,KITCHEN,HF,lure,-,-,-,conservative,no,m,1,0.966892911453,3,131
2019_Oct_30,26,001,0,recog,89,SPACE,HF,target,right,aqua,imageability,liberal,no,z,1,0.966931405083,3,134
2019_Oct_30,26,001,0,recog,90,POUNDS,HF,lure,-,-,-,conservative,no,m,1,1.23350236314,3,137
2019_Oct_30,26,001,0,recog,91,SAWDUST,LF,lure,-,-,-,liberal,no,m,1,1.05002045662,1,138
2019_Oct_30,26,001,0,recog,92,AQUARIUM,LF,lure,-,-,-,conservative,no,m,1,0.933609485417,3,141
2019_Oct_30,26,001,0,recog,93,RIGGING,LF,lure,-,-,-,liberal,no,m,1,0.933570991787,1,142
2019_Oct_30,26,001,0,recog,94,TWENTY,HF,target,right,aqua,imageability,conservative,no,m,0,4.0335070557,-1,141
2019_Oct_30,26,001,0,recog,95,INVOLVED,HF,target,left,yellow,pleasantness,conservative,no,z,1,2.20025156504,1,142
2019_Oct_30,26,001,1,source,0,GAZELLE,LF,target,left,yellow,pleasantness,conservative,yes,9,0,2.75024305978,-,-
2019_Oct_30,26,001,1,source,1,ENLIGHTEN,LF,target,left,yellow,pleasantness,conservative,yes,9,0,0.500099716834,-,-
2019_Oct_30,26,001,1,source,2,LATER,HF,target,right,aqua,imageability,liberal,no,1,0,2.6168142378,-,-
2019_Oct_30,26,001,1,source,3,WRITE,HF,target,right,aqua,imageability,liberal,no,1,0,1.13331737375,-,-
2019_Oct_30,26,001,1,source,4,MEMBERS,HF,target,left,yellow,pleasantness,liberal,no,9,0,1.63358536274,-,-
2019_Oct_30,26,001,1,source,5,MAPPED,LF,target,right,aqua,imageability,conservative,no,9,1,0.783671661796,-,-
2019_Oct_30,26,001,1,source,6,EITHER,HF,target,right,aqua,imageability,conservative,no,9,1,2.11692348639,-,-
2019_Oct_30,26,001,1,source,7,ASCEND,LF,target,left,yellow,pleasantness,conservative,no,1,1,1.08360193333,-,-
2019_Oct_30,26,001,1,source,8,BIGNESS,LF,target,right,aqua,imageability,conservative,no,9,1,2.5831906014,-,-
2019_Oct_30,26,001,1,source,9,SNAGS,LF,target,right,aqua,imageability,liberal,no,9,1,1.60028543944,-,-
2019_Oct_30,26,001,1,source,10,MAJOR,HF,target,left,yellow,pleasantness,conservative,no,9,0,0.966915274419,-,-
2019_Oct_30,26,001,1,source,11,DUELLING,LF,target,right,aqua,imageability,conservative,no,3,0,2.51681291802,-,-
2019_Oct_30,26,001,1,source,12,WRONG,HF,target,left,yellow,pleasantness,conservative,yes,9,0,0.683568425544,-,-
2019_Oct_30,26,001,1,source,13,THANK,HF,target,right,aqua,imageability,liberal,no,9,1,1.08354254316,-,-
2019_Oct_30,26,001,1,source,14,BICEPS,LF,target,right,aqua,imageability,liberal,no,7,1,2.4002292754,-,-
2019_Oct_30,26,001,1,source,15,UNMADE,LF,target,left,yellow,pleasantness,conservative,no,1,1,1.433547529,-,-
2019_Oct_30,26,001,1,source,16,ECONOMIC,HF,target,right,aqua,imageability,liberal,no,9,1,1.00006195641,-,-
2019_Oct_30,26,001,1,source,17,DOUBT,HF,target,left,yellow,pleasantness,liberal,no,9,0,1.0833922347,-,-
2019_Oct_30,26,001,1,source,18,SNEAKED,LF,target,left,yellow,pleasantness,liberal,no,1,1,2.18345771053,-,-
2019_Oct_30,26,001,1,source,19,MONEY,HF,target,right,aqua,imageability,conservative,no,1,0,0.799998093648,-,-
2019_Oct_30,26,001,1,source,20,BELIEVE,HF,target,right,aqua,imageability,conservative,no,9,1,0.916994901243,-,-
2019_Oct_30,26,001,1,source,21,WAITING,HF,target,left,yellow,pleasantness,liberal,no,8,0,1.15021387794,-,-
2019_Oct_30,26,001,1,source,22,UNEARTHED,LF,target,left,yellow,pleasantness,conservative,no,3,1,1.6835720916,-,-
2019_Oct_30,26,001,1,source,23,SUFFERER,LF,target,left,yellow,pleasantness,liberal,yes,3,1,0.700297390792,-,-
2019_Oct_30,26,001,1,source,24,TORMENTS,LF,target,left,yellow,pleasantness,conservative,no,3,1,0.900071634814,-,-
2019_Oct_30,26,001,1,source,25,LIFEBOAT,LF,target,right,aqua,imageability,liberal,no,7,1,1.90017098504,-,-
2019_Oct_30,26,001,1,source,26,FANATICS,LF,target,right,aqua,imageability,conservative,no,8,1,0.90023074182,-,-
2019_Oct_30,26,001,1,source,27,ALMOST,HF,target,left,yellow,pleasantness,conservative,no,2,1,0.683576857482,-,-
2019_Oct_30,26,001,1,source,28,SLIGHTLY,HF,target,left,yellow,pleasantness,liberal,no,8,0,0.600264176287,-,-
2019_Oct_30,26,001,1,source,29,EDICT,LF,target,right,aqua,imageability,conservative,no,8,1,0.650284266298,-,-
2019_Oct_30,26,001,1,source,30,ENMESHED,LF,target,left,yellow,pleasantness,liberal,no,8,0,0.966945702718,-,-
2019_Oct_30,26,001,1,source,31,AGELESS,LF,target,right,aqua,imageability,conservative,no,8,1,0.733629942032,-,-
2019_Oct_30,26,001,1,source,32,CASES,HF,target,left,yellow,pleasantness,conservative,no,8,0,0.800236020946,-,-
2019_Oct_30,26,001,1,source,33,STAFF,HF,target,right,aqua,imageability,conservative,no,8,1,0.700242033285,-,-
2019_Oct_30,26,001,1,source,34,HARDLY,HF,target,left,yellow,pleasantness,conservative,no,2,1,0.516973858059,-,-
2019_Oct_30,26,001,1,source,35,NORTH,HF,target,right,aqua,imageability,liberal,no,8,1,0.416924512891,-,-
2019_Oct_30,26,001,1,source,36,AIRBED,LF,target,right,aqua,imageability,liberal,no,8,1,0.550225389372,-,-
2019_Oct_30,26,001,1,source,37,TIERS,LF,target,left,yellow,pleasantness,liberal,no,8,0,0.600240346897,-,-
2019_Oct_30,26,001,1,source,38,WEEKS,HF,target,right,aqua,imageability,liberal,no,8,1,0.583562339884,-,-
2019_Oct_30,26,001,1,source,39,EVIDENCE,HF,target,left,yellow,pleasantness,liberal,no,8,0,2.03360420629,-,-
2019_Oct_30,26,001,1,source,40,INDEED,HF,target,right,aqua,imageability,conservative,no,8,1,0.833393334517,-,-
2019_Oct_30,26,001,1,source,41,BEECHES,LF,target,right,aqua,imageability,liberal,no,8,1,0.86685309804,-,-
2019_Oct_30,26,001,1,source,42,LEPROSY,LF,target,left,yellow,pleasantness,liberal,no,8,0,0.916876120898,-,-
2019_Oct_30,26,001,1,source,43,CAVERN,LF,target,left,yellow,pleasantness,liberal,no,2,1,1.01670660228,-,-
2019_Oct_30,26,001,1,source,44,OPENED,HF,target,left,yellow,pleasantness,liberal,no,8,0,0.68342471599,-,-
2019_Oct_30,26,001,1,source,45,DEGREE,HF,target,left,yellow,pleasantness,conservative,no,1,1,1.43331656722,-,-
2019_Oct_30,26,001,1,source,46,NATIONAL,HF,target,right,aqua,imageability,conservative,no,8,1,0.466998127376,-,-
2019_Oct_30,26,001,1,source,47,PUCKERED,LF,target,right,aqua,imageability,liberal,no,8,1,1.81680587919,-,-
2019_Oct_30,26,001,1,recog,0,LIFEBOAT,LF,target,right,aqua,imageability,liberal,no,z,1,1.85014576255,3,145
2019_Oct_30,26,001,1,recog,1,AIRBED,LF,target,right,aqua,imageability,liberal,no,z,1,0.950398574049,3,148
2019_Oct_30,26,001,1,recog,2,FANATICS,LF,target,right,aqua,imageability,conservative,no,z,1,1.51685141165,1,149
2019_Oct_30,26,001,1,recog,3,PUTTS,LF,lure,-,-,-,conservative,no,m,1,1.66684825884,3,152
2019_Oct_30,26,001,1,recog,4,WRITE,HF,target,right,aqua,imageability,liberal,no,z,1,1.80013373787,3,155
2019_Oct_30,26,001,1,recog,5,APART,HF,lure,-,-,-,liberal,no,m,1,1.11673248466,1,156
2019_Oct_30,26,001,1,recog,6,TORMENTS,LF,target,left,yellow,pleasantness,conservative,no,z,1,1.00026688917,1,157
2019_Oct_30,26,001,1,recog,7,EMACIATED,LF,lure,-,-,-,liberal,no,m,1,0.96692260654,1,158
2019_Oct_30,26,001,1,recog,8,ECONOMIC,HF,target,right,aqua,imageability,liberal,yes,z,1,1.05021915707,3,161
2019_Oct_30,26,001,1,recog,9,SUFFERER,LF,target,left,yellow,pleasantness,liberal,no,z,1,1.06701374479,3,164
2019_Oct_30,26,001,1,recog,10,ENLIGHTEN,LF,target,left,yellow,pleasantness,conservative,no,z,1,1.05027781403,1,165
2019_Oct_30,26,001,1,recog,11,CAVERN,LF,target,left,yellow,pleasantness,liberal,no,z,1,0.700306189337,3,168
2019_Oct_30,26,001,1,recog,12,NEOLITHIC,LF,lure,-,-,-,liberal,no,m,1,0.783525019394,1,169
2019_Oct_30,26,001,1,recog,13,TRADE,HF,lure,-,-,-,conservative,no,m,1,0.783553614661,3,172
2019_Oct_30,26,001,1,recog,14,EVIDENCE,HF,target,left,yellow,pleasantness,liberal,no,z,1,0.766937564064,3,175
2019_Oct_30,26,001,1,recog,15,ASCEND,LF,target,left,yellow,pleasantness,conservative,no,z,1,0.683620116991,1,176
2019_Oct_30,26,001,1,recog,16,FIXTURE,LF,lure,-,-,-,liberal,no,m,1,0.766898703828,1,177
2019_Oct_30,26,001,1,recog,17,LANGUAGE,HF,lure,-,-,-,liberal,no,m,1,1.00022619591,1,178
2019_Oct_30,26,001,1,recog,18,INDEED,HF,target,right,aqua,imageability,conservative,no,z,1,1.75019136833,1,179
2019_Oct_30,26,001,1,recog,19,BECAME,HF,lure,-,-,-,liberal,no,z,0,1.03355874715,-1,178
2019_Oct_30,26,001,1,recog,20,MAJOR,HF,target,left,yellow,pleasantness,conservative,no,z,1,1.26691153504,1,179
2019_Oct_30,26,001,1,recog,21,LABOUR,HF,lure,-,-,-,liberal,no,m,1,1.10027920713,1,180
2019_Oct_30,26,001,1,recog,22,AGELESS,LF,target,right,aqua,imageability,conservative,no,z,1,1.03362546944,1,181
2019_Oct_30,26,001,1,recog,23,UNMADE,LF,target,left,yellow,pleasantness,conservative,no,z,1,0.816735490834,1,182
2019_Oct_30,26,001,1,recog,24,WRONG,HF,target,left,yellow,pleasantness,conservative,no,z,1,1.43355559433,1,183
2019_Oct_30,26,001,1,recog,25,MIXER,LF,lure,-,-,-,liberal,no,z,0,1.00026358972,-1,182
2019_Oct_30,26,001,1,recog,26,OBVIOUSLY,HF,lure,-,-,-,conservative,yes,m,1,0.900178317161,3,185
2019_Oct_30,26,001,1,recog,27,PUCKERED,LF,target,right,aqua,imageability,liberal,no,z,1,1.46698346314,3,188
2019_Oct_30,26,001,1,recog,28,ALMOST,HF,target,left,yellow,pleasantness,conservative,no,z,1,1.08354400958,1,189
2019_Oct_30,26,001,1,recog,29,STAFF,HF,target,right,aqua,imageability,conservative,no,z,1,0.950021703075,1,190
2019_Oct_30,26,001,1,recog,30,PASSED,HF,lure,-,-,-,liberal,no,z,0,0.833663889748,-1,189
2019_Oct_30,26,001,1,recog,31,MAPPED,LF,target,right,aqua,imageability,conservative,no,z,1,1.25024049354,1,190
2019_Oct_30,26,001,1,recog,32,SNEAKED,LF,target,left,yellow,pleasantness,liberal,no,z,1,0.783573411386,3,193
2019_Oct_30,26,001,1,recog,33,DOUBT,HF,target,left,yellow,pleasantness,liberal,no,z,1,0.916939543737,3,196
2019_Oct_30,26,001,1,recog,34,BELIEVE,HF,target,right,aqua,imageability,conservative,no,z,1,1.76684481274,1,197
2019_Oct_30,26,001,1,recog,35,FOLLOWED,HF,lure,-,-,-,conservative,no,z,0,1.08365325817,-3,194
2019_Oct_30,26,001,1,recog,36,JUDICIOUS,LF,lure,-,-,-,conservative,no,m,1,1.23331392766,3,197
2019_Oct_30,26,001,1,recog,37,MODERN,HF,lure,-,-,-,liberal,no,m,1,1.53351218818,1,198
2019_Oct_30,26,001,1,recog,38,NATIONAL,HF,target,right,aqua,imageability,conservative,yes,m,0,1.05020449283,-1,197
2019_Oct_30,26,001,1,recog,39,OPENED,HF,target,left,yellow,pleasantness,liberal,no,z,1,1.56688873214,3,200
2019_Oct_30,26,001,1,recog,40,GAZELLE,LF,target,left,yellow,pleasantness,conservative,no,z,1,1.23360171337,1,201
2019_Oct_30,26,001,1,recog,41,PELTED,LF,lure,-,-,-,conservative,no,m,1,0.950191441656,3,204
2019_Oct_30,26,001,1,recog,42,MEANS,HF,lure,-,-,-,conservative,no,m,1,0.983566152588,3,207
2019_Oct_30,26,001,1,recog,43,HARDLY,HF,target,left,yellow,pleasantness,conservative,no,z,1,0.883600393588,1,208
2019_Oct_30,26,001,1,recog,44,BEECHES,LF,target,right,aqua,imageability,liberal,no,z,1,1.31684143997,3,211
2019_Oct_30,26,001,1,recog,45,FRONT,HF,lure,-,-,-,liberal,no,m,1,1.05018799556,1,212
2019_Oct_30,26,001,1,recog,46,SOFTENING,LF,lure,-,-,-,conservative,no,m,1,1.35013916364,3,215
2019_Oct_30,26,001,1,recog,47,MONEY,HF,target,right,aqua,imageability,conservative,no,z,1,0.916887485684,1,216
2019_Oct_30,26,001,1,recog,48,EASILY,HF,lure,-,-,-,conservative,no,m,1,0.866941816694,3,219
2019_Oct_30,26,001,1,recog,49,NORTH,HF,target,right,aqua,imageability,liberal,no,z,1,0.833594967819,3,222
2019_Oct_30,26,001,1,recog,50,JELLIES,LF,lure,-,-,-,conservative,no,m,1,0.833364739248,3,225
2019_Oct_30,26,001,1,recog,51,COBALT,LF,lure,-,-,-,conservative,no,m,1,0.866955381117,3,228
2019_Oct_30,26,001,1,recog,52,BAPTIZED,LF,lure,-,-,-,liberal,no,m,1,1.41692267986,1,229
2019_Oct_30,26,001,1,recog,53,WADDLED,LF,lure,-,-,-,conservative,no,m,1,0.833512481468,3,232
2019_Oct_30,26,001,1,recog,54,BUBBLED,LF,lure,-,-,-,conservative,no,m,1,0.850277007498,3,235
2019_Oct_30,26,001,1,recog,55,EDICT,LF,target,right,aqua,imageability,conservative,no,z,1,0.817000546976,1,236
2019_Oct_30,26,001,1,recog,56,DEGREE,HF,target,left,yellow,pleasantness,conservative,no,z,1,0.850257577379,1,237
2019_Oct_30,26,001,1,recog,57,DURING,HF,lure,-,-,-,conservative,no,m,1,0.916859990233,3,240
2019_Oct_30,26,001,1,recog,58,SAYING,HF,lure,-,-,-,liberal,no,m,1,1.10022055017,1,241
2019_Oct_30,26,001,1,recog,59,CASES,HF,target,left,yellow,pleasantness,conservative,no,z,1,2.316831175,1,242
2019_Oct_30,26,001,1,recog,60,TERMS,HF,lure,-,-,-,conservative,no,m,1,0.850282506588,3,245
2019_Oct_30,26,001,1,recog,61,MEMBERS,HF,target,left,yellow,pleasantness,liberal,no,z,1,2.13331847357,3,248
2019_Oct_30,26,001,1,recog,62,TIPSY,LF,lure,-,-,-,liberal,no,m,1,0.766863143045,1,249
2019_Oct_30,26,001,1,recog,63,AFRAID,HF,lure,-,-,-,conservative,no,m,1,1.13361982371,3,252
2019_Oct_30,26,001,1,recog,64,THANK,HF,target,right,aqua,imageability,liberal,no,z,1,0.866895624338,3,255
2019_Oct_30,26,001,1,recog,65,ATONEMENT,LF,lure,-,-,-,liberal,no,m,1,1.23360061355,1,256
2019_Oct_30,26,001,1,recog,66,SAMENESS,LF,lure,-,-,-,liberal,no,z,0,1.56686673578,-1,255
2019_Oct_30,26,001,1,recog,67,DUELLING,LF,target,right,aqua,imageability,conservative,no,z,1,0.916899583682,1,256
2019_Oct_30,26,001,1,recog,68,SLACKEN,LF,lure,-,-,-,liberal,no,m,1,1.28355728072,1,257
2019_Oct_30,26,001,1,recog,69,ACACIA,LF,lure,-,-,-,conservative,no,m,1,0.783379110203,3,260
2019_Oct_30,26,001,1,recog,70,ENMESHED,LF,target,left,yellow,pleasantness,liberal,no,z,1,1.35020955199,3,263
2019_Oct_30,26,001,1,recog,71,UNEARTHED,LF,target,left,yellow,pleasantness,conservative,no,z,1,0.833539243706,1,264
2019_Oct_30,26,001,1,recog,72,TOWARDS,HF,lure,-,-,-,liberal,no,m,1,3.28339304123,1,265
2019_Oct_30,26,001,1,recog,73,VEHEMENCE,LF,lure,-,-,-,conservative,no,m,1,1.66703962718,3,268
2019_Oct_30,26,001,1,recog,74,WEEKS,HF,target,right,aqua,imageability,liberal,no,z,1,0.816905962627,3,271
2019_Oct_30,26,001,1,recog,75,LEPROSY,LF,target,left,yellow,pleasantness,liberal,no,z,1,1.36687289477,3,274
2019_Oct_30,26,001,1,recog,76,WAITING,HF,target,left,yellow,pleasantness,liberal,no,z,1,0.767007952418,3,277
2019_Oct_30,26,001,1,recog,77,BICEPS,LF,target,right,aqua,imageability,liberal,yes,z,1,1.46692223993,3,280
2019_Oct_30,26,001,1,recog,78,MINISTER,HF,lure,-,-,-,conservative,no,m,1,0.900192981401,3,283
2019_Oct_30,26,001,1,recog,79,SNAGS,LF,target,right,aqua,imageability,liberal,no,z,1,1.26684921202,3,286
2019_Oct_30,26,001,1,recog,80,WESTERN,HF,lure,-,-,-,liberal,no,m,1,0.933601786691,1,287
2019_Oct_30,26,001,1,recog,81,SLIGHTLY,HF,target,left,yellow,pleasantness,liberal,no,z,1,0.766976790907,3,290
2019_Oct_30,26,001,1,recog,82,GETTING,HF,lure,-,-,-,conservative,no,m,1,1.0669895488,3,293
2019_Oct_30,26,001,1,recog,83,EITHER,HF,target,right,aqua,imageability,conservative,no,z,1,1.4169131481,1,294
2019_Oct_30,26,001,1,recog,84,LATER,HF,target,right,aqua,imageability,liberal,no,z,1,1.26693793067,3,297
2019_Oct_30,26,001,1,recog,85,INCLUDING,HF,lure,-,-,-,liberal,no,m,1,1.20027136176,1,298
2019_Oct_30,26,001,1,recog,86,CELLO,LF,lure,-,-,-,liberal,no,m,1,0.950188508808,1,299
2019_Oct_30,26,001,1,recog,87,HOSPITAL,HF,lure,-,-,-,conservative,no,m,1,0.866897457367,3,302
2019_Oct_30,26,001,1,recog,88,QUOTAS,LF,lure,-,-,-,conservative,no,m,1,0.850230815141,3,305
2019_Oct_30,26,001,1,recog,89,BIGNESS,LF,target,right,aqua,imageability,conservative,no,z,1,0.950183376324,1,306
2019_Oct_30,26,001,1,recog,90,HUMAN,HF,lure,-,-,-,liberal,no,m,1,1.01695442794,1,307
2019_Oct_30,26,001,1,recog,91,ANTELOPES,LF,lure,-,-,-,conservative,no,m,1,1.23355112174,3,310
2019_Oct_30,26,001,1,recog,92,BAOBAB,LF,lure,-,-,-,liberal,no,m,1,0.866823036348,1,311
2019_Oct_30,26,001,1,recog,93,INFECT,LF,lure,-,-,-,liberal,no,m,1,0.883567399047,1,312
2019_Oct_30,26,001,1,recog,94,TIERS,LF,target,left,yellow,pleasantness,liberal,no,z,1,0.783605306109,3,315
2019_Oct_30,26,001,1,recog,95,MERELY,HF,lure,-,-,-,conservative,no,m,1,1.11697774408,3,318
2019_Oct_30,26,001,2,source,0,HYENA,LF,target,right,aqua,imageability,conservative,no,1,0,2.51655886006,-,-
2019_Oct_30,26,001,2,source,1,ALTHOUGH,HF,target,right,aqua,imageability,conservative,no,9,1,0.950321953394,-,-
2019_Oct_30,26,001,2,source,2,HOEING,LF,target,right,aqua,imageability,liberal,no,9,1,0.950325252848,-,-
2019_Oct_30,26,001,2,source,3,COILING,LF,target,left,yellow,pleasantness,liberal,yes,9,0,0.750312348317,-,-
2019_Oct_30,26,001,2,source,4,UNABATED,LF,target,left,yellow,pleasantness,liberal,no,9,0,0.250313081528,-,-
2019_Oct_30,26,001,2,source,5,HOWEVER,HF,target,right,aqua,imageability,liberal,yes,1,0,0.166975837731,-,-
2019_Oct_30,26,001,2,source,6,RABBIS,LF,target,left,yellow,pleasantness,conservative,yes,9,0,0.83364812569,-,-
2019_Oct_30,26,001,2,source,7,FUTURE,HF,target,right,aqua,imageability,conservative,no,9,1,2.14996898513,-,-
2019_Oct_30,26,001,2,source,8,WATCH,HF,target,right,aqua,imageability,liberal,no,9,1,1.00023096178,-,-
2019_Oct_30,26,001,2,source,9,DIFFERENT,HF,target,left,yellow,pleasantness,conservative,no,8,0,0.933560726819,-,-
2019_Oct_30,26,001,2,source,10,AMICABLY,LF,target,right,aqua,imageability,liberal,no,9,1,0.733537190713,-,-
2019_Oct_30,26,001,2,source,11,ENERGY,HF,target,left,yellow,pleasantness,liberal,no,1,1,0.750072221384,-,-
2019_Oct_30,26,001,2,source,12,TOPICAL,LF,target,left,yellow,pleasantness,conservative,no,8,0,0.7168041928,-,-
2019_Oct_30,26,001,2,source,13,PICTURE,HF,target,left,yellow,pleasantness,liberal,no,2,1,0.75028815232,-,-
2019_Oct_30,26,001,2,source,14,MOTHER,HF,target,right,aqua,imageability,liberal,no,8,1,0.883554567838,-,-
2019_Oct_30,26,001,2,source,15,TRYING,HF,target,left,yellow,pleasantness,liberal,no,8,0,0.383740070476,-,-
2019_Oct_30,26,001,2,source,16,HEMMED,LF,target,left,yellow,pleasantness,liberal,no,3,1,0.516916300916,-,-
2019_Oct_30,26,001,2,source,17,LIKELY,HF,target,right,aqua,imageability,liberal,no,7,1,1.63329097812,-,-
2019_Oct_30,26,001,2,source,18,FREEDOM,HF,target,left,yellow,pleasantness,liberal,no,8,0,0.833603766363,-,-
2019_Oct_30,26,001,2,source,19,JANGLING,LF,target,right,aqua,imageability,liberal,no,2,0,0.650443006697,-,-
2019_Oct_30,26,001,2,source,20,CRICKETER,LF,target,right,aqua,imageability,conservative,no,9,1,0.583693218229,-,-
2019_Oct_30,26,001,2,source,21,SEMANTIC,LF,target,left,yellow,pleasantness,liberal,no,2,1,0.483581183434,-,-
2019_Oct_30,26,001,2,source,22,TINGLING,LF,target,left,yellow,pleasantness,conservative,no,9,0,0.533534551149,-,-
2019_Oct_30,26,001,2,source,23,GENERAL,HF,target,left,yellow,pleasantness,liberal,no,3,1,0.66693184501,-,-
2019_Oct_30,26,001,2,source,24,BATCHES,LF,target,left,yellow,pleasantness,liberal,no,2,1,0.583618430604,-,-
2019_Oct_30,26,001,2,source,25,FLYWHEEL,LF,target,right,aqua,imageability,liberal,no,8,1,0.416976570943,-,-
2019_Oct_30,26,001,2,source,26,AMONG,HF,target,left,yellow,pleasantness,conservative,no,7,0,0.45005433101,-,-
2019_Oct_30,26,001,2,source,27,IDEAS,HF,target,left,yellow,pleasantness,liberal,no,8,0,0.150224142912,-,-
2019_Oct_30,26,001,2,source,28,YELLOWED,LF,target,right,aqua,imageability,liberal,no,8,1,0.433588955481,-,-
2019_Oct_30,26,001,2,source,29,APPEARED,HF,target,right,aqua,imageability,conservative,no,9,1,0.883615424435,-,-
2019_Oct_30,26,001,2,source,30,HOURS,HF,target,left,yellow,pleasantness,conservative,no,9,0,1.38357876383,-,-
2019_Oct_30,26,001,2,source,31,JEALOUSLY,LF,target,left,yellow,pleasantness,conservative,no,1,1,1.31683850712,-,-
2019_Oct_30,26,001,2,source,32,ADOPTIVE,LF,target,right,aqua,imageability,conservative,no,1,0,1.10021835054,-,-
2019_Oct_30,26,001,2,source,33,ABSENCES,LF,target,right,aqua,imageability,conservative,no,1,0,0.866965279479,-,-
2019_Oct_30,26,001,2,source,34,OPPOSES,LF,target,right,aqua,imageability,conservative,no,9,1,0.916742309706,-,-
2019_Oct_30,26,001,2,source,35,DILATED,LF,target,right,aqua,imageability,conservative,no,9,1,1.30026534943,-,-
2019_Oct_30,26,001,2,source,36,HERSELF,HF,target,left,yellow,pleasantness,conservative,yes,9,0,0.700339550483,-,-
2019_Oct_30,26,001,2,source,37,TURNED,HF,target,left,yellow,pleasantness,conservative,no,1,1,0.700310222002,-,-
2019_Oct_30,26,001,2,source,38,DEMEANOUR,LF,target,left,yellow,pleasantness,conservative,no,9,0,0.700245699345,-,-
2019_Oct_30,26,001,2,source,39,YOUNG,HF,target,right,aqua,imageability,liberal,no,1,0,0.983526559139,-,-
2019_Oct_30,26,001,2,source,40,JUROR,LF,target,left,yellow,pleasantness,conservative,no,9,0,0.650232574851,-,-
2019_Oct_30,26,001,2,source,41,ASKED,HF,target,right,aqua,imageability,liberal,no,9,1,0.5169397637,-,-
2019_Oct_30,26,001,2,source,42,TOTAL,HF,target,right,aqua,imageability,conservative,no,1,0,0.783525019393,-,-
2019_Oct_30,26,001,2,source,43,BEAUTIFUL,HF,target,right,aqua,imageability,conservative,no,9,1,1.18364944547,-,-
2019_Oct_30,26,001,2,source,44,HOPPER,LF,target,right,aqua,imageability,liberal,no,9,1,0.416951641735,-,-
2019_Oct_30,26,001,2,source,45,TOUSLED,LF,target,left,yellow,pleasantness,liberal,no,9,0,0.416975837731,-,-
2019_Oct_30,26,001,2,source,46,OFFER,HF,target,left,yellow,pleasantness,conservative,no,9,0,0.733666602633,-,-
2019_Oct_30,26,001,2,source,47,ALONE,HF,target,right,aqua,imageability,conservative,no,9,1,0.383390328348,-,-
2019_Oct_30,26,001,2,recog,0,DIFFERENT,HF,target,left,yellow,pleasantness,conservative,no,z,1,2.31690596263,1,319
2019_Oct_30,26,001,2,recog,1,NEITHER,HF,lure,-,-,-,conservative,no,m,1,0.883359166836,3,322
2019_Oct_30,26,001,2,recog,2,JEALOUSLY,LF,target,left,yellow,pleasantness,conservative,no,z,1,1.2170058261,1,323
2019_Oct_30,26,001,2,recog,3,TRYING,HF,target,left,yellow,pleasantness,liberal,no,z,1,0.833513581286,3,326
2019_Oct_30,26,001,2,recog,4,HYENA,LF,target,right,aqua,imageability,conservative,yes,z,1,0.750052058052,1,327
2019_Oct_30,26,001,2,recog,5,TURNED,HF,target,left,yellow,pleasantness,conservative,no,z,1,1.31693969038,1,328
2019_Oct_30,26,001,2,recog,6,CRICKETER,LF,target,right,aqua,imageability,conservative,no,z,1,1.00018110337,1,329
2019_Oct_30,26,001,2,recog,7,FUTURE,HF,target,right,aqua,imageability,conservative,no,z,1,0.899984015979,1,330
2019_Oct_30,26,001,2,recog,8,TOTAL,HF,target,right,aqua,imageability,conservative,no,z,1,0.733611978339,1,331
2019_Oct_30,26,001,2,recog,9,APPEARED,HF,target,right,aqua,imageability,conservative,no,z,1,0.700270261947,1,332
2019_Oct_30,26,001,2,recog,10,KRONOR,LF,lure,-,-,-,liberal,no,m,1,0.700298857216,1,333
2019_Oct_30,26,001,2,recog,11,YELLOWED,LF,target,right,aqua,imageability,liberal,no,z,1,0.766950028669,3,336
2019_Oct_30,26,001,2,recog,12,UPDATE,LF,lure,-,-,-,liberal,no,m,1,0.816662902845,1,337
2019_Oct_30,26,001,2,recog,13,HUSBAND,HF,lure,-,-,-,conservative,no,m,1,1.23358338307,3,340
2019_Oct_30,26,001,2,recog,14,OFTEN,HF,lure,-,-,-,liberal,no,m,1,0.833605966,1,341
2019_Oct_30,26,001,2,recog,15,ALONE,HF,target,right,aqua,imageability,conservative,no,z,1,0.833676720958,1,342
2019_Oct_30,26,001,2,recog,16,ASKED,HF,target,right,aqua,imageability,liberal,no,z,1,0.800187628954,3,345
2019_Oct_30,26,001,2,recog,17,HOURS,HF,target,left,yellow,pleasantness,conservative,no,m,0,0.750315647771,-1,344
2019_Oct_30,26,001,2,recog,18,IDEAS,HF,target,left,yellow,pleasantness,liberal,no,z,1,2.18350206986,3,347
2019_Oct_30,26,001,2,recog,19,GENERAL,HF,target,left,yellow,pleasantness,liberal,no,m,0,1.05018689574,-3,344
2019_Oct_30,26,001,2,recog,20,COILING,LF,target,left,yellow,pleasantness,liberal,no,z,1,0.75028631929,3,347
2019_Oct_30,26,001,2,recog,21,HEMMED,LF,target,left,yellow,pleasantness,liberal,yes,z,1,0.800036220674,3,350
2019_Oct_30,26,001,2,recog,22,OPPOSES,LF,target,right,aqua,imageability,conservative,no,z,1,1.00027018863,1,351
2019_Oct_30,26,001,2,recog,23,MOTHER,HF,target,right,aqua,imageability,liberal,no,z,1,0.9669262726,3,354
2019_Oct_30,26,001,2,recog,24,SUBJECT,HF,lure,-,-,-,liberal,no,m,1,1.36697481123,1,355
2019_Oct_30,26,001,2,recog,25,RUSSET,LF,lure,-,-,-,conservative,no,m,1,1.20022920207,3,358
2019_Oct_30,26,001,2,recog,26,TOPICAL,LF,target,left,yellow,pleasantness,conservative,no,z,1,0.733570918465,1,359
2019_Oct_30,26,001,2,recog,27,SEMANTIC,LF,target,left,yellow,pleasantness,liberal,no,z,1,0.966927372418,3,362
2019_Oct_30,26,001,2,recog,28,ENHANCES,LF,lure,-,-,-,liberal,no,m,1,1.40018748231,1,363
2019_Oct_30,26,001,2,recog,29,NOTHING,HF,lure,-,-,-,liberal,no,z,0,1.83345455772,-1,362
2019_Oct_30,26,001,2,recog,30,PRIVATE,HF,lure,-,-,-,conservative,no,z,0,0.750352674978,-3,359
2019_Oct_30,26,001,2,recog,31,OFFER,HF,target,left,yellow,pleasantness,conservative,no,m,0,1.10031440131,-1,358
2019_Oct_30,26,001,2,recog,32,HAUNCHES,LF,lure,-,-,-,liberal,no,m,1,1.31691549438,1,359
2019_Oct_30,26,001,2,recog,33,HERSELF,HF,target,left,yellow,pleasantness,conservative,yes,m,0,0.983363419467,-1,358
2019_Oct_30,26,001,2,recog,34,ORIGINALS,LF,lure,-,-,-,liberal,no,m,1,1.08356160667,1,359
2019_Oct_30,26,001,2,recog,35,COHESIVE,LF,lure,-,-,-,liberal,no,m,1,0.91691168168,1,360
2019_Oct_30,26,001,2,recog,36,RANGE,HF,lure,-,-,-,conservative,no,m,1,1.50030464959,3,363
2019_Oct_30,26,001,2,recog,37,TAPER,LF,lure,-,-,-,conservative,no,m,1,1.9833043959,3,366
2019_Oct_30,26,001,2,recog,38,BULBOUS,LF,lure,-,-,-,liberal,no,m,1,1.78356497945,1,367
2019_Oct_30,26,001,2,recog,39,HIMSELF,HF,lure,-,-,-,conservative,no,m,1,0.766905302737,3,370
2019_Oct_30,26,001,2,recog,40,YOUNG,HF,target,right,aqua,imageability,liberal,no,m,0,1.23358778234,-3,367
2019_Oct_30,26,001,2,recog,41,CLOSE,HF,lure,-,-,-,conservative,no,m,1,1.81689349802,3,370
2019_Oct_30,26,001,2,recog,42,SUMMER,HF,lure,-,-,-,liberal,no,m,1,3.31678351622,1,371
2019_Oct_30,26,001,2,recog,43,HUNDRED,HF,lure,-,-,-,conservative,no,m,1,1.93351306804,3,374
2019_Oct_30,26,001,2,recog,44,HOWEVER,HF,target,right,aqua,imageability,liberal,no,m,0,2.26685031184,-3,371
2019_Oct_30,26,001,2,recog,45,GLEANED,LF,lure,-,-,-,conservative,no,m,1,1.06684657245,3,374
2019_Oct_30,26,001,2,recog,46,LARGE,HF,lure,-,-,-,conservative,no,m,1,2.18349767058,3,377
2019_Oct_30,26,001,2,recog,47,AROUND,HF,lure,-,-,-,liberal,no,m,1,1.1502171774,1,378
2019_Oct_30,26,001,2,recog,48,JANGLING,LF,target,right,aqua,imageability,liberal,no,m,0,0.866961613418,-3,375
2019_Oct_30,26,001,2,recog,49,PONCE,LF,lure,-,-,-,conservative,no,m,1,0.900238807152,3,378
2019_Oct_30,26,001,2,recog,50,AMICABLY,LF,target,right,aqua,imageability,liberal,no,z,1,0.783674594643,3,381
2019_Oct_30,26,001,2,recog,51,LIKELY,HF,target,right,aqua,imageability,liberal,no,z,1,0.683532864762,3,384
2019_Oct_30,26,001,2,recog,52,ABSENCES,LF,target,right,aqua,imageability,conservative,no,z,1,0.733622976518,1,385
2019_Oct_30,26,001,2,recog,53,ADDED,HF,lure,-,-,-,conservative,no,m,1,0.900287565751,3,388
2019_Oct_30,26,001,2,recog,54,ENERGY,HF,target,left,yellow,pleasantness,liberal,no,m,0,2.21673637069,-3,385
2019_Oct_30,26,001,2,recog,55,SEEMED,HF,lure,-,-,-,conservative,no,z,0,1.21698859562,-3,382
2019_Oct_30,26,001,2,recog,56,DELEGATED,LF,lure,-,-,-,liberal,no,m,1,0.816950321953,1,383
2019_Oct_30,26,001,2,recog,57,RASCAL,LF,lure,-,-,-,liberal,no,m,1,1.23358888216,1,384
2019_Oct_30,26,001,2,recog,58,FLYWHEEL,LF,target,right,aqua,imageability,liberal,no,z,1,0.850284706224,3,387
2019_Oct_30,26,001,2,recog,59,CERTAIN,HF,lure,-,-,-,liberal,no,z,0,2.21682948861,-1,386
2019_Oct_30,26,001,2,recog,60,EMBATTLED,LF,lure,-,-,-,conservative,no,m,1,1.65023734073,3,389
2019_Oct_30,26,001,2,recog,61,TOUSLED,LF,target,left,yellow,pleasantness,liberal,no,z,1,1.15021644419,3,392
2019_Oct_30,26,001,2,recog,62,AMALGAM,LF,lure,-,-,-,liberal,no,m,1,1.30018066344,1,393
2019_Oct_30,26,001,2,recog,63,JUROR,LF,target,left,yellow,pleasantness,conservative,no,z,1,1.28358844223,1,394
2019_Oct_30,26,001,2,recog,64,DUNGEON,LF,lure,-,-,-,conservative,yes,z,0,0.950257064131,-3,391
2019_Oct_30,26,001,2,recog,65,AVAILABLE,HF,lure,-,-,-,conservative,no,m,1,2.10027480786,3,394
2019_Oct_30,26,001,2,recog,66,IDLING,LF,lure,-,-,-,conservative,no,m,1,2.56681064507,3,397
2019_Oct_30,26,001,2,recog,67,ALTHOUGH,HF,target,right,aqua,imageability,conservative,no,z,1,0.96692077351,1,398
2019_Oct_30,26,001,2,recog,68,PLACE,HF,lure,-,-,-,liberal,no,m,1,0.90021241152,1,399
2019_Oct_30,26,001,2,recog,69,MAGGOT,LF,lure,-,-,-,liberal,no,m,1,1.05025838391,1,400
2019_Oct_30,26,001,2,recog,70,KINDEST,LF,lure,-,-,-,conservative,no,m,1,1.50029218499,3,403
2019_Oct_30,26,001,2,recog,71,TASSELS,LF,lure,-,-,-,conservative,no,m,1,1.1335336713,3,406
2019_Oct_30,26,001,2,recog,72,BATCHES,LF,target,left,yellow,pleasantness,liberal,no,z,1,1.13358609595,3,409
2019_Oct_30,26,001,2,recog,73,TINGLING,LF,target,left,yellow,pleasantness,conservative,no,z,1,0.850220916779,1,410
2019_Oct_30,26,001,2,recog,74,LUNACY,LF,lure,-,-,-,conservative,no,m,1,1.25010741556,3,413
2019_Oct_30,26,001,2,recog,75,BEYOND,HF,lure,-,-,-,liberal,no,m,1,0.800191295014,1,414
2019_Oct_30,26,001,2,recog,76,DILATED,LF,target,right,aqua,imageability,conservative,no,z,1,1.71690574266,1,415
2019_Oct_30,26,001,2,recog,77,AMONG,HF,target,left,yellow,pleasantness,conservative,no,m,0,0.716701909724,-1,414
2019_Oct_30,26,001,2,recog,78,LIVED,HF,lure,-,-,-,liberal,no,m,1,1.36691102179,1,415
2019_Oct_30,26,001,2,recog,79,DEMEANOUR,LF,target,left,yellow,pleasantness,conservative,no,m,0,1.23360427961,-1,414
2019_Oct_30,26,001,2,recog,80,UNABATED,LF,target,left,yellow,pleasantness,liberal,no,z,1,1.01684957862,3,417
2019_Oct_30,26,001,2,recog,81,MOCCASINS,LF,lure,-,-,-,conservative,no,m,1,0.800286612574,3,420
2019_Oct_30,26,001,2,recog,82,SINCE,HF,lure,-,-,-,conservative,no,m,1,0.833530811768,3,423
2019_Oct_30,26,001,2,recog,83,RABBIS,LF,target,left,yellow,pleasantness,conservative,no,z,1,0.900333391502,1,424
2019_Oct_30,26,001,2,recog,84,DWELT,LF,lure,-,-,-,conservative,no,m,1,0.850189388663,3,427
2019_Oct_30,26,001,2,recog,85,CACOPHONY,LF,lure,-,-,-,liberal,no,m,1,0.733415477519,1,428
2019_Oct_30,26,001,2,recog,86,HOEING,LF,target,right,aqua,imageability,liberal,no,z,1,0.950297024186,3,431
2019_Oct_30,26,001,2,recog,87,PICTURE,HF,target,left,yellow,pleasantness,liberal,no,m,0,1.03362180338,-3,428
2019_Oct_30,26,001,2,recog,88,HOPPER,LF,target,right,aqua,imageability,liberal,no,z,1,1.7502870525,3,431
2019_Oct_30,26,001,2,recog,89,FREEDOM,HF,target,left,yellow,pleasantness,liberal,no,z,1,0.816992848249,3,434
2019_Oct_30,26,001,2,recog,90,STOOD,HF,lure,-,-,-,liberal,no,m,1,0.783323019485,1,435
2019_Oct_30,26,001,2,recog,91,CANNOT,HF,lure,-,-,-,liberal,no,m,1,1.40021241152,1,436
2019_Oct_30,26,001,2,recog,92,MORNING,HF,lure,-,-,-,liberal,no,m,1,0.966990795256,1,437
2019_Oct_30,26,001,2,recog,93,ADOPTIVE,LF,target,right,aqua,imageability,conservative,no,m,0,0.766974591272,-1,436
2019_Oct_30,26,001,2,recog,94,BEAUTIFUL,HF,target,right,aqua,imageability,conservative,no,z,1,0.950183376324,1,437
2019_Oct_30,26,001,2,recog,95,WATCH,HF,target,right,aqua,imageability,liberal,no,z,1,0.850029548444,3,440
2019_Oct_30,26,001,3,source,0,ANIMAL,HF,target,left,yellow,pleasantness,conservative,no,7,0,2.46694130345,-,-
2019_Oct_30,26,001,3,source,1,UPKEEP,LF,target,left,yellow,pleasantness,liberal,no,1,1,1.59999252124,-,-
2019_Oct_30,26,001,3,source,2,SICKENED,LF,target,right,aqua,imageability,liberal,no,1,0,1.1669432098,-,-
2019_Oct_30,26,001,3,source,3,SOMEONE,HF,target,left,yellow,pleasantness,conservative,no,1,1,0.983562486527,-,-
2019_Oct_30,26,001,3,source,4,SIZZLING,LF,target,left,yellow,pleasantness,liberal,no,1,1,1.18360618596,-,-
2019_Oct_30,26,001,3,source,5,OUTSIDE,HF,target,left,yellow,pleasantness,liberal,no,7,0,0.450250465223,-,-
2019_Oct_30,26,001,3,source,6,NICETIES,LF,target,right,aqua,imageability,conservative,no,8,1,0.466965499442,-,-
2019_Oct_30,26,001,3,source,7,SCRABBLE,LF,target,left,yellow,pleasantness,conservative,no,2,1,0.53330688882,-,-
2019_Oct_30,26,001,3,source,8,NEEDED,HF,target,right,aqua,imageability,conservative,no,2,0,0.866861896585,-,-
2019_Oct_30,26,001,3,source,9,RALLIED,LF,target,left,yellow,pleasantness,conservative,no,8,0,0.683551195062,-,-
2019_Oct_30,26,001,3,source,10,BOOKS,HF,target,right,aqua,imageability,liberal,no,7,1,0.56685793724,-,-
2019_Oct_30,26,001,3,source,11,EXCEPT,HF,target,right,aqua,imageability,conservative,no,9,1,0.51697092521,-,-
2019_Oct_30,26,001,3,source,12,FRIEND,HF,target,left,yellow,pleasantness,conservative,no,1,1,1.20021673747,-,-
2019_Oct_30,26,001,3,source,13,RATHER,HF,target,left,yellow,pleasantness,conservative,no,7,0,1.05024958537,-,-
2019_Oct_30,26,001,3,source,14,SCHOOL,HF,target,left,yellow,pleasantness,liberal,no,8,0,0.633386662287,-,-
2019_Oct_30,26,001,3,source,15,THING,HF,target,left,yellow,pleasantness,conservative,no,8,0,0.56691109511,-,-
2019_Oct_30,26,001,3,source,16,ARTIFACTS,LF,target,right,aqua,imageability,conservative,no,8,1,0.88363595437,-,-
2019_Oct_30,26,001,3,source,17,WEDGES,LF,target,left,yellow,pleasantness,conservative,no,3,1,1.28356131339,-,-
2019_Oct_30,26,001,3,source,18,PIQUE,LF,target,right,aqua,imageability,conservative,no,1,0,1.15023257485,-,-
2019_Oct_30,26,001,3,source,19,HIVES,LF,target,right,aqua,imageability,liberal,no,9,1,0.81697085189,-,-
2019_Oct_30,26,001,3,source,20,INSIDE,HF,target,left,yellow,pleasantness,liberal,no,9,0,0.966938003991,-,-
2019_Oct_30,26,001,3,source,21,SUCCESS,HF,target,right,aqua,imageability,liberal,yes,9,1,0.633555301049,-,-
2019_Oct_30,26,001,3,source,22,PEGGED,LF,target,right,aqua,imageability,liberal,no,1,0,0.800286245969,-,-
2019_Oct_30,26,001,3,source,23,CARRIED,HF,target,left,yellow,pleasantness,conservative,yes,8,0,1.75021886378,-,-
2019_Oct_30,26,001,3,source,24,SNIGGERED,LF,target,right,aqua,imageability,conservative,no,1,0,0.916852291507,-,-
2019_Oct_30,26,001,3,source,25,VENDETTA,LF,target,right,aqua,imageability,conservative,no,1,0,1.03355288145,-,-
2019_Oct_30,26,001,3,source,26,CLASS,HF,target,right,aqua,imageability,liberal,no,8,1,0.733568718829,-,-
2019_Oct_30,26,001,3,source,27,FIELD,HF,target,left,yellow,pleasantness,liberal,no,8,0,1.25029255159,-,-
2019_Oct_30,26,001,3,source,28,PANACHE,LF,target,left,yellow,pleasantness,liberal,no,1,1,0.916703449469,-,-
2019_Oct_30,26,001,3,source,29,BASIC,HF,target,right,aqua,imageability,conservative,no,9,1,0.500301350136,-,-
2019_Oct_30,26,001,3,source,30,SUING,LF,target,right,aqua,imageability,liberal,no,1,0,0.900217177397,-,-
2019_Oct_30,26,001,3,source,31,GRUBS,LF,target,left,yellow,pleasantness,conservative,no,1,1,1.03330762203,-,-
2019_Oct_30,26,001,3,source,32,ZOOLOGY,LF,target,right,aqua,imageability,liberal,no,9,1,0.750288518926,-,-
2019_Oct_30,26,001,3,source,33,ICEBOX,LF,target,left,yellow,pleasantness,liberal,no,9,0,1.11694401633,-,-
2019_Oct_30,26,001,3,source,34,CAPITAL,HF,target,right,aqua,imageability,conservative,no,1,0,1.35000535245,-,-
2019_Oct_30,26,001,3,source,35,POPES,LF,target,right,aqua,imageability,conservative,no,9,1,0.750314547952,-,-
2019_Oct_30,26,001,3,source,36,HOODLUMS,LF,target,left,yellow,pleasantness,liberal,no,9,0,0.98330256287,-,-
2019_Oct_30,26,001,3,source,37,REJOICED,LF,target,left,yellow,pleasantness,conservative,no,1,1,1.01696982539,-,-
2019_Oct_30,26,001,3,source,38,EXPECT,HF,target,right,aqua,imageability,conservative,no,9,1,1.46670117651,-,-
2019_Oct_30,26,001,3,source,39,SOCIAL,HF,target,left,yellow,pleasantness,liberal,no,9,0,0.733335557409,-,-
2019_Oct_30,26,001,3,source,40,CHOICE,HF,target,right,aqua,imageability,liberal,no,9,1,0.833526412496,-,-
2019_Oct_30,26,001,3,source,41,IGNOBLE,LF,target,right,aqua,imageability,liberal,no,1,0,0.866698756912,-,-
2019_Oct_30,26,001,3,source,42,SLEEP,HF,target,right,aqua,imageability,liberal,yes,7,1,0.71697209835,-,-
2019_Oct_30,26,001,3,source,43,JUMBO,LF,target,left,yellow,pleasantness,liberal,yes,7,0,0.783633534771,-,-
2019_Oct_30,26,001,3,source,44,BRACES,LF,target,left,yellow,pleasantness,conservative,no,9,0,1.08360999867,-,-
2019_Oct_30,26,001,3,source,45,MUSIC,HF,target,right,aqua,imageability,liberal,no,9,1,0.583601200121,-,-
2019_Oct_30,26,001,3,source,46,EVENING,HF,target,left,yellow,pleasantness,liberal,no,1,1,0.800241153431,-,-
2019_Oct_30,26,001,3,source,47,MILES,HF,target,right,aqua,imageability,conservative,no,9,1,1.1668823532,-,-
2019_Oct_30,26,001,3,recog,0,LEVEL,HF,lure,-,-,-,conservative,no,m,1,4.05007948018,3,443
2019_Oct_30,26,001,3,recog,1,WEDGES,LF,target,left,yellow,pleasantness,conservative,no,z,1,1.16664589233,1,444
2019_Oct_30,26,001,3,recog,2,SOCIAL,HF,target,left,yellow,pleasantness,liberal,no,m,0,1.58363309484,-3,441
2019_Oct_30,26,001,3,recog,3,ABOVE,HF,lure,-,-,-,conservative,no,m,1,1.55013117163,3,444
2019_Oct_30,26,001,3,recog,4,SYSTEM,HF,lure,-,-,-,liberal,no,m,1,1.30028441294,1,445
2019_Oct_30,26,001,3,recog,5,URCHIN,LF,lure,-,-,-,conservative,no,m,1,0.816945189469,3,448
2019_Oct_30,26,001,3,recog,6,SUPPORT,HF,lure,-,-,-,conservative,no,m,1,0.850232648171,3,451
2019_Oct_30,26,001,3,recog,7,PIQUE,LF,target,right,aqua,imageability,conservative,no,z,1,0.816889831963,1,452
2019_Oct_30,26,001,3,recog,8,WISPY,LF,lure,-,-,-,conservative,no,m,1,0.733574217919,3,455
2019_Oct_30,26,001,3,recog,9,SNIGGERED,LF,target,right,aqua,imageability,conservative,no,z,1,0.866861896585,1,456
2019_Oct_30,26,001,3,recog,10,RICKETS,LF,lure,-,-,-,liberal,no,m,1,0.716972464956,1,457
2019_Oct_30,26,001,3,recog,11,COERCION,LF,lure,-,-,-,conservative,no,m,1,0.6669006835,3,460
2019_Oct_30,26,001,3,recog,12,CIVILITY,LF,lure,-,-,-,liberal,no,m,1,0.700262563221,1,461
2019_Oct_30,26,001,3,recog,13,INJECT,LF,lure,-,-,-,liberal,no,m,1,0.716998493982,1,462
2019_Oct_30,26,001,3,recog,14,NEEDED,HF,target,right,aqua,imageability,conservative,no,m,0,0.900231108426,-1,461
2019_Oct_30,26,001,3,recog,15,ZOOLOGY,LF,target,right,aqua,imageability,liberal,no,z,1,0.867002673291,3,464
2019_Oct_30,26,001,3,recog,16,BOOKS,HF,target,right,aqua,imageability,liberal,no,z,1,0.850253544713,3,467
2019_Oct_30,26,001,3,recog,17,YEARN,LF,lure,-,-,-,liberal,no,m,1,0.950180443476,1,468
2019_Oct_30,26,001,3,recog,18,EXCEPT,HF,target,right,aqua,imageability,conservative,no,z,1,0.766967992363,1,469
2019_Oct_30,26,001,3,recog,19,INSIDE,HF,target,left,yellow,pleasantness,liberal,no,z,1,0.700250831829,3,472
2019_Oct_30,26,001,3,recog,20,EXPECT,HF,target,right,aqua,imageability,conservative,no,z,1,0.766722366339,1,473
2019_Oct_30,26,001,3,recog,21,UNRAVEL,LF,lure,-,-,-,liberal,no,m,1,0.733683833116,1,474
2019_Oct_30,26,001,3,recog,22,LINEAGE,LF,lure,-,-,-,conservative,no,m,1,1.20030692255,3,477
2019_Oct_30,26,001,3,recog,23,SOMEONE,HF,target,left,yellow,pleasantness,conservative,yes,m,0,0.716907209087,-1,476
2019_Oct_30,26,001,3,recog,24,PARENTS,HF,lure,-,-,-,conservative,no,m,1,2.25011328126,3,479
2019_Oct_30,26,001,3,recog,25,ARTIFACTS,LF,target,right,aqua,imageability,conservative,no,z,1,0.81674318956,1,480
2019_Oct_30,26,001,3,recog,26,SCHOOL,HF,target,left,yellow,pleasantness,liberal,no,z,1,1.50027312147,3,483
2019_Oct_30,26,001,3,recog,27,TWOFOLD,LF,lure,-,-,-,liberal,no,m,1,0.700219303712,1,484
2019_Oct_30,26,001,3,recog,28,SUING,LF,target,right,aqua,imageability,liberal,no,z,1,0.766956627576,3,487
2019_Oct_30,26,001,3,recog,29,SIZZLING,LF,target,left,yellow,pleasantness,liberal,no,z,1,0.733671001904,3,490
2019_Oct_30,26,001,3,recog,30,RAPACIOUS,LF,lure,-,-,-,conservative,no,m,1,1.0170009869,3,493
2019_Oct_30,26,001,3,recog,31,WHETHER,HF,lure,-,-,-,conservative,yes,m,1,0.633683613151,3,496
2019_Oct_30,26,001,3,recog,32,PANACHE,LF,target,left,yellow,pleasantness,liberal,no,z,1,0.91668878523,3,499
2019_Oct_30,26,001,3,recog,33,SLEEP,HF,target,right,aqua,imageability,liberal,no,z,1,1.35031696755,3,502
2019_Oct_30,26,001,3,recog,34,BIRCHES,LF,lure,-,-,-,liberal,no,m,1,0.933609485417,1,503
2019_Oct_30,26,001,3,recog,35,TAUNTED,LF,lure,-,-,-,conservative,no,m,1,0.983600246946,3,506
2019_Oct_30,26,001,3,recog,36,MARKET,HF,lure,-,-,-,conservative,no,z,0,0.816914394565,-3,503
2019_Oct_30,26,001,3,recog,37,FIELD,HF,target,left,yellow,pleasantness,liberal,no,m,0,1.06700861231,-3,500
2019_Oct_30,26,001,3,recog,38,PEGGED,LF,target,right,aqua,imageability,liberal,no,z,1,0.766896137586,3,503
2019_Oct_30,26,001,3,recog,39,OTHERS,HF,lure,-,-,-,conservative,no,m,1,1.01688587262,3,506
2019_Oct_30,26,001,3,recog,40,HAPPEN,HF,lure,-,-,-,conservative,no,m,1,1.21666598234,3,509
2019_Oct_30,26,001,3,recog,41,THEORY,HF,lure,-,-,-,liberal,no,m,1,1.05021695743,1,510
2019_Oct_30,26,001,3,recog,42,HASSLE,LF,lure,-,-,-,liberal,no,m,1,1.08335484089,1,511
2019_Oct_30,26,001,3,recog,43,SCRABBLE,LF,target,left,yellow,pleasantness,conservative,no,z,1,0.850253178107,1,512
2019_Oct_30,26,001,3,recog,44,MUSIC,HF,target,right,aqua,imageability,liberal,no,z,1,0.866896357549,3,515
2019_Oct_30,26,001,3,recog,45,THING,HF,target,left,yellow,pleasantness,conservative,no,z,1,0.883556400867,1,516
2019_Oct_30,26,001,3,recog,46,SUNBURN,LF,lure,-,-,-,conservative,yes,m,1,0.783605672716,3,519
2019_Oct_30,26,001,3,recog,47,HOODLUMS,LF,target,left,yellow,pleasantness,liberal,no,z,1,1.03355324806,3,522
2019_Oct_30,26,001,3,recog,48,EXECUTING,LF,lure,-,-,-,conservative,no,m,1,1.05021292477,3,525
2019_Oct_30,26,001,3,recog,49,DOCTOR,HF,lure,-,-,-,conservative,no,z,0,0.866926052636,-3,522
2019_Oct_30,26,001,3,recog,50,VARIOUS,HF,lure,-,-,-,liberal,no,m,1,2.1169179873,1,523
2019_Oct_30,26,001,3,recog,51,CYANIDE,LF,lure,-,-,-,liberal,no,m,1,0.98361087852,1,524
2019_Oct_30,26,001,3,recog,52,UPKEEP,LF,target,left,yellow,pleasantness,liberal,no,m,0,1.21684012019,-3,521
2019_Oct_30,26,001,3,recog,53,ORDER,HF,lure,-,-,-,conservative,no,z,0,1.11667236128,-3,518
2019_Oct_30,26,001,3,recog,54,BEDLAM,LF,lure,-,-,-,conservative,no,m,1,0.850333098217,3,521
2019_Oct_30,26,001,3,recog,55,MILES,HF,target,right,aqua,imageability,conservative,no,z,1,0.833568572187,1,522
2019_Oct_30,26,001,3,recog,56,RECENT,HF,lure,-,-,-,liberal,no,m,1,1.29982212277,1,523
2019_Oct_30,26,001,3,recog,57,PIGLETS,LF,lure,-,-,-,conservative,no,m,1,0.866933384756,3,526
2019_Oct_30,26,001,3,recog,58,TODAY,HF,lure,-,-,-,liberal,no,m,1,1.26693536443,1,527
2019_Oct_30,26,001,3,recog,59,FRIEND,HF,target,left,yellow,pleasantness,conservative,no,m,0,0.933516734098,-1,526
2019_Oct_30,26,001,3,recog,60,SICKENED,LF,target,right,aqua,imageability,liberal,no,z,1,0.766974591271,3,529
2019_Oct_30,26,001,3,recog,61,CARRIED,HF,target,left,yellow,pleasantness,conservative,no,z,1,0.800287712394,1,530
2019_Oct_30,26,001,3,recog,62,POPES,LF,target,right,aqua,imageability,conservative,no,z,1,0.783337683724,1,531
2019_Oct_30,26,001,3,recog,63,CAPITAL,HF,target,right,aqua,imageability,conservative,no,z,1,0.800185795923,1,532
2019_Oct_30,26,001,3,recog,64,FONDLE,LF,lure,-,-,-,liberal,no,m,1,1.00026065687,1,533
2019_Oct_30,26,001,3,recog,65,SUCCESS,HF,target,right,aqua,imageability,liberal,no,z,1,0.833624662906,3,536
2019_Oct_30,26,001,3,recog,66,REJOICED,LF,target,left,yellow,pleasantness,conservative,no,z,1,0.700243499708,1,537
2019_Oct_30,26,001,3,recog,67,SENSE,HF,lure,-,-,-,liberal,no,z,0,0.766976424301,-1,536
2019_Oct_30,26,001,3,recog,68,CALLED,HF,lure,-,-,-,liberal,no,z,0,0.666945409433,-1,535
2019_Oct_30,26,001,3,recog,69,JUMBO,LF,target,left,yellow,pleasantness,liberal,no,m,0,0.866850898405,-3,532
2019_Oct_30,26,001,3,recog,70,OUTSIDE,HF,target,left,yellow,pleasantness,liberal,no,z,1,0.750237194085,3,535
2019_Oct_30,26,001,3,recog,71,VENDETTA,LF,target,right,aqua,imageability,conservative,no,z,1,0.683576490876,1,536
2019_Oct_30,26,001,3,recog,72,ICEBOX,LF,target,left,yellow,pleasantness,liberal,no,z,1,0.633572164926,3,539
2019_Oct_30,26,001,3,recog,73,EVENING,HF,target,left,yellow,pleasantness,liberal,no,z,1,1.00028228662,3,542
2019_Oct_30,26,001,3,recog,74,WALKED,HF,lure,-,-,-,conservative,no,m,1,0.750166072521,3,545
2019_Oct_30,26,001,3,recog,75,CONCERNED,HF,lure,-,-,-,liberal,no,m,1,1.15020691243,1,546
2019_Oct_30,26,001,3,recog,76,IGNOBLE,LF,target,right,aqua,imageability,liberal,no,z,1,0.883619090494,3,549
2019_Oct_30,26,001,3,recog,77,MADDENED,LF,lure,-,-,-,conservative,no,m,1,0.883516807418,3,552
2019_Oct_30,26,001,3,recog,78,POINT,HF,lure,-,-,-,liberal,no,m,1,1.08355610758,1,553
2019_Oct_30,26,001,3,recog,79,CHOICE,HF,target,right,aqua,imageability,liberal,no,z,1,0.883668948911,3,556
2019_Oct_30,26,001,3,recog,80,DIMMED,LF,lure,-,-,-,liberal,no,m,1,0.783592841504,1,557
2019_Oct_30,26,001,3,recog,81,CLASS,HF,target,right,aqua,imageability,liberal,yes,m,0,0.800259483731,-3,554
2019_Oct_30,26,001,3,recog,82,PERHAPS,HF,lure,-,-,-,liberal,no,z,0,0.716914174602,-1,553
2019_Oct_30,26,001,3,recog,83,GRUBS,LF,target,left,yellow,pleasantness,conservative,no,m,0,1.10032210004,-1,552
2019_Oct_30,26,001,3,recog,84,RATHER,HF,target,left,yellow,pleasantness,conservative,no,z,1,0.866969312145,1,553
2019_Oct_30,26,001,3,recog,85,NICETIES,LF,target,right,aqua,imageability,conservative,no,m,0,0.750239393722,-1,552
2019_Oct_30,26,001,3,recog,86,ANIMAL,HF,target,left,yellow,pleasantness,conservative,no,z,1,0.86695868057,1,553
2019_Oct_30,26,001,3,recog,87,HIVES,LF,target,right,aqua,imageability,liberal,no,z,1,0.600303769736,3,556
2019_Oct_30,26,001,3,recog,88,DROLL,LF,lure,-,-,-,liberal,no,m,1,0.700248265587,1,557
2019_Oct_30,26,001,3,recog,89,RALLIED,LF,target,left,yellow,pleasantness,conservative,no,m,0,0.866912488214,-1,556
2019_Oct_30,26,001,3,recog,90,SUDDENLY,HF,lure,-,-,-,conservative,no,m,1,1.48349209817,3,559
2019_Oct_30,26,001,3,recog,91,BASIC,HF,target,right,aqua,imageability,conservative,no,m,0,1.13330490915,-1,558
2019_Oct_30,26,001,3,recog,92,NOVAS,LF,lure,-,-,-,conservative,no,m,1,1.60019342133,3,561
2019_Oct_30,26,001,3,recog,93,BRACES,LF,target,left,yellow,pleasantness,conservative,no,z,1,0.833604866181,1,562
2019_Oct_30,26,001,3,recog,94,TRUTH,HF,lure,-,-,-,liberal,no,m,1,2.36702430304,1,563
2019_Oct_30,26,001,3,recog,95,LETTER,HF,lure,-,-,-,liberal,no,m,1,0.700277594068,1,564
2019_Oct_30,26,001,4,source,0,UNTIL,HF,target,right,aqua,imageability,conservative,no,7,1,1.25022656251,-,-
2019_Oct_30,26,001,4,source,1,REPORT,HF,target,left,yellow,pleasantness,liberal,no,7,0,1.00007148817,-,-
2019_Oct_30,26,001,4,source,2,BROUGHT,HF,target,right,aqua,imageability,liberal,no,7,1,0.816904129597,-,-
2019_Oct_30,26,001,4,source,3,TREES,HF,target,left,yellow,pleasantness,conservative,no,7,0,0.816871501663,-,-
2019_Oct_30,26,001,4,source,4,NEARLY,HF,target,right,aqua,imageability,liberal,yes,7,1,0.650287199144,-,-
2019_Oct_30,26,001,4,source,5,GARDEN,HF,target,right,aqua,imageability,liberal,no,2,0,0.667064189779,-,-
2019_Oct_30,26,001,4,source,6,CHAIR,HF,target,left,yellow,pleasantness,conservative,no,8,0,0.866886092582,-,-
2019_Oct_30,26,001,4,source,7,PHYSICAL,HF,target,left,yellow,pleasantness,liberal,yes,8,0,0.516965792726,-,-
2019_Oct_30,26,001,4,source,8,AEGIS,LF,target,left,yellow,pleasantness,liberal,yes,7,0,0.366711588123,-,-
2019_Oct_30,26,001,4,source,9,ADJOURNED,LF,target,right,aqua,imageability,liberal,no,1,0,1.15028279987,-,-
2019_Oct_30,26,001,4,source,10,MOUTH,HF,target,right,aqua,imageability,conservative,no,9,1,0.70035164848,-,-
2019_Oct_30,26,001,4,source,11,RAGES,LF,target,left,yellow,pleasantness,conservative,no,9,0,0.833575904307,-,-
2019_Oct_30,26,001,4,source,12,DEVELOPED,HF,target,right,aqua,imageability,liberal,no,9,1,0.783411004926,-,-
2019_Oct_30,26,001,4,source,13,WELCOMES,LF,target,left,yellow,pleasantness,liberal,no,1,1,0.483637640758,-,-
2019_Oct_30,26,001,4,source,14,ATTACK,HF,target,left,yellow,pleasantness,liberal,no,1,1,0.7501770707,-,-
2019_Oct_30,26,001,4,source,15,BUZZARD,LF,target,left,yellow,pleasantness,liberal,no,9,0,0.516922166612,-,-
2019_Oct_30,26,001,4,source,16,CULINARY,LF,target,right,aqua,imageability,liberal,no,1,0,0.533374344325,-,-
2019_Oct_30,26,001,4,source,17,SOYBEAN,LF,target,right,aqua,imageability,liberal,no,1,0,0.916952008341,-,-
2019_Oct_30,26,001,4,source,18,PALATABLE,LF,target,right,aqua,imageability,liberal,no,9,1,0.416720313346,-,-
2019_Oct_30,26,001,4,source,19,NECESSARY,HF,target,right,aqua,imageability,liberal,no,1,0,0.85028873889,-,-
2019_Oct_30,26,001,4,source,20,BUILDING,HF,target,left,yellow,pleasantness,conservative,no,9,0,0.650291598417,-,-
2019_Oct_30,26,001,4,source,21,AHEAD,HF,target,right,aqua,imageability,conservative,no,1,0,0.383598560558,-,-
2019_Oct_30,26,001,4,source,22,LOOKED,HF,target,right,aqua,imageability,conservative,no,1,0,0.366710488304,-,-
2019_Oct_30,26,001,4,source,23,COVER,HF,target,left,yellow,pleasantness,conservative,no,9,0,0.767000620297,-,-
2019_Oct_30,26,001,4,source,24,MIDDLE,HF,target,left,yellow,pleasantness,liberal,no,1,1,0.366924952817,-,-
2019_Oct_30,26,001,4,source,25,FLICKS,LF,target,right,aqua,imageability,conservative,no,9,1,0.666941376767,-,-
2019_Oct_30,26,001,4,source,26,JUTTED,LF,target,right,aqua,imageability,liberal,no,1,0,0.317030975275,-,-
2019_Oct_30,26,001,4,source,27,PREPARED,HF,target,right,aqua,imageability,liberal,no,1,0,0.416717380497,-,-
2019_Oct_30,26,001,4,source,28,LESSENED,LF,target,left,yellow,pleasantness,conservative,no,1,1,0.350310002038,-,-
2019_Oct_30,26,001,4,source,29,TELEPHONE,HF,target,right,aqua,imageability,conservative,no,1,0,1.73345983685,-,-
2019_Oct_30,26,001,4,source,30,VERBALLY,LF,target,left,yellow,pleasantness,conservative,no,1,1,0.450259996979,-,-
2019_Oct_30,26,001,4,source,31,WAYSIDE,LF,target,right,aqua,imageability,conservative,no,1,0,0.350310735251,-,-
2019_Oct_30,26,001,4,source,32,NOMAD,LF,target,right,aqua,imageability,conservative,no,1,0,0.550304209663,-,-
2019_Oct_30,26,001,4,source,33,NIPPED,LF,target,right,aqua,imageability,conservative,no,1,0,0.483541589985,-,-
2019_Oct_30,26,001,4,source,34,SNUBBED,LF,target,left,yellow,pleasantness,liberal,no,1,1,0.38357546438,-,-
2019_Oct_30,26,001,4,source,35,BYGONE,LF,target,right,aqua,imageability,conservative,no,1,0,0.450360080418,-,-
2019_Oct_30,26,001,4,source,36,CORNER,HF,target,left,yellow,pleasantness,liberal,no,2,1,0.150359053921,-,-
2019_Oct_30,26,001,4,source,37,SKIDDED,LF,target,right,aqua,imageability,liberal,yes,9,1,0.550296510937,-,-
2019_Oct_30,26,001,4,source,38,MICROCOSM,LF,target,left,yellow,pleasantness,conservative,no,9,0,0.650306995869,-,-
2019_Oct_30,26,001,4,source,39,BREAK,HF,target,left,yellow,pleasantness,conservative,no,9,0,0.350348129064,-,-
2019_Oct_30,26,001,4,source,40,FEUDALISM,LF,target,left,yellow,pleasantness,liberal,no,9,0,0.283594674534,-,-
2019_Oct_30,26,001,4,source,41,REVERE,LF,target,left,yellow,pleasantness,liberal,no,9,0,0.316923559715,-,-
2019_Oct_30,26,001,4,source,42,FORCE,HF,target,right,aqua,imageability,conservative,no,9,1,0.266923633036,-,-
2019_Oct_30,26,001,4,source,43,RUFFLES,LF,target,right,aqua,imageability,conservative,no,9,1,0.16698426967,-,-
2019_Oct_30,26,001,4,source,44,HONKING,LF,target,left,yellow,pleasantness,conservative,no,9,0,0.60008967183,-,-
2019_Oct_30,26,001,4,source,45,GATEHOUSE,LF,target,left,yellow,pleasantness,conservative,no,8,0,0.55024481949,-,-
2019_Oct_30,26,001,4,source,46,BLACK,HF,target,left,yellow,pleasantness,conservative,no,8,0,1.18350976858,-,-
2019_Oct_30,26,001,4,source,47,ANSWER,HF,target,left,yellow,pleasantness,liberal,no,8,0,0.700172011538,-,-
2019_Oct_30,26,001,4,recog,0,LESSENED,LF,target,left,yellow,pleasantness,conservative,no,z,1,1.45029922382,1,565
2019_Oct_30,26,001,4,recog,1,REPORT,HF,target,left,yellow,pleasantness,liberal,no,m,0,0.983615644398,-3,562
2019_Oct_30,26,001,4,recog,2,OUGHT,HF,lure,-,-,-,conservative,yes,m,1,0.683634048019,3,565
2019_Oct_30,26,001,4,recog,3,BUILDING,HF,target,left,yellow,pleasantness,conservative,no,z,1,0.916680353291,1,566
2019_Oct_30,26,001,4,recog,4,WHOLE,HF,lure,-,-,-,conservative,no,m,1,0.700229935286,3,569
2019_Oct_30,26,001,4,recog,5,TEXTURES,LF,lure,-,-,-,liberal,no,m,1,0.700204272866,1,570
2019_Oct_30,26,001,4,recog,6,ATTACK,HF,target,left,yellow,pleasantness,liberal,no,z,1,0.766949295456,3,573
2019_Oct_30,26,001,4,recog,7,BREAK,HF,target,left,yellow,pleasantness,conservative,no,z,1,1.03362803568,1,574
2019_Oct_30,26,001,4,recog,8,ANSWER,HF,target,left,yellow,pleasantness,liberal,no,z,1,0.666958973855,3,577
2019_Oct_30,26,001,4,recog,9,AHEAD,HF,target,right,aqua,imageability,conservative,no,m,0,1.03360823896,-1,576
2019_Oct_30,26,001,4,recog,10,PHYSICAL,HF,target,left,yellow,pleasantness,liberal,yes,z,1,0.50026982202,3,579
2019_Oct_30,26,001,4,recog,11,EXACTLY,HF,lure,-,-,-,liberal,no,m,1,0.866875827614,1,580
2019_Oct_30,26,001,4,recog,12,TAKEN,HF,lure,-,-,-,conservative,no,z,0,1.05027561439,-3,577
2019_Oct_30,26,001,4,recog,13,SOVIET,HF,lure,-,-,-,liberal,no,m,1,0.833599000485,1,578
2019_Oct_30,26,001,4,recog,14,AEGIS,LF,target,left,yellow,pleasantness,liberal,no,z,1,0.78356754569,3,581
2019_Oct_30,26,001,4,recog,15,UNZIPPED,LF,lure,-,-,-,liberal,no,z,0,1.81685610421,-1,580
2019_Oct_30,26,001,4,recog,16,APTLY,LF,lure,-,-,-,liberal,no,m,1,0.93366704256,1,581
2019_Oct_30,26,001,4,recog,17,KERNEL,LF,lure,-,-,-,conservative,no,m,1,0.866751181572,3,584
2019_Oct_30,26,001,4,recog,18,MAMMAL,LF,lure,-,-,-,conservative,no,m,1,0.766951128487,3,587
2019_Oct_30,26,001,4,recog,19,VERBALLY,LF,target,left,yellow,pleasantness,conservative,no,z,1,0.683577224088,1,588
2019_Oct_30,26,001,4,recog,20,HONKING,LF,target,left,yellow,pleasantness,conservative,no,z,1,1.06699064861,1,589
2019_Oct_30,26,001,4,recog,21,AREAS,HF,lure,-,-,-,liberal,no,m,1,0.733667702451,1,590
2019_Oct_30,26,001,4,recog,22,GARDEN,HF,target,right,aqua,imageability,liberal,no,z,1,1.15026996866,3,593
2019_Oct_30,26,001,4,recog,23,BEGAN,HF,lure,-,-,-,liberal,no,m,1,0.733528392168,1,594
2019_Oct_30,26,001,4,recog,24,FLICKS,LF,target,right,aqua,imageability,conservative,no,m,0,0.900184549464,-1,593
2019_Oct_30,26,001,4,recog,25,BUZZARD,LF,target,left,yellow,pleasantness,liberal,no,z,1,0.933362392969,3,596
2019_Oct_30,26,001,4,recog,26,TELEPHONE,HF,target,right,aqua,imageability,conservative,no,z,1,0.61692018694,1,597
2019_Oct_30,26,001,4,recog,27,UNTIL,HF,target,right,aqua,imageability,conservative,no,z,1,0.400310661928,1,598
2019_Oct_30,26,001,4,recog,28,ABUSING,LF,lure,-,-,-,liberal,no,m,1,0.717012058405,1,599
2019_Oct_30,26,001,4,recog,29,WAYSIDE,LF,target,right,aqua,imageability,conservative,no,m,0,0.717008758951,-1,598
2019_Oct_30,26,001,4,recog,30,GREATER,HF,lure,-,-,-,liberal,no,z,0,1.46682142328,-1,597
2019_Oct_30,26,001,4,recog,31,UNGAINLY,LF,lure,-,-,-,liberal,no,m,1,1.06695582104,1,598
2019_Oct_30,26,001,4,recog,32,SNUBBED,LF,target,left,yellow,pleasantness,liberal,no,z,1,0.80019349465,3,601
2019_Oct_30,26,001,4,recog,33,JUTTED,LF,target,right,aqua,imageability,liberal,no,z,1,1.0002258293,3,604
2019_Oct_30,26,001,4,recog,34,DEVELOPED,HF,target,right,aqua,imageability,liberal,yes,z,1,0.833560873461,3,607
2019_Oct_30,26,001,4,recog,35,TABLE,HF,lure,-,-,-,conservative,no,z,0,0.850336397671,-3,604
2019_Oct_30,26,001,4,recog,36,BYGONE,LF,target,right,aqua,imageability,conservative,no,z,1,0.850032114686,1,605
2019_Oct_30,26,001,4,recog,37,MAKES,HF,lure,-,-,-,conservative,no,m,1,1.13356996529,3,608
2019_Oct_30,26,001,4,recog,38,LOOKED,HF,target,right,aqua,imageability,conservative,no,m,0,0.767012718296,-1,607
2019_Oct_30,26,001,4,recog,39,FORCE,HF,target,right,aqua,imageability,conservative,no,z,1,0.700335884422,1,608
2019_Oct_30,26,001,4,recog,40,DAPPER,LF,lure,-,-,-,conservative,no,m,1,1.08353997692,3,611
2019_Oct_30,26,001,4,recog,41,LEARN,HF,lure,-,-,-,liberal,no,z,0,0.900187115705,-1,610
2019_Oct_30,26,001,4,recog,42,NIPPED,LF,target,right,aqua,imageability,conservative,no,z,1,0.583640060358,1,611
2019_Oct_30,26,001,4,recog,43,MYSELF,HF,lure,-,-,-,liberal,no,z,0,1.56681944361,-1,610
2019_Oct_30,26,001,4,recog,44,RUFFLES,LF,target,right,aqua,imageability,conservative,no,m,0,0.950330751939,-1,609
2019_Oct_30,26,001,4,recog,45,WANTED,HF,lure,-,-,-,conservative,no,z,0,2.16688528605,-3,606
2019_Oct_30,26,001,4,recog,46,WELCOMES,LF,target,left,yellow,pleasantness,liberal,no,z,1,2.26688917207,3,609
2019_Oct_30,26,001,4,recog,47,NIGHT,HF,lure,-,-,-,liberal,no,z,0,0.950296290974,-1,608
2019_Oct_30,26,001,4,recog,48,COVER,HF,target,left,yellow,pleasantness,conservative,no,z,1,0.516974957876,1,609
2019_Oct_30,26,001,4,recog,49,BOUGH,LF,lure,-,-,-,conservative,no,m,1,0.883662350003,3,612
2019_Oct_30,26,001,4,recog,50,RAGES,LF,target,left,yellow,pleasantness,conservative,no,m,0,1.13361102516,-1,611
2019_Oct_30,26,001,4,recog,51,ADJOURNED,LF,target,right,aqua,imageability,liberal,no,z,1,0.666912781498,3,614
2019_Oct_30,26,001,4,recog,52,TRIED,HF,lure,-,-,-,conservative,no,z,0,2.50012171319,-3,611
2019_Oct_30,26,001,4,recog,53,CORNER,HF,target,left,yellow,pleasantness,liberal,no,z,1,1.83351064844,3,614
2019_Oct_30,26,001,4,recog,54,NEARLY,HF,target,right,aqua,imageability,liberal,no,z,1,3.71685771728,3,617
2019_Oct_30,26,001,4,recog,55,GRACES,LF,lure,-,-,-,conservative,no,m,1,2.03353198491,3,620
2019_Oct_30,26,001,4,recog,56,CHEEKBONE,LF,lure,-,-,-,liberal,no,m,1,1.56681981022,1,621
2019_Oct_30,26,001,4,recog,57,CULINARY,LF,target,right,aqua,imageability,liberal,no,z,1,0.966913807995,3,624
2019_Oct_30,26,001,4,recog,58,SKIDDED,LF,target,right,aqua,imageability,liberal,yes,z,1,0.83347105499,3,627
2019_Oct_30,26,001,4,recog,59,GATEHOUSE,LF,target,left,yellow,pleasantness,conservative,no,m,0,0.95029665758,-1,626
2019_Oct_30,26,001,4,recog,60,NECESSARY,HF,target,right,aqua,imageability,liberal,no,z,1,0.650268502239,3,629
2019_Oct_30,26,001,4,recog,61,PHANTOMS,LF,lure,-,-,-,conservative,no,m,1,1.18360361972,3,632
2019_Oct_30,26,001,4,recog,62,TREES,HF,target,left,yellow,pleasantness,conservative,no,z,1,1.20026952873,1,633
2019_Oct_30,26,001,4,recog,63,ADENOIDS,LF,lure,-,-,-,conservative,no,z,0,0.733583016464,-3,630
2019_Oct_30,26,001,4,recog,64,PALATABLE,LF,target,right,aqua,imageability,liberal,no,m,0,0.917003333182,-3,627
2019_Oct_30,26,001,4,recog,65,BLACK,HF,target,left,yellow,pleasantness,conservative,no,m,0,3.60010286964,-1,626
2019_Oct_30,26,001,4,recog,66,FURTHER,HF,lure,-,-,-,liberal,no,z,0,1.033513288,-1,625
2019_Oct_30,26,001,4,recog,67,JAMMING,LF,lure,-,-,-,conservative,no,z,0,0.666916447558,-3,622
2019_Oct_30,26,001,4,recog,68,NEGATION,LF,lure,-,-,-,liberal,no,z,0,1.60017105836,-1,621
2019_Oct_30,26,001,4,recog,69,FEUDALISM,LF,target,left,yellow,pleasantness,liberal,no,m,0,2.0168114516,-3,618
2019_Oct_30,26,001,4,recog,70,LAXATIVE,LF,lure,-,-,-,liberal,no,m,1,1.8169041296,1,619
2019_Oct_30,26,001,4,recog,71,VICEREGAL,LF,lure,-,-,-,conservative,no,m,1,1.95020757232,3,622
2019_Oct_30,26,001,4,recog,72,RUGGER,LF,lure,-,-,-,conservative,no,m,1,2.28363610101,3,625
2019_Oct_30,26,001,4,recog,73,DERANGED,LF,lure,-,-,-,liberal,no,m,1,1.21689144503,1,626
2019_Oct_30,26,001,4,recog,74,PREPARED,HF,target,right,aqua,imageability,liberal,no,z,1,1.05027854724,3,629
2019_Oct_30,26,001,4,recog,75,MICROCOSM,LF,target,left,yellow,pleasantness,conservative,no,z,1,1.25021629754,1,630
2019_Oct_30,26,001,4,recog,76,MOUTH,HF,target,right,aqua,imageability,conservative,no,z,1,1.96694386969,1,631
2019_Oct_30,26,001,4,recog,77,REVERE,LF,target,left,yellow,pleasantness,liberal,no,z,1,0.96693910381,3,634
2019_Oct_30,26,001,4,recog,78,SOYBEAN,LF,target,right,aqua,imageability,liberal,no,z,1,0.866864462827,3,637
2019_Oct_30,26,001,4,recog,79,ALREADY,HF,lure,-,-,-,conservative,no,z,0,1.16684165993,-3,634
2019_Oct_30,26,001,4,recog,80,EPIDEMICS,LF,lure,-,-,-,conservative,no,z,0,0.616909555366,-3,631
2019_Oct_30,26,001,4,recog,81,COMES,HF,lure,-,-,-,conservative,no,m,1,0.850293504768,3,634
2019_Oct_30,26,001,4,recog,82,MAYBE,HF,lure,-,-,-,conservative,no,m,1,0.683557427365,3,637
2019_Oct_30,26,001,4,recog,83,CHAIR,HF,target,left,yellow,pleasantness,conservative,no,z,1,1.08350954862,1,638
2019_Oct_30,26,001,4,recog,84,POLICE,HF,lure,-,-,-,liberal,no,m,1,1.16698683591,1,639
2019_Oct_30,26,001,4,recog,85,FATHER,HF,lure,-,-,-,liberal,no,m,1,1.25027128844,1,640
2019_Oct_30,26,001,4,recog,86,NOMAD,LF,target,right,aqua,imageability,conservative,no,z,1,0.866879860279,1,641
2019_Oct_30,26,001,4,recog,87,UNLESS,HF,lure,-,-,-,liberal,no,m,1,2.73342904194,1,642
2019_Oct_30,26,001,4,recog,88,ADVERSELY,LF,lure,-,-,-,liberal,no,m,1,1.21697833065,1,643
2019_Oct_30,26,001,4,recog,89,DWARFED,LF,lure,-,-,-,liberal,no,z,0,1.05028881221,-1,642
2019_Oct_30,26,001,4,recog,90,BROUGHT,HF,target,right,aqua,imageability,liberal,no,m,0,2.15016181989,-3,639
2019_Oct_30,26,001,4,recog,91,MIDDLE,HF,target,left,yellow,pleasantness,liberal,no,m,0,1.46688264648,-3,636
2019_Oct_30,26,001,4,recog,92,JAUNDICE,LF,lure,-,-,-,liberal,no,m,1,1.10028140677,1,637
2019_Oct_30,26,001,4,recog,93,CLEAR,HF,lure,-,-,-,conservative,no,z,0,2.11691358803,-3,634
2019_Oct_30,26,001,4,recog,94,LONGER,HF,lure,-,-,-,conservative,no,m,1,0.883561899958,3,637
2019_Oct_30,26,001,4,recog,95,AGILITY,LF,lure,-,-,-,conservative,no,z,0,0.850295704404,-3,634
