date,subj,session,cycle,task,trial,item,wf,type,source,colour,encoding,bias,null,response,corr,rt,points,total
2019_Nov_01,27,001,0,source,0,OXIDE,LF,target,right,yellow,pleasantness,conservative,no,8,1,3.11660093397,-,-
2019_Nov_01,27,001,0,source,1,SOLEMNITY,LF,target,right,yellow,pleasantness,conservative,no,9,1,1.91662725638,-,-
2019_Nov_01,27,001,0,source,2,SANDAL,LF,target,left,aqua,imageability,conservative,no,1,1,2.31686276494,-,-
2019_Nov_01,27,001,0,source,3,FAILINGS,LF,target,left,aqua,imageability,liberal,no,8,0,2.23335547642,-,-
2019_Nov_01,27,001,0,source,4,DIDACTIC,LF,target,right,yellow,pleasantness,conservative,no,9,1,2.81694158552,-,-
2019_Nov_01,27,001,0,source,5,OBVIOUSLY,HF,target,left,aqua,imageability,conservative,no,2,1,2.51663187563,-,-
2019_Nov_01,27,001,0,source,6,TOTAL,HF,target,right,yellow,pleasantness,conservative,yes,2,0,1.08361470447,-,-
2019_Nov_01,27,001,0,source,7,INSIDE,HF,target,right,yellow,pleasantness,conservative,no,9,1,1.46664716316,-,-
2019_Nov_01,27,001,0,source,8,STUDENT,HF,target,right,yellow,pleasantness,conservative,no,9,1,2.81689979228,-,-
2019_Nov_01,27,001,0,source,9,VAULTED,LF,target,right,yellow,pleasantness,liberal,yes,8,1,0.916697644988,-,-
2019_Nov_01,27,001,0,source,10,OPULENCE,LF,target,left,aqua,imageability,liberal,no,7,0,2.83346494537,-,-
2019_Nov_01,27,001,0,source,11,FLECKED,LF,target,right,yellow,pleasantness,liberal,no,7,1,1.3502364984,-,-
2019_Nov_01,27,001,0,source,12,ANIMAL,HF,target,right,yellow,pleasantness,liberal,no,1,0,1.78338528159,-,-
2019_Nov_01,27,001,0,source,13,LAPELS,LF,target,left,aqua,imageability,conservative,no,1,1,1.28366207014,-,-
2019_Nov_01,27,001,0,source,14,AEGIS,LF,target,right,yellow,pleasantness,liberal,no,9,1,1.35020313713,-,-
2019_Nov_01,27,001,0,source,15,FIELD,HF,target,right,yellow,pleasantness,conservative,no,9,1,1.06692527149,-,-
2019_Nov_01,27,001,0,source,16,OTHERS,HF,target,right,yellow,pleasantness,liberal,no,8,1,1.71689773928,-,-
2019_Nov_01,27,001,0,source,17,SYSTEM,HF,target,right,yellow,pleasantness,liberal,no,9,1,1.71695786288,-,-
2019_Nov_01,27,001,0,source,18,PROBABLY,HF,target,left,aqua,imageability,conservative,no,2,1,2.40018931604,-,-
2019_Nov_01,27,001,0,source,19,FOUND,HF,target,right,yellow,pleasantness,conservative,no,7,1,2.0836059059,-,-
2019_Nov_01,27,001,0,source,20,DUGOUTS,LF,target,left,aqua,imageability,conservative,no,1,1,0.933374246714,-,-
2019_Nov_01,27,001,0,source,21,AEROSOL,LF,target,left,aqua,imageability,liberal,no,1,1,0.783636041022,-,-
2019_Nov_01,27,001,0,source,22,ELUDE,LF,target,left,aqua,imageability,liberal,no,2,1,2.03363219164,-,-
2019_Nov_01,27,001,0,source,23,STRAIGHT,HF,target,left,aqua,imageability,liberal,no,1,1,1.18331613945,-,-
2019_Nov_01,27,001,0,source,24,UNLESS,HF,target,right,yellow,pleasantness,liberal,no,7,1,2.05016251704,-,-
2019_Nov_01,27,001,0,source,25,GUILDHALL,LF,target,left,aqua,imageability,conservative,no,1,1,0.950262747488,-,-
2019_Nov_01,27,001,0,source,26,RUFFLES,LF,target,right,yellow,pleasantness,conservative,no,9,1,1.2669645718,-,-
2019_Nov_01,27,001,0,source,27,DOGMAS,LF,target,right,yellow,pleasantness,conservative,no,9,1,1.10035729552,-,-
2019_Nov_01,27,001,0,source,28,HEMMED,LF,target,left,aqua,imageability,liberal,no,1,1,0.883645792777,-,-
2019_Nov_01,27,001,0,source,29,LEFTISTS,LF,target,left,aqua,imageability,conservative,no,1,1,1.66696398523,-,-
2019_Nov_01,27,001,0,source,30,ADULATION,LF,target,right,yellow,pleasantness,liberal,no,9,1,1.51684670754,-,-
2019_Nov_01,27,001,0,source,31,DEVELOPED,HF,target,left,aqua,imageability,conservative,no,7,0,1.6169565431,-,-
2019_Nov_01,27,001,0,source,32,WIPERS,LF,target,left,aqua,imageability,conservative,no,3,1,1.36665207569,-,-
2019_Nov_01,27,001,0,source,33,SPOKE,HF,target,right,yellow,pleasantness,liberal,no,9,1,0.966928350993,-,-
2019_Nov_01,27,001,0,source,34,NECESSARY,HF,target,right,yellow,pleasantness,conservative,no,9,1,1.16669636186,-,-
2019_Nov_01,27,001,0,source,35,WHETHER,HF,target,left,aqua,imageability,liberal,yes,9,0,1.09999655389,-,-
2019_Nov_01,27,001,0,source,36,BEFALL,LF,target,right,yellow,pleasantness,liberal,no,2,0,2.31686716423,-,-
2019_Nov_01,27,001,0,source,37,FITFUL,LF,target,right,yellow,pleasantness,liberal,no,3,0,1.81671832164,-,-
2019_Nov_01,27,001,0,source,38,OFTEN,HF,target,left,aqua,imageability,conservative,no,1,1,2.28326613421,-,-
2019_Nov_01,27,001,0,source,39,ALMOST,HF,target,left,aqua,imageability,liberal,no,7,0,1.63360344963,-,-
2019_Nov_01,27,001,0,source,40,GLASS,HF,target,left,aqua,imageability,liberal,no,1,1,1.26669254915,-,-
2019_Nov_01,27,001,0,source,41,EFFECT,HF,target,left,aqua,imageability,conservative,yes,1,1,0.833602789735,-,-
2019_Nov_01,27,001,0,source,42,EITHER,HF,target,left,aqua,imageability,liberal,no,3,1,2.36695342694,-,-
2019_Nov_01,27,001,0,source,43,BIGNESS,LF,target,right,yellow,pleasantness,conservative,no,1,0,1.05030769355,-,-
2019_Nov_01,27,001,0,source,44,OBTAINS,LF,target,left,aqua,imageability,liberal,no,8,0,3.21660005411,-,-
2019_Nov_01,27,001,0,source,45,ECONOMIC,HF,target,left,aqua,imageability,liberal,no,1,1,0.950257248377,-,-
2019_Nov_01,27,001,0,source,46,USING,HF,target,right,yellow,pleasantness,liberal,no,7,1,1.16691815931,-,-
2019_Nov_01,27,001,0,source,47,FURTHER,HF,target,left,aqua,imageability,conservative,no,7,0,2.76691874588,-,-
2019_Nov_01,27,001,0,recog,0,OTHERS,HF,target,right,yellow,pleasantness,liberal,no,z,1,1.4001574212,3,3
2019_Nov_01,27,001,0,recog,1,INSIDE,HF,target,right,yellow,pleasantness,conservative,no,z,1,1.08361397126,1,4
2019_Nov_01,27,001,0,recog,2,OBTAINS,LF,target,left,aqua,imageability,liberal,no,z,1,1.56694836775,3,7
2019_Nov_01,27,001,0,recog,3,BIGNESS,LF,target,right,yellow,pleasantness,conservative,no,z,1,1.23355747707,1,8
2019_Nov_01,27,001,0,recog,4,DUGOUTS,LF,target,left,aqua,imageability,conservative,no,z,1,0.633503365822,1,9
2019_Nov_01,27,001,0,recog,5,QUOTAS,LF,lure,-,-,-,liberal,no,m,1,0.767027261656,1,10
2019_Nov_01,27,001,0,recog,6,TOKENS,LF,lure,-,-,-,conservative,no,m,1,0.983316432735,3,13
2019_Nov_01,27,001,0,recog,7,HOTEL,HF,lure,-,-,-,liberal,no,m,1,0.650229826147,1,14
2019_Nov_01,27,001,0,recog,8,GUILDHALL,LF,target,left,aqua,imageability,conservative,no,z,1,2.11693271362,1,15
2019_Nov_01,27,001,0,recog,9,CEASELESS,LF,lure,-,-,-,liberal,no,m,1,2.4333038581,1,16
2019_Nov_01,27,001,0,recog,10,HEMMED,LF,target,left,aqua,imageability,liberal,no,z,1,1.35020533678,3,19
2019_Nov_01,27,001,0,recog,11,ECONOMIC,HF,target,left,aqua,imageability,liberal,no,z,1,0.70031572225,3,22
2019_Nov_01,27,001,0,recog,12,OBVIOUSLY,HF,target,left,aqua,imageability,conservative,no,z,1,2.25014645964,1,23
2019_Nov_01,27,001,0,recog,13,TAUNTED,LF,lure,-,-,-,conservative,no,m,1,4.30012750604,3,26
2019_Nov_01,27,001,0,recog,14,HANDS,HF,lure,-,-,-,liberal,no,m,1,1.88360583258,1,27
2019_Nov_01,27,001,0,recog,15,UNDER,HF,lure,-,-,-,conservative,no,m,1,2.73328142173,3,30
2019_Nov_01,27,001,0,recog,16,OPULENCE,LF,target,left,aqua,imageability,liberal,no,m,0,2.63341061416,-3,27
2019_Nov_01,27,001,0,recog,17,EFFECT,HF,target,left,aqua,imageability,conservative,no,m,0,4.7332399951,-1,26
2019_Nov_01,27,001,0,recog,18,BANALITY,LF,lure,-,-,-,liberal,no,m,1,2.30021475859,1,27
2019_Nov_01,27,001,0,recog,19,APPEARED,HF,lure,-,-,-,liberal,no,z,0,2.28359644743,-1,26
2019_Nov_01,27,001,0,recog,20,OFTEN,HF,target,left,aqua,imageability,conservative,no,z,1,1.83357566079,1,27
2019_Nov_01,27,001,0,recog,21,TOTAL,HF,target,right,yellow,pleasantness,conservative,no,m,0,1.75016845608,-1,26
2019_Nov_01,27,001,0,recog,22,ANIMAL,HF,target,right,yellow,pleasantness,liberal,no,z,1,0.833637984041,3,29
2019_Nov_01,27,001,0,recog,23,LEFTISTS,LF,target,left,aqua,imageability,conservative,no,z,1,1.25023847808,1,30
2019_Nov_01,27,001,0,recog,24,ELUDE,LF,target,left,aqua,imageability,liberal,no,z,1,1.23362603264,3,33
2019_Nov_01,27,001,0,recog,25,VORACIOUS,LF,lure,-,-,-,conservative,no,m,1,1.95023195247,3,36
2019_Nov_01,27,001,0,recog,26,UNLESS,HF,target,right,yellow,pleasantness,liberal,no,m,0,4.73346839148,-3,33
2019_Nov_01,27,001,0,recog,27,GASEOUS,LF,lure,-,-,-,conservative,no,m,1,1.35024273073,3,36
2019_Nov_01,27,001,0,recog,28,LAPELS,LF,target,left,aqua,imageability,conservative,no,z,1,1.44993756677,1,37
2019_Nov_01,27,001,0,recog,29,EITHER,HF,target,left,aqua,imageability,liberal,no,m,0,2.41691174368,-3,34
2019_Nov_01,27,001,0,recog,30,DOGMAS,LF,target,right,yellow,pleasantness,conservative,no,z,1,0.63360601588,1,35
2019_Nov_01,27,001,0,recog,31,ALMOST,HF,target,left,aqua,imageability,liberal,no,z,1,2.18352877171,3,38
2019_Nov_01,27,001,0,recog,32,ORCHARDS,LF,lure,-,-,-,liberal,no,m,1,0.866935463175,1,39
2019_Nov_01,27,001,0,recog,33,BETTER,HF,lure,-,-,-,conservative,no,m,1,1.56691427327,3,42
2019_Nov_01,27,001,0,recog,34,PASSED,HF,lure,-,-,-,liberal,no,m,1,0.750324264201,1,43
2019_Nov_01,27,001,0,recog,35,FITFUL,LF,target,right,yellow,pleasantness,liberal,no,m,0,4.15005458783,-3,40
2019_Nov_01,27,001,0,recog,36,SUNBURN,LF,lure,-,-,-,liberal,no,m,1,1.38365605778,1,41
2019_Nov_01,27,001,0,recog,37,ADULATION,LF,target,right,yellow,pleasantness,liberal,no,z,1,1.20026183097,3,44
2019_Nov_01,27,001,0,recog,38,SCHOOL,HF,lure,-,-,-,conservative,no,m,1,1.50032188125,3,47
2019_Nov_01,27,001,0,recog,39,SOLEMNITY,LF,target,right,yellow,pleasantness,conservative,no,z,1,0.73354867849,1,48
2019_Nov_01,27,001,0,recog,40,WIPERS,LF,target,left,aqua,imageability,conservative,no,z,1,1.03337519989,1,49
2019_Nov_01,27,001,0,recog,41,WAXEN,LF,lure,-,-,-,liberal,no,m,1,0.683339968926,1,50
2019_Nov_01,27,001,0,recog,42,SYSTEM,HF,target,right,yellow,pleasantness,liberal,no,z,1,1.01690756436,3,53
2019_Nov_01,27,001,0,recog,43,SERIOUS,HF,lure,-,-,-,conservative,yes,z,0,0.683378829305,-3,50
2019_Nov_01,27,001,0,recog,44,FOUND,HF,target,right,yellow,pleasantness,conservative,no,z,1,1.00032078143,1,51
2019_Nov_01,27,001,0,recog,45,AEROSOL,LF,target,left,aqua,imageability,liberal,no,z,1,0.733378939288,3,54
2019_Nov_01,27,001,0,recog,46,FURTHER,HF,target,left,aqua,imageability,conservative,no,m,0,1.25023554522,-1,53
2019_Nov_01,27,001,0,recog,47,IMPORTANT,HF,lure,-,-,-,liberal,no,m,1,0.800263150756,1,54
2019_Nov_01,27,001,0,recog,48,SAINTLY,LF,lure,-,-,-,liberal,no,m,1,1.23356004332,1,55
2019_Nov_01,27,001,0,recog,49,ETHER,LF,lure,-,-,-,liberal,no,z,0,0.900315062356,-1,54
2019_Nov_01,27,001,0,recog,50,DIDACTIC,LF,target,right,yellow,pleasantness,conservative,no,z,1,1.38367548797,1,55
2019_Nov_01,27,001,0,recog,51,FLECKED,LF,target,right,yellow,pleasantness,liberal,no,z,1,0.916943638519,3,58
2019_Nov_01,27,001,0,recog,52,ASPIRED,LF,lure,-,-,-,conservative,no,m,1,1.88359886704,3,61
2019_Nov_01,27,001,0,recog,53,WATCH,HF,lure,-,-,-,conservative,no,m,1,0.800299811491,3,64
2019_Nov_01,27,001,0,recog,54,OUGHT,HF,lure,-,-,-,liberal,no,m,1,1.11694994417,1,65
2019_Nov_01,27,001,0,recog,55,ALLOWED,HF,lure,-,-,-,liberal,yes,z,0,1.20000850529,-1,64
2019_Nov_01,27,001,0,recog,56,NORTH,HF,lure,-,-,-,liberal,no,m,1,2.00027165605,1,65
2019_Nov_01,27,001,0,recog,57,WHETHER,HF,target,left,aqua,imageability,liberal,no,z,1,0.866946461396,3,68
2019_Nov_01,27,001,0,recog,58,RESEARCH,HF,lure,-,-,-,conservative,yes,m,1,1.08357474427,3,71
2019_Nov_01,27,001,0,recog,59,VAULTED,LF,target,right,yellow,pleasantness,liberal,no,z,1,1.45033130306,3,74
2019_Nov_01,27,001,0,recog,60,COHESIVE,LF,lure,-,-,-,liberal,no,m,1,1.03366811916,1,75
2019_Nov_01,27,001,0,recog,61,SHALL,HF,lure,-,-,-,conservative,no,m,1,2.79995520058,3,78
2019_Nov_01,27,001,0,recog,62,PROBABLY,HF,target,left,aqua,imageability,conservative,no,z,1,2.48362364969,1,79
2019_Nov_01,27,001,0,recog,63,HAVING,HF,lure,-,-,-,liberal,no,m,1,1.53359406448,1,80
2019_Nov_01,27,001,0,recog,64,STRAIGHT,HF,target,left,aqua,imageability,liberal,no,z,1,1.33368234353,3,83
2019_Nov_01,27,001,0,recog,65,KINDEST,LF,lure,-,-,-,conservative,no,z,0,1.18352913832,-3,80
2019_Nov_01,27,001,0,recog,66,SENSE,HF,lure,-,-,-,conservative,no,m,1,2.79995373415,3,83
2019_Nov_01,27,001,0,recog,67,DIVAN,LF,lure,-,-,-,conservative,no,m,1,1.08337787613,3,86
2019_Nov_01,27,001,0,recog,68,WREATH,LF,lure,-,-,-,conservative,no,z,0,1.41691504315,-3,83
2019_Nov_01,27,001,0,recog,69,USING,HF,target,right,yellow,pleasantness,liberal,no,m,0,1.56691500649,-3,80
2019_Nov_01,27,001,0,recog,70,FAILINGS,LF,target,left,aqua,imageability,liberal,no,z,1,1.33351956987,3,83
2019_Nov_01,27,001,0,recog,71,SPOKE,HF,target,right,yellow,pleasantness,liberal,no,z,1,0.816989611081,3,86
2019_Nov_01,27,001,0,recog,72,MAILBOX,LF,lure,-,-,-,conservative,no,m,1,2.15019829792,3,89
2019_Nov_01,27,001,0,recog,73,BEFALL,LF,target,right,yellow,pleasantness,liberal,no,m,0,1.11671164939,-3,86
2019_Nov_01,27,001,0,recog,74,STUDENT,HF,target,right,yellow,pleasantness,conservative,no,z,1,0.900354289343,1,87
2019_Nov_01,27,001,0,recog,75,EMULATION,LF,lure,-,-,-,conservative,no,m,1,1.9002824343,3,90
2019_Nov_01,27,001,0,recog,76,PURCHASER,LF,lure,-,-,-,liberal,no,m,1,1.25024251076,1,91
2019_Nov_01,27,001,0,recog,77,LEARN,HF,lure,-,-,-,liberal,no,z,0,1.81667066269,-1,90
2019_Nov_01,27,001,0,recog,78,PULSAR,LF,lure,-,-,-,conservative,no,m,1,1.61691401665,3,93
2019_Nov_01,27,001,0,recog,79,BOMBARDED,LF,lure,-,-,-,liberal,no,m,1,1.03356436928,1,94
2019_Nov_01,27,001,0,recog,80,CONCERNED,HF,lure,-,-,-,conservative,no,m,1,1.03367325167,3,97
2019_Nov_01,27,001,0,recog,81,INTEREST,HF,lure,-,-,-,liberal,no,z,0,1.83354816524,-1,96
2019_Nov_01,27,001,0,recog,82,CAUGHT,HF,lure,-,-,-,conservative,no,m,1,0.900295998774,3,99
2019_Nov_01,27,001,0,recog,83,FRONT,HF,lure,-,-,-,conservative,no,m,1,1.58355751373,3,102
2019_Nov_01,27,001,0,recog,84,ERADICATE,LF,lure,-,-,-,liberal,no,m,1,1.65020489685,1,103
2019_Nov_01,27,001,0,recog,85,WRITE,HF,lure,-,-,-,conservative,no,m,1,1.25026047452,3,106
2019_Nov_01,27,001,0,recog,86,SPICED,LF,lure,-,-,-,conservative,no,m,1,0.766996466638,3,109
2019_Nov_01,27,001,0,recog,87,GLASS,HF,target,left,aqua,imageability,liberal,no,z,1,0.650058987123,3,112
2019_Nov_01,27,001,0,recog,88,BECAME,HF,lure,-,-,-,liberal,yes,z,0,0.800236388419,-1,111
2019_Nov_01,27,001,0,recog,89,AEGIS,LF,target,right,yellow,pleasantness,liberal,no,z,1,1.58359344125,3,114
2019_Nov_01,27,001,0,recog,90,RUFFLES,LF,target,right,yellow,pleasantness,conservative,no,z,1,1.06685671592,1,115
2019_Nov_01,27,001,0,recog,91,FIELD,HF,target,right,yellow,pleasantness,conservative,no,z,1,1.18355370101,1,116
2019_Nov_01,27,001,0,recog,92,SANDAL,LF,target,left,aqua,imageability,conservative,no,z,1,0.9502084896,1,117
2019_Nov_01,27,001,0,recog,93,OXIDE,LF,target,right,yellow,pleasantness,conservative,no,z,1,1.01686173844,1,118
2019_Nov_01,27,001,0,recog,94,NECESSARY,HF,target,right,yellow,pleasantness,conservative,no,z,1,1.64996476903,1,119
2019_Nov_01,27,001,0,recog,95,DEVELOPED,HF,target,left,aqua,imageability,conservative,no,z,1,0.950249549623,1,120
2019_Nov_01,27,001,1,source,0,REGAINING,LF,target,left,aqua,imageability,liberal,no,9,0,5.81673775183,-,-
2019_Nov_01,27,001,1,source,1,ZIGZAG,LF,target,right,yellow,pleasantness,liberal,no,1,0,3.11664602667,-,-
2019_Nov_01,27,001,1,source,2,ROCKER,LF,target,right,yellow,pleasantness,conservative,no,9,1,3.38351528056,-,-
2019_Nov_01,27,001,1,source,3,BEGAN,HF,target,left,aqua,imageability,liberal,no,8,0,2.45025761498,-,-
2019_Nov_01,27,001,1,source,4,CRICKETER,LF,target,left,aqua,imageability,conservative,no,1,1,1.11691474986,-,-
2019_Nov_01,27,001,1,source,5,DISARMED,LF,target,right,yellow,pleasantness,conservative,no,9,1,1.86687717261,-,-
2019_Nov_01,27,001,1,source,6,LAYERED,LF,target,left,aqua,imageability,liberal,no,1,1,1.40026410393,-,-
2019_Nov_01,27,001,1,source,7,TAKEN,HF,target,left,aqua,imageability,liberal,no,7,0,1.85036297794,-,-
2019_Nov_01,27,001,1,source,8,WILDFOWL,LF,target,left,aqua,imageability,conservative,no,1,1,1.01670629692,-,-
2019_Nov_01,27,001,1,source,9,NUCLEAR,HF,target,left,aqua,imageability,conservative,no,1,1,0.766990967528,-,-
2019_Nov_01,27,001,1,source,10,SALAMI,LF,target,left,aqua,imageability,liberal,no,1,1,0.916922375293,-,-
2019_Nov_01,27,001,1,source,11,VARIOUS,HF,target,left,aqua,imageability,conservative,no,3,1,1.616911817,-,-
2019_Nov_01,27,001,1,source,12,ICONS,LF,target,right,yellow,pleasantness,liberal,no,9,1,1.66694675468,-,-
2019_Nov_01,27,001,1,source,13,HITCHING,LF,target,left,aqua,imageability,liberal,no,1,1,1.78353889007,-,-
2019_Nov_01,27,001,1,source,14,RUNNING,HF,target,right,yellow,pleasantness,liberal,no,9,1,1.06692270524,-,-
2019_Nov_01,27,001,1,source,15,WELCOMES,LF,target,right,yellow,pleasantness,conservative,no,9,1,1.73362273318,-,-
2019_Nov_01,27,001,1,source,16,ECLECTIC,LF,target,right,yellow,pleasantness,conservative,yes,9,1,0.999984602491,-,-
2019_Nov_01,27,001,1,source,17,CORNER,HF,target,left,aqua,imageability,conservative,no,1,1,1.8502661936,-,-
2019_Nov_01,27,001,1,source,18,INACTION,LF,target,left,aqua,imageability,liberal,no,7,0,2.23357214136,-,-
2019_Nov_01,27,001,1,source,19,WOMAN,HF,target,right,yellow,pleasantness,conservative,yes,7,1,0.683597327285,-,-
2019_Nov_01,27,001,1,source,20,GABLE,LF,target,right,yellow,pleasantness,conservative,no,3,0,2.98354702876,-,-
2019_Nov_01,27,001,1,source,21,EIGHT,HF,target,right,yellow,pleasantness,liberal,no,9,1,0.850173441937,-,-
2019_Nov_01,27,001,1,source,22,DOUBT,HF,target,right,yellow,pleasantness,conservative,no,9,1,2.53350351246,-,-
2019_Nov_01,27,001,1,source,23,MEMBERS,HF,target,left,aqua,imageability,liberal,no,8,0,1.7002731958,-,-
2019_Nov_01,27,001,1,source,24,NIGHT,HF,target,right,yellow,pleasantness,conservative,no,9,1,0.850268393241,-,-
2019_Nov_01,27,001,1,source,25,SOUND,HF,target,left,aqua,imageability,conservative,no,7,0,1.45028401071,-,-
2019_Nov_01,27,001,1,source,26,NAGGED,LF,target,right,yellow,pleasantness,liberal,no,9,1,1.85020973606,-,-
2019_Nov_01,27,001,1,source,27,IDEAS,HF,target,right,yellow,pleasantness,conservative,no,9,1,1.23359450441,-,-
2019_Nov_01,27,001,1,source,28,NAUGHT,LF,target,left,aqua,imageability,conservative,no,7,0,2.28355245455,-,-
2019_Nov_01,27,001,1,source,29,RANGE,HF,target,right,yellow,pleasantness,liberal,yes,1,0,0.950296475364,-,-
2019_Nov_01,27,001,1,source,30,BELIEVE,HF,target,right,yellow,pleasantness,liberal,no,9,1,1.51671656193,-,-
2019_Nov_01,27,001,1,source,31,PIECE,HF,target,left,aqua,imageability,liberal,no,1,1,1.05003677072,-,-
2019_Nov_01,27,001,1,source,32,TAGGED,LF,target,left,aqua,imageability,conservative,no,3,1,1.23367772428,-,-
2019_Nov_01,27,001,1,source,33,TULIPS,LF,target,left,aqua,imageability,conservative,no,1,1,0.866921165489,-,-
2019_Nov_01,27,001,1,source,34,TALKING,HF,target,right,yellow,pleasantness,liberal,yes,1,0,0.650309013335,-,-
2019_Nov_01,27,001,1,source,35,MYSELF,HF,target,left,aqua,imageability,conservative,no,1,1,0.716715535426,-,-
2019_Nov_01,27,001,1,source,36,BARBARIAN,LF,target,left,aqua,imageability,liberal,no,1,1,0.733387004649,-,-
2019_Nov_01,27,001,1,source,37,GIVEN,HF,target,left,aqua,imageability,liberal,no,9,0,2.58351022138,-,-
2019_Nov_01,27,001,1,source,38,AWAITS,LF,target,right,yellow,pleasantness,liberal,no,3,0,1.18360245979,-,-
2019_Nov_01,27,001,1,source,39,CLASS,HF,target,left,aqua,imageability,liberal,no,2,1,1.18364718589,-,-
2019_Nov_01,27,001,1,source,40,RASCAL,LF,target,right,yellow,pleasantness,liberal,no,7,1,1.85031055309,-,-
2019_Nov_01,27,001,1,source,41,SECOND,HF,target,right,yellow,pleasantness,conservative,no,9,1,1.20031792189,-,-
2019_Nov_01,27,001,1,source,42,RIOTERS,LF,target,left,aqua,imageability,conservative,no,2,1,1.2501996177,-,-
2019_Nov_01,27,001,1,source,43,GROUND,HF,target,right,yellow,pleasantness,conservative,no,3,0,1.18354196958,-,-
2019_Nov_01,27,001,1,source,44,SIPHON,LF,target,right,yellow,pleasantness,liberal,no,1,0,1.93374342031,-,-
2019_Nov_01,27,001,1,source,45,OCHRE,LF,target,right,yellow,pleasantness,conservative,no,1,0,1.70030105796,-,-
2019_Nov_01,27,001,1,source,46,LABOUR,HF,target,right,yellow,pleasantness,liberal,no,9,1,1.79999882686,-,-
2019_Nov_01,27,001,1,source,47,USUAL,HF,target,left,aqua,imageability,conservative,no,9,0,1.00025112603,-,-
2019_Nov_01,27,001,1,recog,0,PIECE,HF,target,left,aqua,imageability,liberal,no,z,1,1.23367075874,3,123
2019_Nov_01,27,001,1,recog,1,EXACTLY,HF,lure,-,-,-,liberal,no,z,0,1.03358416608,-1,122
2019_Nov_01,27,001,1,recog,2,SYNDICATE,LF,lure,-,-,-,liberal,no,m,1,1.30002155651,1,123
2019_Nov_01,27,001,1,recog,3,FILAMENTS,LF,lure,-,-,-,liberal,no,m,1,0.916918342612,1,124
2019_Nov_01,27,001,1,recog,4,SUBJECT,HF,lure,-,-,-,liberal,no,z,0,0.850269126455,-1,123
2019_Nov_01,27,001,1,recog,5,DETACH,LF,lure,-,-,-,liberal,no,z,0,1.45005854719,-1,122
2019_Nov_01,27,001,1,recog,6,LABOUR,HF,target,right,yellow,pleasantness,liberal,no,z,1,0.733550878134,3,125
2019_Nov_01,27,001,1,recog,7,RANGE,HF,target,right,yellow,pleasantness,liberal,no,z,1,1.28362137673,3,128
2019_Nov_01,27,001,1,recog,8,PLIABLE,LF,lure,-,-,-,conservative,no,m,1,0.950309306621,3,131
2019_Nov_01,27,001,1,recog,9,WOMAN,HF,target,right,yellow,pleasantness,conservative,no,z,1,0.733594871017,1,132
2019_Nov_01,27,001,1,recog,10,RASCAL,LF,target,right,yellow,pleasantness,liberal,no,z,1,1.05024903637,3,135
2019_Nov_01,27,001,1,recog,11,SALAMI,LF,target,left,aqua,imageability,liberal,no,z,1,0.583565212482,3,138
2019_Nov_01,27,001,1,recog,12,NAUGHT,LF,target,left,aqua,imageability,conservative,yes,m,0,1.25022601343,-1,137
2019_Nov_01,27,001,1,recog,13,REGAINING,LF,target,left,aqua,imageability,liberal,no,z,1,2.10015969416,3,140
2019_Nov_01,27,001,1,recog,14,CHOICE,HF,lure,-,-,-,liberal,no,m,1,1.38357540417,1,141
2019_Nov_01,27,001,1,recog,15,BEGAN,HF,target,left,aqua,imageability,liberal,no,m,0,1.43356928182,-3,138
2019_Nov_01,27,001,1,recog,16,NEBULOUS,LF,lure,-,-,-,conservative,no,m,1,1.63361518106,3,141
2019_Nov_01,27,001,1,recog,17,RUNNING,HF,target,right,yellow,pleasantness,liberal,no,z,1,0.800315208999,3,144
2019_Nov_01,27,001,1,recog,18,NIGHT,HF,target,right,yellow,pleasantness,conservative,no,z,1,1.00029475231,1,145
2019_Nov_01,27,001,1,recog,19,TRADE,HF,lure,-,-,-,liberal,no,m,1,2.31690272514,1,146
2019_Nov_01,27,001,1,recog,20,CRICKETER,LF,target,left,aqua,imageability,conservative,no,z,1,1.61697084078,1,147
2019_Nov_01,27,001,1,recog,21,LUNACY,LF,lure,-,-,-,liberal,no,m,1,2.1835280385,1,148
2019_Nov_01,27,001,1,recog,22,HIGHER,HF,lure,-,-,-,conservative,no,z,0,1.16692512485,-3,145
2019_Nov_01,27,001,1,recog,23,HITCHING,LF,target,left,aqua,imageability,liberal,no,z,1,2.23356627564,3,148
2019_Nov_01,27,001,1,recog,24,WELCOMES,LF,target,right,yellow,pleasantness,conservative,no,m,0,2.00026505711,-1,147
2019_Nov_01,27,001,1,recog,25,FUELLED,LF,lure,-,-,-,conservative,no,m,1,1.80028661363,3,150
2019_Nov_01,27,001,1,recog,26,SIPHON,LF,target,right,yellow,pleasantness,liberal,no,z,1,0.999992301246,3,153
2019_Nov_01,27,001,1,recog,27,THRASH,LF,lure,-,-,-,conservative,no,m,1,1.53355813696,3,156
2019_Nov_01,27,001,1,recog,28,LAYERED,LF,target,left,aqua,imageability,liberal,no,z,1,1.03362046021,3,159
2019_Nov_01,27,001,1,recog,29,BELIEVE,HF,target,right,yellow,pleasantness,liberal,no,z,1,1.05037918198,3,162
2019_Nov_01,27,001,1,recog,30,SCUFFED,LF,lure,-,-,-,liberal,no,m,1,1.50022802977,1,163
2019_Nov_01,27,001,1,recog,31,GABLE,LF,target,right,yellow,pleasantness,conservative,no,m,0,2.26686925389,-1,162
2019_Nov_01,27,001,1,recog,32,NUCLEAR,HF,target,left,aqua,imageability,conservative,no,z,1,0.850354912575,1,163
2019_Nov_01,27,001,1,recog,33,SEPULCHRE,LF,lure,-,-,-,conservative,no,m,1,1.00021556512,3,166
2019_Nov_01,27,001,1,recog,34,VARIOUS,HF,target,left,aqua,imageability,conservative,no,z,1,0.900056604175,1,167
2019_Nov_01,27,001,1,recog,35,MITIGATE,LF,lure,-,-,-,conservative,no,m,1,1.06673903496,3,170
2019_Nov_01,27,001,1,recog,36,HOIST,LF,lure,-,-,-,conservative,no,m,1,0.916935206551,3,173
2019_Nov_01,27,001,1,recog,37,SUING,LF,lure,-,-,-,liberal,no,m,1,1.20020390701,1,174
2019_Nov_01,27,001,1,recog,38,ZIGZAG,LF,target,right,yellow,pleasantness,liberal,no,z,1,0.633621046781,3,177
2019_Nov_01,27,001,1,recog,39,AGGRAVATE,LF,lure,-,-,-,liberal,no,m,1,0.95025688177,1,178
2019_Nov_01,27,001,1,recog,40,AWAITS,LF,target,right,yellow,pleasantness,liberal,no,m,0,1.9835789236,-3,175
2019_Nov_01,27,001,1,recog,41,HOWEVER,HF,lure,-,-,-,conservative,yes,m,1,1.5166850337,3,178
2019_Nov_01,27,001,1,recog,42,IDEAS,HF,target,right,yellow,pleasantness,conservative,no,z,1,2.30015903427,1,179
2019_Nov_01,27,001,1,recog,43,TAKEN,HF,target,left,aqua,imageability,liberal,no,z,1,0.83365191512,3,182
2019_Nov_01,27,001,1,recog,44,AFRAID,HF,lure,-,-,-,conservative,no,m,1,0.700316455464,3,185
2019_Nov_01,27,001,1,recog,45,HEALTH,HF,lure,-,-,-,conservative,no,m,1,0.783566385625,3,188
2019_Nov_01,27,001,1,recog,46,ADENOIDS,LF,lure,-,-,-,liberal,no,m,1,1.35024089769,1,189
2019_Nov_01,27,001,1,recog,47,UNABATED,LF,lure,-,-,-,liberal,no,m,1,1.58356777873,1,190
2019_Nov_01,27,001,1,recog,48,TAGGED,LF,target,left,aqua,imageability,conservative,no,z,1,0.716929634119,1,191
2019_Nov_01,27,001,1,recog,49,DOUBT,HF,target,right,yellow,pleasantness,conservative,no,z,1,2.00031161625,1,192
2019_Nov_01,27,001,1,recog,50,ICONS,LF,target,right,yellow,pleasantness,liberal,no,z,1,0.750311799551,3,195
2019_Nov_01,27,001,1,recog,51,ACCORDING,HF,lure,-,-,-,liberal,no,m,1,0.833591424907,1,196
2019_Nov_01,27,001,1,recog,52,SECOND,HF,target,right,yellow,pleasantness,conservative,no,z,1,1.7001984079,1,197
2019_Nov_01,27,001,1,recog,53,ASKED,HF,lure,-,-,-,liberal,no,m,1,0.95026238088,1,198
2019_Nov_01,27,001,1,recog,54,TULIPS,LF,target,left,aqua,imageability,conservative,no,z,1,0.633558356925,1,199
2019_Nov_01,27,001,1,recog,55,TALKING,HF,target,right,yellow,pleasantness,liberal,no,z,1,0.783650338708,3,202
2019_Nov_01,27,001,1,recog,56,PRACTICE,HF,lure,-,-,-,conservative,no,m,1,1.00030355089,3,205
2019_Nov_01,27,001,1,recog,57,ECLECTIC,LF,target,right,yellow,pleasantness,conservative,no,z,1,1.80046441819,1,206
2019_Nov_01,27,001,1,recog,58,EIGHT,HF,target,right,yellow,pleasantness,liberal,no,z,1,0.716995256834,3,209
2019_Nov_01,27,001,1,recog,59,ROCKER,LF,target,right,yellow,pleasantness,conservative,no,z,1,0.80034967009,1,210
2019_Nov_01,27,001,1,recog,60,NUANCE,LF,lure,-,-,-,liberal,no,m,1,1.13358328622,1,211
2019_Nov_01,27,001,1,recog,61,OBNOXIOUS,LF,lure,-,-,-,conservative,yes,m,1,1.03365822077,3,214
2019_Nov_01,27,001,1,recog,62,DISARMED,LF,target,right,yellow,pleasantness,conservative,no,z,1,0.916944005127,1,215
2019_Nov_01,27,001,1,recog,63,GIVEN,HF,target,left,aqua,imageability,liberal,no,z,1,1.63351326422,3,218
2019_Nov_01,27,001,1,recog,64,DRINK,HF,lure,-,-,-,liberal,no,m,1,0.766899315691,1,219
2019_Nov_01,27,001,1,recog,65,SHORT,HF,lure,-,-,-,liberal,no,m,1,1.050290463,1,220
2019_Nov_01,27,001,1,recog,66,SOUND,HF,target,left,aqua,imageability,conservative,no,z,1,1.50021629834,1,221
2019_Nov_01,27,001,1,recog,67,ENERGY,HF,lure,-,-,-,conservative,no,m,1,1.0336501554,3,224
2019_Nov_01,27,001,1,recog,68,OLDER,HF,lure,-,-,-,conservative,no,m,1,2.2002581649,3,227
2019_Nov_01,27,001,1,recog,69,LATER,HF,lure,-,-,-,conservative,no,m,1,0.650229092933,3,230
2019_Nov_01,27,001,1,recog,70,RIOTERS,LF,target,left,aqua,imageability,conservative,no,z,1,0.750235178615,1,231
2019_Nov_01,27,001,1,recog,71,CLASS,HF,target,left,aqua,imageability,liberal,no,z,1,1.55001624071,3,234
2019_Nov_01,27,001,1,recog,72,USHERS,LF,lure,-,-,-,conservative,no,m,1,0.750383287984,3,237
2019_Nov_01,27,001,1,recog,73,COUNCIL,HF,lure,-,-,-,liberal,no,m,1,0.667001745785,1,238
2019_Nov_01,27,001,1,recog,74,OCHRE,LF,target,right,yellow,pleasantness,conservative,no,z,1,0.850229899469,1,239
2019_Nov_01,27,001,1,recog,75,NATIONAL,HF,lure,-,-,-,liberal,no,m,1,1.65019499845,1,240
2019_Nov_01,27,001,1,recog,76,BOUGH,LF,lure,-,-,-,liberal,no,m,1,1.3835673388,1,241
2019_Nov_01,27,001,1,recog,77,QUICKLY,HF,lure,-,-,-,conservative,no,m,1,1.10019195561,3,244
2019_Nov_01,27,001,1,recog,78,POUNDS,HF,lure,-,-,-,liberal,no,m,1,2.23352448241,1,245
2019_Nov_01,27,001,1,recog,79,GROUND,HF,target,right,yellow,pleasantness,conservative,no,m,0,1.95030234108,-1,244
2019_Nov_01,27,001,1,recog,80,BLOOD,HF,lure,-,-,-,conservative,no,m,1,1.61693491326,3,247
2019_Nov_01,27,001,1,recog,81,CALLED,HF,lure,-,-,-,conservative,no,z,0,0.950207756385,-3,244
2019_Nov_01,27,001,1,recog,82,MESSED,LF,lure,-,-,-,liberal,no,z,0,1.2002237038,-1,243
2019_Nov_01,27,001,1,recog,83,INACTION,LF,target,left,aqua,imageability,liberal,no,m,0,0.916989464438,-3,240
2019_Nov_01,27,001,1,recog,84,MYSELF,HF,target,left,aqua,imageability,conservative,no,z,1,0.766990600921,1,241
2019_Nov_01,27,001,1,recog,85,NAGGED,LF,target,right,yellow,pleasantness,liberal,no,z,1,1.0169896844,3,244
2019_Nov_01,27,001,1,recog,86,CORNER,HF,target,left,aqua,imageability,conservative,no,z,1,0.883642859919,1,245
2019_Nov_01,27,001,1,recog,87,AIDING,LF,lure,-,-,-,conservative,no,m,1,0.800323274361,3,248
2019_Nov_01,27,001,1,recog,88,MILES,HF,lure,-,-,-,liberal,no,m,1,1.26698033591,1,249
2019_Nov_01,27,001,1,recog,89,WILDFOWL,LF,target,left,aqua,imageability,conservative,no,z,1,0.700262930791,1,250
2019_Nov_01,27,001,1,recog,90,FLUFF,LF,lure,-,-,-,conservative,no,m,1,1.31696614821,3,253
2019_Nov_01,27,001,1,recog,91,USUAL,HF,target,left,aqua,imageability,conservative,no,z,1,1.083590875,1,254
2019_Nov_01,27,001,1,recog,92,MEMBERS,HF,target,left,aqua,imageability,liberal,no,z,1,1.08359014178,3,257
2019_Nov_01,27,001,1,recog,93,SLEEP,HF,lure,-,-,-,conservative,yes,m,1,1.03368938239,3,260
2019_Nov_01,27,001,1,recog,94,BARBARIAN,LF,target,left,aqua,imageability,liberal,no,z,1,0.767025428619,3,263
2019_Nov_01,27,001,1,recog,95,SCYTHE,LF,lure,-,-,-,conservative,no,m,1,1.66667473203,3,266
2019_Nov_01,27,001,2,source,0,POLICE,HF,target,right,yellow,pleasantness,liberal,no,1,0,2.26659833106,-,-
2019_Nov_01,27,001,2,source,1,ENROLMENT,LF,target,right,yellow,pleasantness,liberal,no,9,1,1.55024720334,-,-
2019_Nov_01,27,001,2,source,2,SLUGS,LF,target,right,yellow,pleasantness,liberal,no,9,1,0.966672092456,-,-
2019_Nov_01,27,001,2,source,3,MATERIAL,HF,target,right,yellow,pleasantness,conservative,yes,9,1,1.75028393739,-,-
2019_Nov_01,27,001,2,source,4,FREEDOM,HF,target,left,aqua,imageability,liberal,yes,9,0,0.50033471251,-,-
2019_Nov_01,27,001,2,source,5,SITTING,HF,target,left,aqua,imageability,conservative,no,1,1,2.16664650326,-,-
2019_Nov_01,27,001,2,source,6,PIZZA,LF,target,left,aqua,imageability,conservative,no,1,1,0.933614374527,-,-
2019_Nov_01,27,001,2,source,7,CAPITAL,HF,target,right,yellow,pleasantness,liberal,no,1,0,1.71689040713,-,-
2019_Nov_01,27,001,2,source,8,HUSBAND,HF,target,right,yellow,pleasantness,conservative,no,9,1,1.08358354285,-,-
2019_Nov_01,27,001,2,source,9,REUNITED,LF,target,left,aqua,imageability,liberal,no,9,0,2.81676561399,-,-
2019_Nov_01,27,001,2,source,10,ANAEMIC,LF,target,left,aqua,imageability,conservative,no,1,1,1.48356242627,-,-
2019_Nov_01,27,001,2,source,11,TOGETHER,HF,target,right,yellow,pleasantness,conservative,no,1,0,1.5502505028,-,-
2019_Nov_01,27,001,2,source,12,HOURS,HF,target,right,yellow,pleasantness,liberal,no,9,1,1.8501518121,-,-
2019_Nov_01,27,001,2,source,13,THEORY,HF,target,left,aqua,imageability,conservative,no,9,0,1.98353199786,-,-
2019_Nov_01,27,001,2,source,14,MIXER,LF,target,right,yellow,pleasantness,conservative,yes,9,1,0.766978136271,-,-
2019_Nov_01,27,001,2,source,15,LANGUAGE,HF,target,left,aqua,imageability,conservative,no,1,1,2.46684696416,-,-
2019_Nov_01,27,001,2,source,16,VENDETTA,LF,target,right,yellow,pleasantness,liberal,no,9,1,2.01694129223,-,-
2019_Nov_01,27,001,2,source,17,CAKED,LF,target,right,yellow,pleasantness,liberal,no,9,1,2.28363090852,-,-
2019_Nov_01,27,001,2,source,18,SLIGHTLY,HF,target,right,yellow,pleasantness,liberal,yes,9,1,0.850311286301,-,-
2019_Nov_01,27,001,2,source,19,QUALITY,HF,target,left,aqua,imageability,conservative,no,1,1,2.86685224331,-,-
2019_Nov_01,27,001,2,source,20,NEWMARKET,LF,target,left,aqua,imageability,conservative,no,1,1,1.01670299746,-,-
2019_Nov_01,27,001,2,source,21,LIGHT,HF,target,left,aqua,imageability,liberal,no,1,1,0.933584312725,-,-
2019_Nov_01,27,001,2,source,22,GERANIUMS,LF,target,right,yellow,pleasantness,conservative,no,9,1,1.06689044379,-,-
2019_Nov_01,27,001,2,source,23,RICKETS,LF,target,right,yellow,pleasantness,conservative,no,9,1,0.933659467231,-,-
2019_Nov_01,27,001,2,source,24,RUGGER,LF,target,left,aqua,imageability,liberal,no,1,1,1.53362046021,-,-
2019_Nov_01,27,001,2,source,25,LAXATIVE,LF,target,left,aqua,imageability,liberal,no,1,1,0.966806637353,-,-
2019_Nov_01,27,001,2,source,26,EDUCATION,HF,target,left,aqua,imageability,liberal,no,1,1,1.60018792293,-,-
2019_Nov_01,27,001,2,source,27,DILATED,LF,target,left,aqua,imageability,liberal,no,1,1,0.900254938751,-,-
2019_Nov_01,27,001,2,source,28,CARRIED,HF,target,left,aqua,imageability,conservative,no,1,1,1.06695716633,-,-
2019_Nov_01,27,001,2,source,29,ATROCITY,LF,target,left,aqua,imageability,liberal,no,9,0,1.1002612444,-,-
2019_Nov_01,27,001,2,source,30,BEAUTIFUL,HF,target,left,aqua,imageability,conservative,no,9,0,2.21683798228,-,-
2019_Nov_01,27,001,2,source,31,DYEING,LF,target,right,yellow,pleasantness,conservative,no,9,1,0.733705219829,-,-
2019_Nov_01,27,001,2,source,32,DIFFERENT,HF,target,left,aqua,imageability,liberal,no,1,1,1.01694275866,-,-
2019_Nov_01,27,001,2,source,33,INVOLVED,HF,target,right,yellow,pleasantness,liberal,no,9,1,2.30024335396,-,-
2019_Nov_01,27,001,2,source,34,TIMES,HF,target,right,yellow,pleasantness,conservative,no,9,1,2.46684476452,-,-
2019_Nov_01,27,001,2,source,35,CODING,LF,target,left,aqua,imageability,conservative,no,1,1,1.10029680531,-,-
2019_Nov_01,27,001,2,source,36,SEGMENTED,LF,target,right,yellow,pleasantness,conservative,no,9,1,1.14999446423,-,-
2019_Nov_01,27,001,2,source,37,CUSTODIAN,LF,target,left,aqua,imageability,conservative,no,1,1,0.916911010465,-,-
2019_Nov_01,27,001,2,source,38,KNOWLEDGE,HF,target,right,yellow,pleasantness,conservative,no,9,1,1.9999901016,-,-
2019_Nov_01,27,001,2,source,39,INCLUDING,HF,target,right,yellow,pleasantness,conservative,no,9,1,1.78351176113,-,-
2019_Nov_01,27,001,2,source,40,TERMS,HF,target,right,yellow,pleasantness,liberal,no,9,1,1.88358566917,-,-
2019_Nov_01,27,001,2,source,41,BOASTS,LF,target,right,yellow,pleasantness,conservative,no,9,1,1.03363915718,-,-
2019_Nov_01,27,001,2,source,42,ENGULF,LF,target,left,aqua,imageability,conservative,no,9,0,1.61667315562,-,-
2019_Nov_01,27,001,2,source,43,BUGGED,LF,target,left,aqua,imageability,liberal,no,1,1,1.60032173461,-,-
2019_Nov_01,27,001,2,source,44,GNOMES,LF,target,right,yellow,pleasantness,liberal,no,9,1,0.950313705909,-,-
2019_Nov_01,27,001,2,source,45,SURER,LF,target,right,yellow,pleasantness,liberal,no,9,1,1.3833675378,-,-
2019_Nov_01,27,001,2,source,46,EARLIER,HF,target,left,aqua,imageability,liberal,no,1,1,2.93359641077,-,-
2019_Nov_01,27,001,2,source,47,LEVEL,HF,target,left,aqua,imageability,liberal,no,1,1,2.1502525558,-,-
2019_Nov_01,27,001,2,recog,0,INCLUDING,HF,target,right,yellow,pleasantness,conservative,no,z,1,1.06693626971,1,267
2019_Nov_01,27,001,2,recog,1,WITHIN,HF,lure,-,-,-,liberal,yes,z,0,0.70031425582,-1,266
2019_Nov_01,27,001,2,recog,2,MANDARIN,LF,lure,-,-,-,conservative,no,m,1,1.16687746589,3,269
2019_Nov_01,27,001,2,recog,3,BOASTS,LF,target,right,yellow,pleasantness,conservative,no,z,1,1.00025809157,1,270
2019_Nov_01,27,001,2,recog,4,SITTING,HF,target,left,aqua,imageability,conservative,no,z,1,0.883603632932,1,271
2019_Nov_01,27,001,2,recog,5,FINAL,HF,lure,-,-,-,conservative,no,m,1,0.916912110287,3,274
2019_Nov_01,27,001,2,recog,6,MATERIAL,HF,target,right,yellow,pleasantness,conservative,no,m,0,0.916962702102,-1,273
2019_Nov_01,27,001,2,recog,7,HUSBAND,HF,target,right,yellow,pleasantness,conservative,no,z,1,0.883375236554,1,274
2019_Nov_01,27,001,2,recog,8,CARRIED,HF,target,left,aqua,imageability,conservative,no,z,1,1.16690239519,1,275
2019_Nov_01,27,001,2,recog,9,DILATED,LF,target,left,aqua,imageability,liberal,no,z,1,0.75035065993,3,278
2019_Nov_01,27,001,2,recog,10,ACTION,HF,lure,-,-,-,conservative,no,m,1,0.833552197921,3,281
2019_Nov_01,27,001,2,recog,11,ENOUGH,HF,lure,-,-,-,conservative,no,m,1,1.26689601622,3,284
2019_Nov_01,27,001,2,recog,12,RUGGER,LF,target,left,aqua,imageability,liberal,no,z,1,0.96694668136,3,287
2019_Nov_01,27,001,2,recog,13,ULCER,LF,lure,-,-,-,liberal,no,m,1,0.883646892599,1,288
2019_Nov_01,27,001,2,recog,14,SAVOURED,LF,lure,-,-,-,liberal,no,m,1,1.41698176568,1,289
2019_Nov_01,27,001,2,recog,15,QUALITY,HF,target,left,aqua,imageability,conservative,no,z,1,1.08363010198,1,290
2019_Nov_01,27,001,2,recog,16,TERMS,HF,target,right,yellow,pleasantness,liberal,yes,z,1,0.683720873963,3,293
2019_Nov_01,27,001,2,recog,17,VENDETTA,LF,target,right,yellow,pleasantness,liberal,no,z,1,0.850244197155,3,296
2019_Nov_01,27,001,2,recog,18,CUBED,LF,lure,-,-,-,liberal,no,m,1,1.20023910131,1,297
2019_Nov_01,27,001,2,recog,19,ATROCITY,LF,target,left,aqua,imageability,liberal,no,z,1,0.933653601514,3,300
2019_Nov_01,27,001,2,recog,20,EDUCATION,HF,target,left,aqua,imageability,liberal,no,z,1,0.800271216117,3,303
2019_Nov_01,27,001,2,recog,21,MAUSOLEUM,LF,lure,-,-,-,conservative,no,m,1,1.10022348384,3,306
2019_Nov_01,27,001,2,recog,22,SLIGHTLY,HF,target,right,yellow,pleasantness,liberal,no,m,0,1.08355971337,-3,303
2019_Nov_01,27,001,2,recog,23,EYEBALL,LF,lure,-,-,-,liberal,no,m,1,1.26668961629,1,304
2019_Nov_01,27,001,2,recog,24,THEORY,HF,target,left,aqua,imageability,conservative,no,z,1,1.11693747952,1,305
2019_Nov_01,27,001,2,recog,25,SEVEN,HF,lure,-,-,-,conservative,no,m,1,1.05023143922,3,308
2019_Nov_01,27,001,2,recog,26,BUZZARD,LF,lure,-,-,-,conservative,no,m,1,1.16696471844,3,311
2019_Nov_01,27,001,2,recog,27,AUBURN,LF,lure,-,-,-,conservative,no,m,1,1.13364231001,3,314
2019_Nov_01,27,001,2,recog,28,LEVEL,HF,target,left,aqua,imageability,liberal,no,z,1,1.71691606965,3,317
2019_Nov_01,27,001,2,recog,29,LIGHT,HF,target,left,aqua,imageability,liberal,no,z,1,0.866935463175,3,320
2019_Nov_01,27,001,2,recog,30,STAFF,HF,lure,-,-,-,liberal,no,m,1,0.716932933585,1,321
2019_Nov_01,27,001,2,recog,31,NUMBER,HF,lure,-,-,-,conservative,no,m,1,1.38356477255,3,324
2019_Nov_01,27,001,2,recog,32,TADPOLES,LF,lure,-,-,-,liberal,no,m,1,1.20023103595,1,325
2019_Nov_01,27,001,2,recog,33,WHITE,HF,lure,-,-,-,liberal,no,m,1,0.850314219159,1,326
2019_Nov_01,27,001,2,recog,34,YANKED,LF,lure,-,-,-,conservative,no,m,1,0.766962005548,3,329
2019_Nov_01,27,001,2,recog,35,SURER,LF,target,right,yellow,pleasantness,liberal,no,z,1,1.03357646733,3,332
2019_Nov_01,27,001,2,recog,36,MORNING,HF,lure,-,-,-,liberal,no,m,1,1.51694532491,1,333
2019_Nov_01,27,001,2,recog,37,UPSTART,LF,lure,-,-,-,conservative,no,m,1,0.9335780804,3,336
2019_Nov_01,27,001,2,recog,38,FREEDOM,HF,target,left,aqua,imageability,liberal,no,z,1,0.950253215696,3,339
2019_Nov_01,27,001,2,recog,39,CAKED,LF,target,right,yellow,pleasantness,liberal,no,z,1,0.700000073321,3,342
2019_Nov_01,27,001,2,recog,40,POLICE,HF,target,right,yellow,pleasantness,liberal,no,z,1,0.650264287238,3,345
2019_Nov_01,27,001,2,recog,41,DEDICATE,LF,lure,-,-,-,liberal,yes,z,0,0.700350916555,-1,344
2019_Nov_01,27,001,2,recog,42,GERANIUMS,LF,target,right,yellow,pleasantness,conservative,no,m,0,1.10025317904,-1,343
2019_Nov_01,27,001,2,recog,43,NOMAD,LF,lure,-,-,-,conservative,no,m,1,1.71689407321,3,346
2019_Nov_01,27,001,2,recog,44,MIXER,LF,target,right,yellow,pleasantness,conservative,no,z,1,1.20022736988,1,347
2019_Nov_01,27,001,2,recog,45,TANGIER,LF,lure,-,-,-,liberal,no,m,1,1.81688146191,1,348
2019_Nov_01,27,001,2,recog,46,INDEED,HF,lure,-,-,-,conservative,no,m,1,1.30023712163,3,351
2019_Nov_01,27,001,2,recog,47,ABBOT,LF,lure,-,-,-,liberal,no,m,1,0.816965048389,1,352
2019_Nov_01,27,001,2,recog,48,LAXATIVE,LF,target,left,aqua,imageability,liberal,no,z,1,0.883697851021,3,355
2019_Nov_01,27,001,2,recog,49,DIFFERENT,HF,target,left,aqua,imageability,liberal,no,z,1,1.50012647954,3,358
2019_Nov_01,27,001,2,recog,50,PIZZA,LF,target,left,aqua,imageability,conservative,no,z,1,0.850054294548,1,359
2019_Nov_01,27,001,2,recog,51,NEWMARKET,LF,target,left,aqua,imageability,conservative,no,z,1,1.18363765409,1,360
2019_Nov_01,27,001,2,recog,52,CLOSE,HF,lure,-,-,-,conservative,no,m,1,1.383347741,3,363
2019_Nov_01,27,001,2,recog,53,FRIEND,HF,lure,-,-,-,conservative,no,m,1,1.26692204535,3,366
2019_Nov_01,27,001,2,recog,54,OCTAGONAL,LF,lure,-,-,-,conservative,no,m,1,0.78366683604,3,369
2019_Nov_01,27,001,2,recog,55,LANGUAGE,HF,target,left,aqua,imageability,conservative,no,z,1,0.916994230333,1,370
2019_Nov_01,27,001,2,recog,56,SEABED,LF,lure,-,-,-,liberal,no,m,1,0.883336009567,1,371
2019_Nov_01,27,001,2,recog,57,CANNOT,HF,lure,-,-,-,liberal,no,m,1,0.833660347089,1,372
2019_Nov_01,27,001,2,recog,58,CAPITAL,HF,target,right,yellow,pleasantness,liberal,no,z,1,1.4336129081,3,375
2019_Nov_01,27,001,2,recog,59,BUGGED,LF,target,left,aqua,imageability,liberal,no,z,1,0.750314365802,3,378
2019_Nov_01,27,001,2,recog,60,ENGULF,LF,target,left,aqua,imageability,conservative,no,z,1,0.933605942558,1,379
2019_Nov_01,27,001,2,recog,61,HOURS,HF,target,right,yellow,pleasantness,liberal,no,z,1,1.36687057367,3,382
2019_Nov_01,27,001,2,recog,62,SEGMENTED,LF,target,right,yellow,pleasantness,conservative,no,z,1,0.766934876604,1,383
2019_Nov_01,27,001,2,recog,63,NOTHING,HF,lure,-,-,-,conservative,no,m,1,0.716961895565,3,386
2019_Nov_01,27,001,2,recog,64,PICTURE,HF,lure,-,-,-,liberal,no,m,1,1.6502723526,1,387
2019_Nov_01,27,001,2,recog,65,REUNITED,LF,target,left,aqua,imageability,liberal,no,z,1,0.850251162695,3,390
2019_Nov_01,27,001,2,recog,66,POINT,HF,lure,-,-,-,liberal,no,m,1,0.950259814629,1,391
2019_Nov_01,27,001,2,recog,67,ANAEMIC,LF,target,left,aqua,imageability,conservative,no,z,1,1.00036220806,1,392
2019_Nov_01,27,001,2,recog,68,FENCED,LF,lure,-,-,-,liberal,no,m,1,0.8002653504,1,393
2019_Nov_01,27,001,2,recog,69,POWER,HF,lure,-,-,-,conservative,no,m,1,1.28361917708,3,396
2019_Nov_01,27,001,2,recog,70,TOGETHER,HF,target,right,yellow,pleasantness,conservative,no,z,1,2.11691291682,1,397
2019_Nov_01,27,001,2,recog,71,INVOLVED,HF,target,right,yellow,pleasantness,liberal,no,z,1,0.866958192831,3,400
2019_Nov_01,27,001,2,recog,72,CHAIR,HF,lure,-,-,-,liberal,no,m,1,0.983687072765,1,401
2019_Nov_01,27,001,2,recog,73,BEAUTIFUL,HF,target,left,aqua,imageability,conservative,no,z,1,0.766984001988,1,402
2019_Nov_01,27,001,2,recog,74,ABSENCES,LF,lure,-,-,-,liberal,no,m,1,2.00028265427,1,403
2019_Nov_01,27,001,2,recog,75,ENROLMENT,LF,target,right,yellow,pleasantness,liberal,no,z,1,0.900327160399,3,406
2019_Nov_01,27,001,2,recog,76,KNOWLEDGE,HF,target,right,yellow,pleasantness,conservative,no,z,1,1.06695936597,1,407
2019_Nov_01,27,001,2,recog,77,NOBLEMAN,LF,lure,-,-,-,conservative,no,m,1,0.816671395902,3,410
2019_Nov_01,27,001,2,recog,78,SLUGS,LF,target,right,yellow,pleasantness,liberal,no,z,1,0.833552197921,3,413
2019_Nov_01,27,001,2,recog,79,CUSTODIAN,LF,target,left,aqua,imageability,conservative,no,z,1,0.666965451656,1,414
2019_Nov_01,27,001,2,recog,80,ABOVE,HF,lure,-,-,-,liberal,yes,z,0,0.600278474943,-1,413
2019_Nov_01,27,001,2,recog,81,ELLIPSE,LF,lure,-,-,-,liberal,no,m,1,1.5170043487,1,414
2019_Nov_01,27,001,2,recog,82,JABBED,LF,lure,-,-,-,conservative,no,m,1,0.716960795743,3,417
2019_Nov_01,27,001,2,recog,83,TIMES,HF,target,right,yellow,pleasantness,conservative,no,z,1,0.7502593747,1,418
2019_Nov_01,27,001,2,recog,84,JEWELLED,LF,lure,-,-,-,conservative,no,m,1,0.683700710558,3,421
2019_Nov_01,27,001,2,recog,85,RICKETS,LF,target,right,yellow,pleasantness,conservative,no,m,0,1.08356851195,-1,420
2019_Nov_01,27,001,2,recog,86,DYEING,LF,target,right,yellow,pleasantness,conservative,no,z,1,1.00031748196,1,421
2019_Nov_01,27,001,2,recog,87,DARKEN,LF,lure,-,-,-,conservative,no,m,1,0.800363234562,3,424
2019_Nov_01,27,001,2,recog,88,WHOLE,HF,lure,-,-,-,conservative,no,z,0,1.66695518665,-3,421
2019_Nov_01,27,001,2,recog,89,ADDED,HF,lure,-,-,-,liberal,no,m,1,0.933611441669,1,422
2019_Nov_01,27,001,2,recog,90,SUMMER,HF,lure,-,-,-,conservative,no,m,1,0.816948917665,3,425
2019_Nov_01,27,001,2,recog,91,EARLIER,HF,target,left,aqua,imageability,liberal,no,z,1,1.0836759279,3,428
2019_Nov_01,27,001,2,recog,92,TWENTY,HF,lure,-,-,-,liberal,no,m,1,0.683615657653,1,429
2019_Nov_01,27,001,2,recog,93,CLEAR,HF,lure,-,-,-,liberal,no,m,1,0.966883624896,1,430
2019_Nov_01,27,001,2,recog,94,GNOMES,LF,target,right,yellow,pleasantness,liberal,no,m,0,0.950016020741,-3,427
2019_Nov_01,27,001,2,recog,95,CODING,LF,target,left,aqua,imageability,conservative,no,z,1,1.00025662515,1,428
2019_Nov_01,27,001,3,source,0,WHATEVER,HF,target,left,aqua,imageability,liberal,no,1,1,1.31688732763,-,-
2019_Nov_01,27,001,3,source,1,MENFOLK,LF,target,right,yellow,pleasantness,conservative,no,9,1,1.90019188229,-,-
2019_Nov_01,27,001,3,source,2,WINDOW,HF,target,left,aqua,imageability,conservative,no,1,1,2.48331020041,-,-
2019_Nov_01,27,001,3,source,3,FESTERING,LF,target,left,aqua,imageability,conservative,yes,1,1,0.966910020625,-,-
2019_Nov_01,27,001,3,source,4,WANTED,HF,target,right,yellow,pleasantness,liberal,no,9,1,1.00022399709,-,-
2019_Nov_01,27,001,3,source,5,RATHER,HF,target,left,aqua,imageability,conservative,no,7,0,1.6500131612,-,-
2019_Nov_01,27,001,3,source,6,ALKALINE,LF,target,right,yellow,pleasantness,conservative,no,9,1,1.91687838241,-,-
2019_Nov_01,27,001,3,source,7,HUMAN,HF,target,right,yellow,pleasantness,liberal,no,9,1,0.766999766105,-,-
2019_Nov_01,27,001,3,source,8,FIANCE,LF,target,right,yellow,pleasantness,liberal,no,9,1,0.650318545126,-,-
2019_Nov_01,27,001,3,source,9,ALTHOUGH,HF,target,right,yellow,pleasantness,conservative,no,9,1,1.20029482563,-,-
2019_Nov_01,27,001,3,source,10,VOICE,HF,target,right,yellow,pleasantness,liberal,no,9,1,0.983570491628,-,-
2019_Nov_01,27,001,3,source,11,SIZZLING,LF,target,right,yellow,pleasantness,conservative,no,9,1,0.683616390868,-,-
2019_Nov_01,27,001,3,source,12,TELEPHONE,HF,target,left,aqua,imageability,liberal,no,1,1,0.98358258967,-,-
2019_Nov_01,27,001,3,source,13,COILING,LF,target,left,aqua,imageability,conservative,no,1,1,0.55010825915,-,-
2019_Nov_01,27,001,3,source,14,LOCAL,HF,target,right,yellow,pleasantness,conservative,no,9,1,1.23357324118,-,-
2019_Nov_01,27,001,3,source,15,WEEKS,HF,target,left,aqua,imageability,liberal,no,1,1,0.633666139485,-,-
2019_Nov_01,27,001,3,source,16,CUTLER,LF,target,left,aqua,imageability,conservative,no,1,1,0.716988657902,-,-
2019_Nov_01,27,001,3,source,17,LIKELY,HF,target,right,yellow,pleasantness,conservative,no,1,0,1.71691826929,-,-
2019_Nov_01,27,001,3,source,18,PNEUMATIC,LF,target,right,yellow,pleasantness,liberal,no,9,1,1.4666794246,-,-
2019_Nov_01,27,001,3,source,19,LETTER,HF,target,left,aqua,imageability,conservative,no,1,1,1.70021527184,-,-
2019_Nov_01,27,001,3,source,20,GATEHOUSE,LF,target,right,yellow,pleasantness,conservative,no,9,1,1.50024709335,-,-
2019_Nov_01,27,001,3,source,21,SOMEONE,HF,target,right,yellow,pleasantness,liberal,yes,9,1,0.766668719668,-,-
2019_Nov_01,27,001,3,source,22,SORRY,HF,target,right,yellow,pleasantness,liberal,no,9,1,0.833638350648,-,-
2019_Nov_01,27,001,3,source,23,MOMENT,HF,target,left,aqua,imageability,liberal,no,1,1,1.33358995848,-,-
2019_Nov_01,27,001,3,source,24,HARDLY,HF,target,left,aqua,imageability,conservative,no,9,0,1.33364055029,-,-
2019_Nov_01,27,001,3,source,25,DURING,HF,target,right,yellow,pleasantness,conservative,no,1,0,1.45028181107,-,-
2019_Nov_01,27,001,3,source,26,HIMSELF,HF,target,left,aqua,imageability,conservative,yes,1,1,0.617013367237,-,-
2019_Nov_01,27,001,3,source,27,POSITION,HF,target,right,yellow,pleasantness,liberal,no,9,1,1.41699129747,-,-
2019_Nov_01,27,001,3,source,28,FUTURE,HF,target,left,aqua,imageability,liberal,no,9,0,1.90020654658,-,-
2019_Nov_01,27,001,3,source,29,ANEMONES,LF,target,left,aqua,imageability,liberal,no,9,0,2.63360931535,-,-
2019_Nov_01,27,001,3,source,30,JUTTED,LF,target,left,aqua,imageability,conservative,no,1,1,0.833533867553,-,-
2019_Nov_01,27,001,3,source,31,BAPTIZED,LF,target,left,aqua,imageability,liberal,no,1,1,1.08358317624,-,-
2019_Nov_01,27,001,3,source,32,FASCINATE,LF,target,left,aqua,imageability,conservative,no,1,1,2.26691288016,-,-
2019_Nov_01,27,001,3,source,33,TESTIFIES,LF,target,right,yellow,pleasantness,liberal,no,9,1,1.88353617718,-,-
2019_Nov_01,27,001,3,source,34,AGNOSTIC,LF,target,right,yellow,pleasantness,liberal,no,9,1,1.61689605289,-,-
2019_Nov_01,27,001,3,source,35,DOCTOR,HF,target,right,yellow,pleasantness,conservative,no,9,1,1.90030589717,-,-
2019_Nov_01,27,001,3,source,36,EBONY,LF,target,left,aqua,imageability,liberal,no,1,1,0.950034351109,-,-
2019_Nov_01,27,001,3,source,37,OTTOMAN,LF,target,right,yellow,pleasantness,conservative,no,9,1,1.98345061102,-,-
2019_Nov_01,27,001,3,source,38,WAITING,HF,target,left,aqua,imageability,conservative,yes,9,0,0.717003688803,-,-
2019_Nov_01,27,001,3,source,39,PIVOT,LF,target,right,yellow,pleasantness,liberal,no,9,1,1.3836219633,-,-
2019_Nov_01,27,001,3,source,40,UDDER,LF,target,left,aqua,imageability,liberal,no,1,1,1.4502583482,-,-
2019_Nov_01,27,001,3,source,41,MOVED,HF,target,right,yellow,pleasantness,conservative,no,1,0,1.45026274749,-,-
2019_Nov_01,27,001,3,source,42,BOTANIST,LF,target,right,yellow,pleasantness,liberal,no,9,1,2.4835092682,-,-
2019_Nov_01,27,001,3,source,43,PUMPKIN,LF,target,left,aqua,imageability,conservative,no,1,1,0.800007258825,-,-
2019_Nov_01,27,001,3,source,44,ERSTWHILE,LF,target,right,yellow,pleasantness,conservative,no,9,1,1.1169415122,-,-
2019_Nov_01,27,001,3,source,45,FAMILY,HF,target,left,aqua,imageability,liberal,no,1,1,0.650293982434,-,-
2019_Nov_01,27,001,3,source,46,HOMESTEAD,LF,target,left,aqua,imageability,liberal,no,1,1,0.966944481716,-,-
2019_Nov_01,27,001,3,source,47,LIMELIGHT,LF,target,left,aqua,imageability,liberal,no,1,1,1.06691757274,-,-
2019_Nov_01,27,001,3,recog,0,FASCINATE,LF,target,left,aqua,imageability,conservative,no,m,0,1.11660423344,-1,427
2019_Nov_01,27,001,3,recog,1,BLIGHTED,LF,lure,-,-,-,conservative,no,m,1,1.01696182224,3,430
2019_Nov_01,27,001,3,recog,2,FUTURE,HF,target,left,aqua,imageability,liberal,no,z,1,0.783644106384,3,433
2019_Nov_01,27,001,3,recog,3,PARENTS,HF,lure,-,-,-,conservative,no,m,1,1.26689711605,3,436
2019_Nov_01,27,001,3,recog,4,ENTIRELY,HF,lure,-,-,-,conservative,no,z,0,1.21686254497,-3,433
2019_Nov_01,27,001,3,recog,5,MAYBE,HF,lure,-,-,-,liberal,no,z,0,0.983579290204,-1,432
2019_Nov_01,27,001,3,recog,6,GREATER,HF,lure,-,-,-,conservative,no,m,1,0.833602789735,3,435
2019_Nov_01,27,001,3,recog,7,EXPECT,HF,lure,-,-,-,liberal,no,z,0,1.11691365004,-1,434
2019_Nov_01,27,001,3,recog,8,AGNOSTIC,LF,target,right,yellow,pleasantness,liberal,no,z,1,1.03363109182,3,437
2019_Nov_01,27,001,3,recog,9,DRYER,LF,lure,-,-,-,conservative,yes,m,1,1.15034897354,3,440
2019_Nov_01,27,001,3,recog,10,PNEUMATIC,LF,target,right,yellow,pleasantness,liberal,no,z,1,1.06690254184,3,443
2019_Nov_01,27,001,3,recog,11,FELLS,LF,lure,-,-,-,conservative,no,m,1,0.933613641313,3,446
2019_Nov_01,27,001,3,recog,12,AGONIZED,LF,lure,-,-,-,liberal,no,z,0,1.01667880137,-1,445
2019_Nov_01,27,001,3,recog,13,WAITING,HF,target,left,aqua,imageability,conservative,no,m,0,1.73354024652,-1,444
2019_Nov_01,27,001,3,recog,14,WINDOW,HF,target,left,aqua,imageability,conservative,no,z,1,1.56699236064,1,445
2019_Nov_01,27,001,3,recog,15,PUMPKIN,LF,target,left,aqua,imageability,conservative,no,z,1,0.650313046016,1,446
2019_Nov_01,27,001,3,recog,16,DREADING,LF,lure,-,-,-,conservative,no,m,1,0.933647735797,3,449
2019_Nov_01,27,001,3,recog,17,HARDLY,HF,target,left,aqua,imageability,conservative,no,m,0,1.38354314272,-1,448
2019_Nov_01,27,001,3,recog,18,LIQUEUR,LF,lure,-,-,-,liberal,no,m,1,0.983620716835,1,449
2019_Nov_01,27,001,3,recog,19,PLEASE,HF,lure,-,-,-,liberal,no,m,1,1.30022172413,1,450
2019_Nov_01,27,001,3,recog,20,HUMAN,HF,target,right,yellow,pleasantness,liberal,no,z,1,0.616927947725,3,453
2019_Nov_01,27,001,3,recog,21,ENFORCING,LF,lure,-,-,-,liberal,no,m,1,0.983684139906,1,454
2019_Nov_01,27,001,3,recog,22,TRIED,HF,lure,-,-,-,conservative,no,m,1,0.850318985055,3,457
2019_Nov_01,27,001,3,recog,23,TESTIFIES,LF,target,right,yellow,pleasantness,liberal,no,z,1,0.833493174137,3,460
2019_Nov_01,27,001,3,recog,24,TELEPHONE,HF,target,left,aqua,imageability,liberal,no,z,1,0.633597950518,3,463
2019_Nov_01,27,001,3,recog,25,DOCTOR,HF,target,right,yellow,pleasantness,conservative,no,z,1,1.43358981184,1,464
2019_Nov_01,27,001,3,recog,26,LULLED,LF,lure,-,-,-,liberal,no,m,1,0.917012927308,1,465
2019_Nov_01,27,001,3,recog,27,DEXTERITY,LF,lure,-,-,-,liberal,no,m,1,1.50019063582,1,466
2019_Nov_01,27,001,3,recog,28,FESTERING,LF,target,left,aqua,imageability,conservative,no,z,1,0.91690331171,1,467
2019_Nov_01,27,001,3,recog,29,UNSAVOURY,LF,lure,-,-,-,conservative,no,m,1,0.950274112315,3,470
2019_Nov_01,27,001,3,recog,30,LOCAL,HF,target,right,yellow,pleasantness,conservative,no,z,1,0.866996319995,1,471
2019_Nov_01,27,001,3,recog,31,ERSTWHILE,LF,target,right,yellow,pleasantness,conservative,no,z,1,0.683559200121,1,472
2019_Nov_01,27,001,3,recog,32,SORRY,HF,target,right,yellow,pleasantness,liberal,no,z,1,0.633596484089,3,475
2019_Nov_01,27,001,3,recog,33,WEEKS,HF,target,left,aqua,imageability,liberal,no,z,1,0.583638533952,3,478
2019_Nov_01,27,001,3,recog,34,VOICE,HF,target,right,yellow,pleasantness,liberal,no,z,1,0.633659907161,3,481
2019_Nov_01,27,001,3,recog,35,CUTLER,LF,target,left,aqua,imageability,conservative,no,z,1,0.966706186939,1,482
2019_Nov_01,27,001,3,recog,36,MICROCOSM,LF,lure,-,-,-,liberal,no,m,1,0.866884138146,1,483
2019_Nov_01,27,001,3,recog,37,ALTHOUGH,HF,target,right,yellow,pleasantness,conservative,no,z,1,1.36689623619,1,484
2019_Nov_01,27,001,3,recog,38,OTTOMAN,LF,target,right,yellow,pleasantness,conservative,no,z,1,0.600270042974,1,485
2019_Nov_01,27,001,3,recog,39,MOVED,HF,target,right,yellow,pleasantness,conservative,no,z,1,0.700284194018,1,486
2019_Nov_01,27,001,3,recog,40,ATHEIST,LF,lure,-,-,-,conservative,no,m,1,1.43334051884,3,489
2019_Nov_01,27,001,3,recog,41,SLOWLY,HF,lure,-,-,-,liberal,no,m,1,1.51692662794,1,490
2019_Nov_01,27,001,3,recog,42,UDDER,LF,target,left,aqua,imageability,liberal,no,z,1,0.716879775519,3,493
2019_Nov_01,27,001,3,recog,43,BAPTIZED,LF,target,left,aqua,imageability,liberal,no,z,1,0.683606125862,3,496
2019_Nov_01,27,001,3,recog,44,LOPSIDED,LF,lure,-,-,-,liberal,no,m,1,0.766927911064,1,497
2019_Nov_01,27,001,3,recog,45,ANEMONES,LF,target,left,aqua,imageability,liberal,no,z,1,1.35030285433,3,500
2019_Nov_01,27,001,3,recog,46,THING,HF,lure,-,-,-,liberal,no,m,1,0.750349926715,1,501
2019_Nov_01,27,001,3,recog,47,LIMELIGHT,LF,target,left,aqua,imageability,liberal,no,z,1,0.666892496794,3,504
2019_Nov_01,27,001,3,recog,48,PIVOT,LF,target,right,yellow,pleasantness,liberal,yes,z,1,0.516936526336,3,507
2019_Nov_01,27,001,3,recog,49,KITCHEN,HF,lure,-,-,-,conservative,no,m,1,1.21685997872,3,510
2019_Nov_01,27,001,3,recog,50,ROUND,HF,lure,-,-,-,conservative,no,m,1,0.766900048905,3,513
2019_Nov_01,27,001,3,recog,51,METABOLIC,LF,lure,-,-,-,conservative,no,m,1,0.96691771938,3,516
2019_Nov_01,27,001,3,recog,52,WHATEVER,HF,target,left,aqua,imageability,liberal,no,z,1,0.716942465376,3,519
2019_Nov_01,27,001,3,recog,53,BUBBLED,LF,lure,-,-,-,conservative,no,m,1,1.06697183062,3,522
2019_Nov_01,27,001,3,recog,54,WANTED,HF,target,right,yellow,pleasantness,liberal,yes,z,1,0.866935096568,3,525
2019_Nov_01,27,001,3,recog,55,FORCE,HF,lure,-,-,-,conservative,no,m,1,1.05020614331,3,528
2019_Nov_01,27,001,3,recog,56,SPEAK,HF,lure,-,-,-,liberal,no,m,1,0.866953060328,1,529
2019_Nov_01,27,001,3,recog,57,SUPPORT,HF,lure,-,-,-,conservative,no,m,1,1.01690756436,3,532
2019_Nov_01,27,001,3,recog,58,EBONY,LF,target,left,aqua,imageability,liberal,no,z,1,0.617045995291,3,535
2019_Nov_01,27,001,3,recog,59,KIDNAP,LF,lure,-,-,-,liberal,no,m,1,0.766861555134,1,536
2019_Nov_01,27,001,3,recog,60,JOBLESS,LF,lure,-,-,-,liberal,no,m,1,0.816887694238,1,537
2019_Nov_01,27,001,3,recog,61,TROUBLE,HF,lure,-,-,-,liberal,no,m,1,0.916935939765,1,538
2019_Nov_01,27,001,3,recog,62,DURING,HF,target,right,yellow,pleasantness,conservative,no,m,0,1.65001022835,-1,537
2019_Nov_01,27,001,3,recog,63,SOMEONE,HF,target,right,yellow,pleasantness,liberal,no,m,0,1.33352286933,-3,534
2019_Nov_01,27,001,3,recog,64,ALONE,HF,lure,-,-,-,conservative,no,z,0,1.1335869523,-3,531
2019_Nov_01,27,001,3,recog,65,LUMBER,LF,lure,-,-,-,conservative,no,m,1,0.883640293667,3,534
2019_Nov_01,27,001,3,recog,66,OUTSIDE,HF,lure,-,-,-,liberal,no,z,0,0.783651805138,-1,533
2019_Nov_01,27,001,3,recog,67,RIGGING,LF,lure,-,-,-,liberal,no,m,1,0.833326367794,1,534
2019_Nov_01,27,001,3,recog,68,MAKES,HF,lure,-,-,-,conservative,no,m,1,1.15033980835,3,537
2019_Nov_01,27,001,3,recog,69,LIKELY,HF,target,right,yellow,pleasantness,conservative,no,z,1,0.916889747239,1,538
2019_Nov_01,27,001,3,recog,70,FIANCE,LF,target,right,yellow,pleasantness,liberal,no,z,1,0.683565065839,3,541
2019_Nov_01,27,001,3,recog,71,BOTANIST,LF,target,right,yellow,pleasantness,liberal,no,z,1,0.583607372327,3,544
2019_Nov_01,27,001,3,recog,72,SIZZLING,LF,target,right,yellow,pleasantness,conservative,no,z,1,0.600321368002,1,545
2019_Nov_01,27,001,3,recog,73,HIMSELF,HF,target,left,aqua,imageability,conservative,no,z,1,0.617024732065,1,546
2019_Nov_01,27,001,3,recog,74,NEARLY,HF,lure,-,-,-,liberal,no,z,0,0.783663536573,-1,545
2019_Nov_01,27,001,3,recog,75,RATHER,HF,target,left,aqua,imageability,conservative,yes,m,0,0.850281591105,-1,544
2019_Nov_01,27,001,3,recog,76,MOMENT,HF,target,left,aqua,imageability,liberal,no,m,0,1.40004523935,-3,541
2019_Nov_01,27,001,3,recog,77,ROTARY,LF,lure,-,-,-,conservative,no,m,1,1.65031964495,3,544
2019_Nov_01,27,001,3,recog,78,FAMILY,HF,target,left,aqua,imageability,liberal,no,z,1,0.600378925356,3,547
2019_Nov_01,27,001,3,recog,79,HYSTERICS,LF,lure,-,-,-,liberal,no,m,1,0.783648505672,1,548
2019_Nov_01,27,001,3,recog,80,UNTIL,HF,lure,-,-,-,liberal,no,m,1,1.15033907514,1,549
2019_Nov_01,27,001,3,recog,81,JUTTED,LF,target,left,aqua,imageability,conservative,no,z,1,1.03364135683,1,550
2019_Nov_01,27,001,3,recog,82,FALCON,LF,lure,-,-,-,conservative,no,m,1,0.850288190038,3,553
2019_Nov_01,27,001,3,recog,83,POSITION,HF,target,right,yellow,pleasantness,liberal,no,z,1,0.917031257676,3,556
2019_Nov_01,27,001,3,recog,84,FOLLOWED,HF,lure,-,-,-,conservative,no,m,1,1.95021142246,3,559
2019_Nov_01,27,001,3,recog,85,IGNOBLE,LF,lure,-,-,-,liberal,no,m,1,1.45023525194,1,560
2019_Nov_01,27,001,3,recog,86,MENFOLK,LF,target,right,yellow,pleasantness,conservative,no,z,1,0.66693868932,1,561
2019_Nov_01,27,001,3,recog,87,GATEHOUSE,LF,target,right,yellow,pleasantness,conservative,no,z,1,0.633656974302,1,562
2019_Nov_01,27,001,3,recog,88,HOMESTEAD,LF,target,left,aqua,imageability,liberal,no,z,1,0.617026198494,3,565
2019_Nov_01,27,001,3,recog,89,VILLAGE,HF,lure,-,-,-,conservative,no,m,1,0.683600626752,3,568
2019_Nov_01,27,001,3,recog,90,MACARONI,LF,lure,-,-,-,conservative,no,m,1,0.983594687713,3,571
2019_Nov_01,27,001,3,recog,91,COILING,LF,target,left,aqua,imageability,conservative,no,z,1,0.716928900904,1,572
2019_Nov_01,27,001,3,recog,92,NEEDED,HF,lure,-,-,-,liberal,no,m,1,0.850046595794,1,573
2019_Nov_01,27,001,3,recog,93,ALKALINE,LF,target,right,yellow,pleasantness,conservative,no,z,1,0.816977513038,1,574
2019_Nov_01,27,001,3,recog,94,LETTER,HF,target,left,aqua,imageability,conservative,no,z,1,0.666985981668,1,575
2019_Nov_01,27,001,3,recog,95,EXCEPT,HF,lure,-,-,-,liberal,no,m,1,0.916945838163,1,576
2019_Nov_01,27,001,4,source,0,CHIEF,HF,target,left,aqua,imageability,liberal,no,9,0,1.93333245348,-,-
2019_Nov_01,27,001,4,source,1,COVER,HF,target,right,yellow,pleasantness,liberal,no,9,1,1.50001246465,-,-
2019_Nov_01,27,001,4,source,2,EASILY,HF,target,left,aqua,imageability,liberal,no,9,0,1.1335422262,-,-
2019_Nov_01,27,001,4,source,3,FLYWHEEL,LF,target,right,yellow,pleasantness,conservative,no,1,0,0.733635197825,-,-
2019_Nov_01,27,001,4,source,4,SINCE,HF,target,left,aqua,imageability,conservative,no,1,1,0.866909800661,-,-
2019_Nov_01,27,001,4,source,5,SEEMED,HF,target,right,yellow,pleasantness,liberal,no,9,1,0.967026235156,-,-
2019_Nov_01,27,001,4,source,6,APTLY,LF,target,left,aqua,imageability,conservative,no,9,0,1.43361437453,-,-
2019_Nov_01,27,001,4,source,7,HUNDRED,HF,target,left,aqua,imageability,conservative,no,1,1,0.950287676787,-,-
2019_Nov_01,27,001,4,source,8,CIPHER,LF,target,right,yellow,pleasantness,liberal,no,9,1,1.45021252228,-,-
2019_Nov_01,27,001,4,source,9,CASES,HF,target,left,aqua,imageability,liberal,no,1,1,1.91694547156,-,-
2019_Nov_01,27,001,4,source,10,CULINARY,LF,target,left,aqua,imageability,conservative,no,1,1,0.700416905878,-,-
2019_Nov_01,27,001,4,source,11,INFECT,LF,target,right,yellow,pleasantness,conservative,yes,1,0,0.616934546657,-,-
2019_Nov_01,27,001,4,source,12,HOSPITAL,HF,target,left,aqua,imageability,conservative,no,9,0,1.03352550891,-,-
2019_Nov_01,27,001,4,source,13,REREAD,LF,target,right,yellow,pleasantness,conservative,no,9,1,1.31690785764,-,-
2019_Nov_01,27,001,4,source,14,BOOKS,HF,target,right,yellow,pleasantness,liberal,no,9,1,1.05024683673,-,-
2019_Nov_01,27,001,4,source,15,TAWNY,LF,target,right,yellow,pleasantness,conservative,no,9,1,0.783346421216,-,-
2019_Nov_01,27,001,4,source,16,REPORT,HF,target,right,yellow,pleasantness,liberal,no,9,1,0.966883624896,-,-
2019_Nov_01,27,001,4,source,17,CIVILITY,LF,target,left,aqua,imageability,liberal,no,1,1,1.70031352261,-,-
2019_Nov_01,27,001,4,source,18,OPENED,HF,target,right,yellow,pleasantness,conservative,yes,1,0,0.56674013478,-,-
2019_Nov_01,27,001,4,source,19,JOURNEYED,LF,target,left,aqua,imageability,conservative,no,1,1,2.05025636852,-,-
2019_Nov_01,27,001,4,source,20,AMONG,HF,target,right,yellow,pleasantness,liberal,no,9,1,0.983635381129,-,-
2019_Nov_01,27,001,4,source,21,AVIDLY,LF,target,left,aqua,imageability,conservative,no,1,1,1.38353837682,-,-
2019_Nov_01,27,001,4,source,22,MUSIC,HF,target,left,aqua,imageability,liberal,no,1,1,0.833650448691,-,-
2019_Nov_01,27,001,4,source,23,TIDILY,LF,target,right,yellow,pleasantness,liberal,yes,9,1,0.766960172511,-,-
2019_Nov_01,27,001,4,source,24,ADVERSELY,LF,target,left,aqua,imageability,liberal,no,9,0,1.666942722,-,-
2019_Nov_01,27,001,4,source,25,OMITTING,LF,target,left,aqua,imageability,liberal,no,1,1,1.68354966833,-,-
2019_Nov_01,27,001,4,source,26,REQUIRED,HF,target,left,aqua,imageability,conservative,no,9,0,1.00025479211,-,-
2019_Nov_01,27,001,4,source,27,CAVERN,LF,target,right,yellow,pleasantness,liberal,no,9,1,1.21674046473,-,-
2019_Nov_01,27,001,4,source,28,DAGGERS,LF,target,right,yellow,pleasantness,liberal,no,9,1,0.767017729865,-,-
2019_Nov_01,27,001,4,source,29,BUTCHERED,LF,target,right,yellow,pleasantness,conservative,no,9,1,0.833598757054,-,-
2019_Nov_01,27,001,4,source,30,SUDDENLY,HF,target,right,yellow,pleasantness,conservative,no,9,1,1.95021802139,-,-
2019_Nov_01,27,001,4,source,31,GENERAL,HF,target,right,yellow,pleasantness,conservative,no,9,1,1.58355971337,-,-
2019_Nov_01,27,001,4,source,32,HILLSIDES,LF,target,right,yellow,pleasantness,liberal,yes,9,1,0.63342894453,-,-
2019_Nov_01,27,001,4,source,33,HISTORY,HF,target,left,aqua,imageability,liberal,no,1,1,1.43334675116,-,-
2019_Nov_01,27,001,4,source,34,RECENT,HF,target,right,yellow,pleasantness,conservative,no,1,0,1.76688758426,-,-
2019_Nov_01,27,001,4,source,35,NEMESIS,LF,target,right,yellow,pleasantness,conservative,no,9,1,1.38367512137,-,-
2019_Nov_01,27,001,4,source,36,TABLE,HF,target,left,aqua,imageability,conservative,no,1,1,0.900324960755,-,-
2019_Nov_01,27,001,4,source,37,DECIDED,HF,target,right,yellow,pleasantness,conservative,no,9,1,1.40006210328,-,-
2019_Nov_01,27,001,4,source,38,WRONG,HF,target,right,yellow,pleasantness,conservative,no,1,0,1.53334513809,-,-
2019_Nov_01,27,001,4,source,39,ORDER,HF,target,left,aqua,imageability,liberal,no,1,1,2.11678387104,-,-
2019_Nov_01,27,001,4,source,40,GANGWAY,LF,target,left,aqua,imageability,liberal,no,1,1,0.700267696686,-,-
2019_Nov_01,27,001,4,source,41,WEDGES,LF,target,left,aqua,imageability,liberal,no,1,1,0.600245480281,-,-
2019_Nov_01,27,001,4,source,42,TODAY,HF,target,left,aqua,imageability,conservative,no,1,1,1.25003464439,-,-
2019_Nov_01,27,001,4,source,43,PUNCTUAL,LF,target,left,aqua,imageability,liberal,no,9,0,1.0167499232,-,-
2019_Nov_01,27,001,4,source,44,PLODDED,LF,target,right,yellow,pleasantness,liberal,no,9,1,0.900354289343,-,-
2019_Nov_01,27,001,4,source,45,UNGAINLY,LF,target,left,aqua,imageability,conservative,no,9,0,1.38363516116,-,-
2019_Nov_01,27,001,4,source,46,UPDATE,LF,target,left,aqua,imageability,conservative,no,9,0,1.88353837682,-,-
2019_Nov_01,27,001,4,source,47,SOCIAL,HF,target,right,yellow,pleasantness,liberal,no,9,1,1.36668836982,-,-
2019_Nov_01,27,001,4,recog,0,ATTACK,HF,lure,-,-,-,liberal,no,m,1,1.46687445971,1,577
2019_Nov_01,27,001,4,recog,1,PUNCTUAL,LF,target,left,aqua,imageability,liberal,no,z,1,0.866936562998,3,580
2019_Nov_01,27,001,4,recog,2,JOURNEYED,LF,target,left,aqua,imageability,conservative,no,z,1,0.716920835542,1,581
2019_Nov_01,27,001,4,recog,3,PALATABLE,LF,lure,-,-,-,liberal,no,m,1,1.14997760029,1,582
2019_Nov_01,27,001,4,recog,4,NEITHER,HF,lure,-,-,-,liberal,no,m,1,0.933642236686,1,583
2019_Nov_01,27,001,4,recog,5,TICKLE,LF,lure,-,-,-,conservative,no,m,1,0.68365488464,3,586
2019_Nov_01,27,001,4,recog,6,EASILY,HF,target,left,aqua,imageability,liberal,no,z,1,1.06696816455,3,589
2019_Nov_01,27,001,4,recog,7,WAFER,LF,lure,-,-,-,liberal,no,m,1,0.66698158238,1,590
2019_Nov_01,27,001,4,recog,8,APTLY,LF,target,left,aqua,imageability,conservative,no,z,1,1.05034618732,1,591
2019_Nov_01,27,001,4,recog,9,CASES,HF,target,left,aqua,imageability,liberal,no,z,1,1.01691013061,3,594
2019_Nov_01,27,001,4,recog,10,HISTORY,HF,target,left,aqua,imageability,liberal,no,z,1,0.966876292749,3,597
2019_Nov_01,27,001,4,recog,11,HUNDRED,HF,target,left,aqua,imageability,conservative,no,z,1,0.683575330845,1,598
2019_Nov_01,27,001,4,recog,12,COVER,HF,target,right,yellow,pleasantness,liberal,no,m,0,0.933373146892,-3,595
2019_Nov_01,27,001,4,recog,13,OMITTING,LF,target,left,aqua,imageability,liberal,no,z,1,0.850255195376,3,598
2019_Nov_01,27,001,4,recog,14,GENERAL,HF,target,right,yellow,pleasantness,conservative,no,z,1,1.08348492547,1,599
2019_Nov_01,27,001,4,recog,15,MODERN,HF,lure,-,-,-,liberal,no,m,1,1.10034409766,1,600
2019_Nov_01,27,001,4,recog,16,TRYING,HF,lure,-,-,-,conservative,no,m,1,1.03352807516,3,603
2019_Nov_01,27,001,4,recog,17,TABLE,HF,target,left,aqua,imageability,conservative,no,z,1,0.700325620648,1,604
2019_Nov_01,27,001,4,recog,18,HILLSIDES,LF,target,right,yellow,pleasantness,liberal,no,z,1,0.700273929011,3,607
2019_Nov_01,27,001,4,recog,19,TOLERABLY,LF,lure,-,-,-,conservative,no,z,0,1.1169169495,-3,604
2019_Nov_01,27,001,4,recog,20,GETTING,HF,lure,-,-,-,liberal,no,m,1,1.13361261481,1,605
2019_Nov_01,27,001,4,recog,21,NEMESIS,LF,target,right,yellow,pleasantness,conservative,no,z,1,0.983585889136,1,606
2019_Nov_01,27,001,4,recog,22,UNMADE,LF,lure,-,-,-,conservative,yes,z,0,1.08357804374,-3,603
2019_Nov_01,27,001,4,recog,23,SAYING,HF,lure,-,-,-,conservative,no,m,1,1.33361562099,3,606
2019_Nov_01,27,001,4,recog,24,CHURCH,HF,lure,-,-,-,liberal,no,m,1,0.850272425922,1,607
2019_Nov_01,27,001,4,recog,25,UNION,HF,lure,-,-,-,liberal,no,m,1,1.0335900318,1,608
2019_Nov_01,27,001,4,recog,26,BOOKS,HF,target,right,yellow,pleasantness,liberal,no,z,1,0.716899572315,3,611
2019_Nov_01,27,001,4,recog,27,PEACEABLY,LF,lure,-,-,-,liberal,no,m,1,1.10029827174,1,612
2019_Nov_01,27,001,4,recog,28,RETURN,HF,lure,-,-,-,conservative,no,m,1,1.50032811358,3,615
2019_Nov_01,27,001,4,recog,29,DAGGERS,LF,target,right,yellow,pleasantness,liberal,no,z,1,0.783676734438,3,618
2019_Nov_01,27,001,4,recog,30,MUSIC,HF,target,left,aqua,imageability,liberal,no,z,1,0.700313889213,3,621
2019_Nov_01,27,001,4,recog,31,BUTCHERED,LF,target,right,yellow,pleasantness,conservative,yes,m,0,0.90008629937,-1,620
2019_Nov_01,27,001,4,recog,32,TAWNY,LF,target,right,yellow,pleasantness,conservative,no,z,1,1.10025171261,1,621
2019_Nov_01,27,001,4,recog,33,REPORT,HF,target,right,yellow,pleasantness,liberal,no,z,1,0.983535297322,3,624
2019_Nov_01,27,001,4,recog,34,AMONG,HF,target,right,yellow,pleasantness,liberal,no,z,1,1.1002465801,3,627
2019_Nov_01,27,001,4,recog,35,SINCE,HF,target,left,aqua,imageability,conservative,no,m,0,1.26700416539,-1,626
2019_Nov_01,27,001,4,recog,36,TIDILY,LF,target,right,yellow,pleasantness,liberal,no,z,1,0.866971757303,3,629
2019_Nov_01,27,001,4,recog,37,FEELING,HF,lure,-,-,-,liberal,no,m,1,1.08358647571,1,630
2019_Nov_01,27,001,4,recog,38,OPENED,HF,target,right,yellow,pleasantness,conservative,yes,m,0,0.800347470446,-1,629
2019_Nov_01,27,001,4,recog,39,UNGAINLY,LF,target,left,aqua,imageability,conservative,no,m,0,1.26696310537,-1,628
2019_Nov_01,27,001,4,recog,40,MONEY,HF,lure,-,-,-,conservative,no,m,1,0.950259448021,3,631
2019_Nov_01,27,001,4,recog,41,UPDATE,LF,target,left,aqua,imageability,conservative,no,z,1,1.51698895119,1,632
2019_Nov_01,27,001,4,recog,42,CULINARY,LF,target,left,aqua,imageability,conservative,no,z,1,1.35028709022,1,633
2019_Nov_01,27,001,4,recog,43,SWAGGER,LF,lure,-,-,-,liberal,no,m,1,1.35002166649,1,634
2019_Nov_01,27,001,4,recog,44,JOCKEYS,LF,lure,-,-,-,liberal,no,m,1,1.18357863031,1,635
2019_Nov_01,27,001,4,recog,45,SUDDENLY,HF,target,right,yellow,pleasantness,conservative,no,z,1,0.90025090607,1,636
2019_Nov_01,27,001,4,recog,46,GIBBERISH,LF,lure,-,-,-,liberal,no,m,1,1.36689586958,1,637
2019_Nov_01,27,001,4,recog,47,AVIDLY,LF,target,left,aqua,imageability,conservative,no,m,0,0.83336706121,-1,636
2019_Nov_01,27,001,4,recog,48,ZEBRA,LF,lure,-,-,-,conservative,no,m,1,0.716917902684,3,639
2019_Nov_01,27,001,4,recog,49,INFECT,LF,target,right,yellow,pleasantness,conservative,no,z,1,1.25038585424,1,640
2019_Nov_01,27,001,4,recog,50,BUILDING,HF,lure,-,-,-,liberal,no,m,1,0.900294165738,1,641
2019_Nov_01,27,001,4,recog,51,EUPHEMISM,LF,lure,-,-,-,conservative,no,m,1,1.01687090362,3,644
2019_Nov_01,27,001,4,recog,52,FIGURE,HF,lure,-,-,-,conservative,no,z,0,1.46668675675,-3,641
2019_Nov_01,27,001,4,recog,53,ORDER,HF,target,left,aqua,imageability,liberal,no,z,1,0.733653528192,3,644
2019_Nov_01,27,001,4,recog,54,FLYWHEEL,LF,target,right,yellow,pleasantness,conservative,no,m,0,0.900258604825,-1,643
2019_Nov_01,27,001,4,recog,55,BEHIND,HF,lure,-,-,-,liberal,no,m,1,0.867010617682,1,644
2019_Nov_01,27,001,4,recog,56,JUBILANT,LF,lure,-,-,-,conservative,no,m,1,1.38357797042,3,647
2019_Nov_01,27,001,4,recog,57,TODAY,HF,target,left,aqua,imageability,conservative,no,m,0,1.16689359662,-1,646
2019_Nov_01,27,001,4,recog,58,PLODDED,LF,target,right,yellow,pleasantness,liberal,no,z,1,1.08362240323,3,649
2019_Nov_01,27,001,4,recog,59,FLICKS,LF,lure,-,-,-,liberal,no,m,1,0.933717024585,1,650
2019_Nov_01,27,001,4,recog,60,BATCHES,LF,lure,-,-,-,liberal,no,m,1,0.950250282837,1,651
2019_Nov_01,27,001,4,recog,61,CAVERN,LF,target,right,yellow,pleasantness,liberal,no,z,1,1.28362944209,3,654
2019_Nov_01,27,001,4,recog,62,FATHER,HF,lure,-,-,-,conservative,no,m,1,1.43356928182,3,657
2019_Nov_01,27,001,4,recog,63,ADVERSELY,LF,target,left,aqua,imageability,liberal,no,z,1,1.01694092563,3,660
2019_Nov_01,27,001,4,recog,64,RECENT,HF,target,right,yellow,pleasantness,conservative,no,m,0,1.61694591148,-1,659
2019_Nov_01,27,001,4,recog,65,CIPHER,LF,target,right,yellow,pleasantness,liberal,no,z,1,0.850302121117,3,662
2019_Nov_01,27,001,4,recog,66,CIVILITY,LF,target,left,aqua,imageability,liberal,no,z,1,1.58365319825,3,665
2019_Nov_01,27,001,4,recog,67,ENSCONCED,LF,lure,-,-,-,liberal,no,m,1,1.36685957545,1,666
2019_Nov_01,27,001,4,recog,68,PEOPLED,LF,lure,-,-,-,conservative,no,m,1,1.18358376281,3,669
2019_Nov_01,27,001,4,recog,69,ANSWER,HF,lure,-,-,-,liberal,no,m,1,1.20022407041,1,670
2019_Nov_01,27,001,4,recog,70,ARRIVED,HF,lure,-,-,-,conservative,no,m,1,0.950382994698,3,673
2019_Nov_01,27,001,4,recog,71,JASMINE,LF,lure,-,-,-,conservative,no,m,1,0.83355513078,3,676
2019_Nov_01,27,001,4,recog,72,REQUIRED,HF,target,left,aqua,imageability,conservative,no,z,1,0.78355612062,1,677
2019_Nov_01,27,001,4,recog,73,SOCIAL,HF,target,right,yellow,pleasantness,liberal,no,z,1,0.650230925969,3,680
2019_Nov_01,27,001,4,recog,74,NOXIOUS,LF,lure,-,-,-,liberal,no,m,1,0.750341128139,1,681
2019_Nov_01,27,001,4,recog,75,TACITLY,LF,lure,-,-,-,conservative,no,m,1,1.8499971038,3,684
2019_Nov_01,27,001,4,recog,76,HOSPITAL,HF,target,left,aqua,imageability,conservative,no,z,1,0.800311542926,1,685
2019_Nov_01,27,001,4,recog,77,APART,HF,lure,-,-,-,conservative,no,z,0,1.73358937191,-3,682
2019_Nov_01,27,001,4,recog,78,TOADS,LF,lure,-,-,-,conservative,no,m,1,0.883641760097,3,685
2019_Nov_01,27,001,4,recog,79,SEEMED,HF,target,right,yellow,pleasantness,liberal,yes,z,1,1.18358046335,3,688
2019_Nov_01,27,001,4,recog,80,CHIEF,HF,target,left,aqua,imageability,liberal,no,z,1,1.01700984781,3,691
2019_Nov_01,27,001,4,recog,81,DECIDED,HF,target,right,yellow,pleasantness,conservative,no,m,0,0.866972857125,-1,690
2019_Nov_01,27,001,4,recog,82,LONGER,HF,lure,-,-,-,conservative,no,m,1,0.717033383998,3,693
2019_Nov_01,27,001,4,recog,83,REREAD,LF,target,right,yellow,pleasantness,conservative,no,z,1,0.916746037158,1,694
2019_Nov_01,27,001,4,recog,84,WRONG,HF,target,right,yellow,pleasantness,conservative,no,z,1,0.850353446146,1,695
2019_Nov_01,27,001,4,recog,85,AVAILABLE,HF,lure,-,-,-,conservative,no,m,1,1.20029262599,3,698
2019_Nov_01,27,001,4,recog,86,BIJOU,LF,lure,-,-,-,conservative,no,m,1,0.733599636912,3,701
2019_Nov_01,27,001,4,recog,87,MEETING,HF,lure,-,-,-,liberal,no,m,1,1.41694620477,1,702
2019_Nov_01,27,001,4,recog,88,COMES,HF,lure,-,-,-,liberal,no,m,1,0.950306373762,1,703
2019_Nov_01,27,001,4,recog,89,SMALL,HF,lure,-,-,-,conservative,no,m,1,1.03354053981,3,706
2019_Nov_01,27,001,4,recog,90,WEDGES,LF,target,left,aqua,imageability,liberal,no,z,1,0.616954710061,3,709
2019_Nov_01,27,001,4,recog,91,HEEDED,LF,lure,-,-,-,liberal,no,m,1,0.983610451829,1,710
2019_Nov_01,27,001,4,recog,92,BASIC,HF,lure,-,-,-,conservative,no,m,1,1.36685774242,3,713
2019_Nov_01,27,001,4,recog,93,GANGWAY,LF,target,left,aqua,imageability,liberal,no,z,1,0.800223923769,3,716
2019_Nov_01,27,001,4,recog,94,ROMANCES,LF,lure,-,-,-,conservative,no,m,1,0.700324154218,3,719
2019_Nov_01,27,001,4,recog,95,NEOLITHIC,LF,lure,-,-,-,liberal,no,z,0,1.06700519189,-1,718
