date,subj,session,cycle,task,trial,item,wf,type,source,colour,encoding,bias,null,response,corr,rt,points,total
2019_Nov_01,28,001,0,source,0,LIKELY,HF,target,right,aqua,pleasantness,conservative,yes,3,0,4.85005796062,-,-
2019_Nov_01,28,001,0,source,1,YOUNG,HF,target,right,aqua,pleasantness,conservative,no,8,1,5.16663293879,-,-
2019_Nov_01,28,001,0,source,2,SOVIET,HF,target,left,yellow,imageability,conservative,no,2,1,4.08343836634,-,-
2019_Nov_01,28,001,0,source,3,FORCE,HF,target,right,aqua,pleasantness,liberal,no,1,0,2.43350219268,-,-
2019_Nov_01,28,001,0,source,4,OUGHT,HF,target,right,aqua,pleasantness,conservative,yes,3,0,4.38341702979,-,-
2019_Nov_01,28,001,0,source,5,SORRY,HF,target,left,yellow,imageability,liberal,no,2,1,4.38336863762,-,-
2019_Nov_01,28,001,0,source,6,DUELLING,LF,target,left,yellow,imageability,liberal,no,1,1,1.48362951541,-,-
2019_Nov_01,28,001,0,source,7,ACQUIRES,LF,target,right,aqua,pleasantness,conservative,no,7,1,4.40007456794,-,-
2019_Nov_01,28,001,0,source,8,GARDEN,HF,target,left,yellow,imageability,liberal,no,1,1,1.66687086696,-,-
2019_Nov_01,28,001,0,source,9,OVARIES,LF,target,left,yellow,imageability,conservative,no,1,1,1.71686511123,-,-
2019_Nov_01,28,001,0,source,10,PUTTS,LF,target,left,yellow,imageability,liberal,no,1,1,1.41690954404,-,-
2019_Nov_01,28,001,0,source,11,USUAL,HF,target,right,aqua,pleasantness,conservative,no,8,1,3.06682005518,-,-
2019_Nov_01,28,001,0,source,12,KENNEL,LF,target,right,aqua,pleasantness,liberal,no,8,1,2.73349405399,-,-
2019_Nov_01,28,001,0,source,13,BUCKED,LF,target,left,yellow,imageability,liberal,no,8,0,3.28351212774,-,-
2019_Nov_01,28,001,0,source,14,SHUNNED,LF,target,right,aqua,pleasantness,liberal,yes,7,1,2.35018260712,-,-
2019_Nov_01,28,001,0,source,15,ROSEBUD,LF,target,right,aqua,pleasantness,liberal,no,7,1,4.46677620894,-,-
2019_Nov_01,28,001,0,source,16,ELATION,LF,target,right,aqua,pleasantness,conservative,no,9,1,3.15014037395,-,-
2019_Nov_01,28,001,0,source,17,FOOLHARDY,LF,target,right,aqua,pleasantness,liberal,no,9,1,1.68353573725,-,-
2019_Nov_01,28,001,0,source,18,HOTEL,HF,target,left,yellow,imageability,liberal,no,2,1,3.01680748055,-,-
2019_Nov_01,28,001,0,source,19,ENDEARING,LF,target,right,aqua,pleasantness,conservative,no,7,1,2.30016343356,-,-
2019_Nov_01,28,001,0,source,20,SLOWLY,HF,target,left,yellow,imageability,conservative,no,2,1,1.7835300915,-,-
2019_Nov_01,28,001,0,source,21,NERVY,LF,target,left,yellow,imageability,conservative,no,1,1,1.41693154048,-,-
2019_Nov_01,28,001,0,source,22,TAKEN,HF,target,right,aqua,pleasantness,conservative,no,9,1,3.93348129606,-,-
2019_Nov_01,28,001,0,source,23,BEAUTIFUL,HF,target,left,yellow,imageability,liberal,no,1,1,1.40021901123,-,-
2019_Nov_01,28,001,0,source,24,SUSPEND,LF,target,left,yellow,imageability,conservative,no,8,0,2.78352715864,-,-
2019_Nov_01,28,001,0,source,25,SADDER,LF,target,left,yellow,imageability,liberal,no,8,0,2.16683970534,-,-
2019_Nov_01,28,001,0,source,26,VENDETTA,LF,target,left,yellow,imageability,conservative,no,8,0,1.63353965995,-,-
2019_Nov_01,28,001,0,source,27,RATHER,HF,target,right,aqua,pleasantness,conservative,no,9,1,2.88343792641,-,-
2019_Nov_01,28,001,0,source,28,CLOSE,HF,target,right,aqua,pleasantness,liberal,no,8,1,3.03353980659,-,-
2019_Nov_01,28,001,0,source,29,ALKALINE,LF,target,left,yellow,imageability,liberal,no,1,1,1.45027631196,-,-
2019_Nov_01,28,001,0,source,30,LIFEBOAT,LF,target,left,yellow,imageability,liberal,no,1,1,1.30017369856,-,-
2019_Nov_01,28,001,0,source,31,VIVACIOUS,LF,target,right,aqua,pleasantness,conservative,no,8,1,2.95026128106,-,-
2019_Nov_01,28,001,0,source,32,PAPER,HF,target,left,yellow,imageability,conservative,no,2,1,1.4168827817,-,-
2019_Nov_01,28,001,0,source,33,EVOCATION,LF,target,right,aqua,pleasantness,conservative,no,9,1,2.15015943754,-,-
2019_Nov_01,28,001,0,source,34,SLACKEN,LF,target,left,yellow,imageability,conservative,no,9,0,1.41671267589,-,-
2019_Nov_01,28,001,0,source,35,TWENTY,HF,target,right,aqua,pleasantness,liberal,no,7,1,2.53359186484,-,-
2019_Nov_01,28,001,0,source,36,OTHERS,HF,target,right,aqua,pleasantness,liberal,yes,3,0,2.45000648895,-,-
2019_Nov_01,28,001,0,source,37,GIPSY,LF,target,right,aqua,pleasantness,liberal,no,2,0,1.96685686256,-,-
2019_Nov_01,28,001,0,source,38,SUPPORT,HF,target,left,yellow,imageability,liberal,no,3,1,2.03349214764,-,-
2019_Nov_01,28,001,0,source,39,TODAY,HF,target,left,yellow,imageability,conservative,no,1,1,1.35021743482,-,-
2019_Nov_01,28,001,0,source,40,HANDS,HF,target,left,yellow,imageability,liberal,no,1,1,1.20021820469,-,-
2019_Nov_01,28,001,0,source,41,SAYING,HF,target,right,aqua,pleasantness,liberal,no,7,1,1.76689858248,-,-
2019_Nov_01,28,001,0,source,42,IRISES,LF,target,left,yellow,imageability,conservative,no,7,0,1.9835543609,-,-
2019_Nov_01,28,001,0,source,43,CHURCH,HF,target,left,yellow,imageability,conservative,no,1,1,1.66683090676,-,-
2019_Nov_01,28,001,0,source,44,ABOVE,HF,target,right,aqua,pleasantness,liberal,no,9,1,2.20025229918,-,-
2019_Nov_01,28,001,0,source,45,BAGGY,LF,target,right,aqua,pleasantness,liberal,no,9,1,1.20022956952,-,-
2019_Nov_01,28,001,0,source,46,ENERGY,HF,target,left,yellow,imageability,conservative,no,9,0,1.78353339096,-,-
2019_Nov_01,28,001,0,source,47,GLIDED,LF,target,right,aqua,pleasantness,conservative,no,7,1,1.51698125243,-,-
2019_Nov_01,28,001,0,recog,0,HANDS,HF,target,left,yellow,imageability,liberal,no,z,1,7.3665772878,3,3
2019_Nov_01,28,001,0,recog,1,MERELY,HF,lure,-,-,-,conservative,no,m,1,1.66666739988,3,6
2019_Nov_01,28,001,0,recog,2,NIGHT,HF,lure,-,-,-,conservative,no,m,1,1.4666493628,3,9
2019_Nov_01,28,001,0,recog,3,TITAN,LF,lure,-,-,-,liberal,no,m,1,2.28355208794,1,10
2019_Nov_01,28,001,0,recog,4,SENSE,HF,lure,-,-,-,conservative,no,m,1,2.1002814078,3,13
2019_Nov_01,28,001,0,recog,5,TOTAL,HF,lure,-,-,-,liberal,no,m,1,1.13362251321,1,14
2019_Nov_01,28,001,0,recog,6,VENDETTA,LF,target,left,yellow,imageability,conservative,no,z,1,1.45011720437,1,15
2019_Nov_01,28,001,0,recog,7,GIPSY,LF,target,right,aqua,pleasantness,liberal,no,z,1,1.1335821864,3,18
2019_Nov_01,28,001,0,recog,8,YOGHURT,LF,lure,-,-,-,liberal,no,m,1,1.4335780804,1,19
2019_Nov_01,28,001,0,recog,9,BUCKED,LF,target,left,yellow,imageability,liberal,no,z,1,1.10024584689,3,22
2019_Nov_01,28,001,0,recog,10,LEDGES,LF,lure,-,-,-,liberal,no,m,1,1.13355615728,1,23
2019_Nov_01,28,001,0,recog,11,CLOSE,HF,target,right,aqua,pleasantness,liberal,no,z,1,1.11690485146,3,26
2019_Nov_01,28,001,0,recog,12,ABOVE,HF,target,right,aqua,pleasantness,liberal,no,z,1,1.15025915474,3,29
2019_Nov_01,28,001,0,recog,13,SUPPORT,HF,target,left,yellow,imageability,liberal,no,z,1,1.01689326667,3,32
2019_Nov_01,28,001,0,recog,14,LUCERNE,LF,lure,-,-,-,liberal,no,m,1,1.18350457563,1,33
2019_Nov_01,28,001,0,recog,15,SUSPEND,LF,target,left,yellow,imageability,conservative,no,z,1,0.850078490634,1,34
2019_Nov_01,28,001,0,recog,16,BAGGY,LF,target,right,aqua,pleasantness,liberal,no,z,1,1.11690595128,3,37
2019_Nov_01,28,001,0,recog,17,OTHERS,HF,target,right,aqua,pleasantness,liberal,no,z,1,1.3501815073,3,40
2019_Nov_01,28,001,0,recog,18,TELEPHONE,HF,lure,-,-,-,liberal,no,m,1,1.08356227962,1,41
2019_Nov_01,28,001,0,recog,19,FILAMENTS,LF,lure,-,-,-,conservative,no,m,1,1.05015518489,3,44
2019_Nov_01,28,001,0,recog,20,SAYING,HF,target,right,aqua,pleasantness,liberal,no,z,1,1.36697432356,3,47
2019_Nov_01,28,001,0,recog,21,MYSELF,HF,lure,-,-,-,conservative,no,m,1,1.53354237284,3,50
2019_Nov_01,28,001,0,recog,22,YEARN,LF,lure,-,-,-,liberal,no,m,1,0.983672775078,1,51
2019_Nov_01,28,001,0,recog,23,NERVY,LF,target,left,yellow,imageability,conservative,no,z,1,0.883774105349,1,52
2019_Nov_01,28,001,0,recog,24,FREEDOM,HF,lure,-,-,-,liberal,no,m,1,1.05002503928,1,53
2019_Nov_01,28,001,0,recog,25,PACIFISM,LF,lure,-,-,-,conservative,no,m,1,2.48350010302,3,56
2019_Nov_01,28,001,0,recog,26,ACQUIRES,LF,target,right,aqua,pleasantness,conservative,no,z,1,1.10034336444,1,57
2019_Nov_01,28,001,0,recog,27,DIETING,LF,lure,-,-,-,conservative,no,m,1,1.01689949899,3,60
2019_Nov_01,28,001,0,recog,28,SLOWLY,HF,target,left,yellow,imageability,conservative,no,z,1,0.883337109389,1,61
2019_Nov_01,28,001,0,recog,29,EXPECT,HF,lure,-,-,-,liberal,no,m,1,2.46687702596,1,62
2019_Nov_01,28,001,0,recog,30,SAWDUST,LF,lure,-,-,-,liberal,no,m,1,0.883624529551,1,63
2019_Nov_01,28,001,0,recog,31,SMUDGE,LF,lure,-,-,-,liberal,no,m,1,0.933608875417,1,64
2019_Nov_01,28,001,0,recog,32,POETICAL,LF,lure,-,-,-,conservative,no,m,1,0.833594724373,3,67
2019_Nov_01,28,001,0,recog,33,SADDER,LF,target,left,yellow,imageability,liberal,no,z,1,1.05026883317,3,70
2019_Nov_01,28,001,0,recog,34,FOOLHARDY,LF,target,right,aqua,pleasantness,liberal,yes,z,1,1.48358332288,3,73
2019_Nov_01,28,001,0,recog,35,DUELLING,LF,target,left,yellow,imageability,liberal,no,z,1,1.08359564089,3,76
2019_Nov_01,28,001,0,recog,36,TULIPS,LF,lure,-,-,-,conservative,no,m,1,0.950230852648,3,79
2019_Nov_01,28,001,0,recog,37,SUFFERER,LF,lure,-,-,-,liberal,no,m,1,1.23355307778,1,80
2019_Nov_01,28,001,0,recog,38,FARAWAY,LF,lure,-,-,-,conservative,no,m,1,0.866938396034,3,83
2019_Nov_01,28,001,0,recog,39,OVARIES,LF,target,left,yellow,imageability,conservative,no,z,1,0.883587502209,1,84
2019_Nov_01,28,001,0,recog,40,NEARLY,HF,lure,-,-,-,liberal,no,m,1,0.966708386583,1,85
2019_Nov_01,28,001,0,recog,41,UNTIL,HF,lure,-,-,-,liberal,no,m,1,0.883575037559,1,86
2019_Nov_01,28,001,0,recog,42,GROUND,HF,lure,-,-,-,conservative,no,m,1,0.783527525246,3,89
2019_Nov_01,28,001,0,recog,43,LIKELY,HF,target,right,aqua,pleasantness,conservative,no,m,0,1.30030164453,-1,88
2019_Nov_01,28,001,0,recog,44,UNNAMED,LF,lure,-,-,-,conservative,no,m,1,1.3335609965,3,91
2019_Nov_01,28,001,0,recog,45,PERHAPS,HF,lure,-,-,-,liberal,no,m,1,0.850230999291,1,92
2019_Nov_01,28,001,0,recog,46,HUDDLE,LF,lure,-,-,-,conservative,no,m,1,0.966900122226,3,95
2019_Nov_01,28,001,0,recog,47,EVOCATION,LF,target,right,aqua,pleasantness,conservative,no,z,1,1.00026908979,1,96
2019_Nov_01,28,001,0,recog,48,SLACKEN,LF,target,left,yellow,imageability,conservative,no,z,1,0.73360953531,1,97
2019_Nov_01,28,001,0,recog,49,MAKES,HF,lure,-,-,-,liberal,no,m,1,0.983567192162,1,98
2019_Nov_01,28,001,0,recog,50,BASIC,HF,lure,-,-,-,conservative,yes,m,1,1.85014484656,3,101
2019_Nov_01,28,001,0,recog,51,ELATION,LF,target,right,aqua,pleasantness,conservative,no,z,1,1.5169497242,1,102
2019_Nov_01,28,001,0,recog,52,TRADE,HF,lure,-,-,-,conservative,no,m,1,0.833570894896,3,105
2019_Nov_01,28,001,0,recog,53,VIVACIOUS,LF,target,right,aqua,pleasantness,conservative,no,z,1,0.633602716414,1,106
2019_Nov_01,28,001,0,recog,54,USUAL,HF,target,right,aqua,pleasantness,conservative,no,z,1,0.933535553947,1,107
2019_Nov_01,28,001,0,recog,55,TWENTY,HF,target,right,aqua,pleasantness,liberal,no,z,1,0.733616134243,3,110
2019_Nov_01,28,001,0,recog,56,TAKEN,HF,target,right,aqua,pleasantness,conservative,no,z,1,0.75024691005,1,111
2019_Nov_01,28,001,0,recog,57,INUNDATED,LF,lure,-,-,-,conservative,no,m,1,2.15023202579,3,114
2019_Nov_01,28,001,0,recog,58,SOVIET,HF,target,left,yellow,imageability,conservative,no,z,1,0.900274735548,1,115
2019_Nov_01,28,001,0,recog,59,BIBLES,LF,lure,-,-,-,liberal,no,m,1,0.98355069483,1,116
2019_Nov_01,28,001,0,recog,60,ROSEBUD,LF,target,right,aqua,pleasantness,liberal,no,z,1,0.7336788241,3,119
2019_Nov_01,28,001,0,recog,61,CANNOT,HF,lure,-,-,-,liberal,no,m,1,0.916911010465,1,120
2019_Nov_01,28,001,0,recog,62,FORCE,HF,target,right,aqua,pleasantness,liberal,no,z,1,0.916708276601,3,123
2019_Nov_01,28,001,0,recog,63,TODAY,HF,target,left,yellow,imageability,conservative,no,z,1,0.56684241823,1,124
2019_Nov_01,28,001,0,recog,64,HOTEL,HF,target,left,yellow,imageability,liberal,no,z,1,0.600305603887,3,127
2019_Nov_01,28,001,0,recog,65,RATHER,HF,target,right,aqua,pleasantness,conservative,no,z,1,0.816943051947,1,128
2019_Nov_01,28,001,0,recog,66,INVOLVED,HF,lure,-,-,-,liberal,no,m,1,1.08331115359,1,129
2019_Nov_01,28,001,0,recog,67,INCLUDING,HF,lure,-,-,-,conservative,no,m,1,1.05023327226,3,132
2019_Nov_01,28,001,0,recog,68,CARRIED,HF,lure,-,-,-,conservative,no,m,1,0.933607042381,3,135
2019_Nov_01,28,001,0,recog,69,KENNEL,LF,target,right,aqua,pleasantness,liberal,no,z,1,0.750254975411,3,138
2019_Nov_01,28,001,0,recog,70,IRISES,LF,target,left,yellow,imageability,conservative,no,z,1,1.13330026535,1,139
2019_Nov_01,28,001,0,recog,71,PUTTS,LF,target,left,yellow,imageability,liberal,no,z,1,1.45017732798,3,142
2019_Nov_01,28,001,0,recog,72,FATHER,HF,lure,-,-,-,conservative,no,m,1,1.03357096822,3,145
2019_Nov_01,28,001,0,recog,73,ENDEARING,LF,target,right,aqua,pleasantness,conservative,no,z,1,0.68353720368,1,146
2019_Nov_01,28,001,0,recog,74,ARDENTLY,LF,lure,-,-,-,liberal,no,m,1,1.00024269407,1,147
2019_Nov_01,28,001,0,recog,75,ALKALINE,LF,target,left,yellow,imageability,liberal,no,z,1,0.617013367238,3,150
2019_Nov_01,28,001,0,recog,76,GLIDED,LF,target,right,aqua,pleasantness,conservative,no,z,1,0.733631898359,1,151
2019_Nov_01,28,001,0,recog,77,ENERGY,HF,target,left,yellow,imageability,conservative,no,z,1,0.63363497786,1,152
2019_Nov_01,28,001,0,recog,78,SHUNNED,LF,target,right,aqua,pleasantness,liberal,no,m,0,1.18359659407,-3,149
2019_Nov_01,28,001,0,recog,79,FINAL,HF,lure,-,-,-,conservative,no,m,1,0.950290609646,3,152
2019_Nov_01,28,001,0,recog,80,GARDEN,HF,target,left,yellow,imageability,liberal,no,z,1,0.55028679693,3,155
2019_Nov_01,28,001,0,recog,81,NECESSARY,HF,lure,-,-,-,liberal,no,m,1,0.916696178559,1,156
2019_Nov_01,28,001,0,recog,82,PAPER,HF,target,left,yellow,imageability,conservative,no,z,1,0.616936379693,1,157
2019_Nov_01,28,001,0,recog,83,SORRY,HF,target,left,yellow,imageability,liberal,no,z,1,0.733331646939,3,160
2019_Nov_01,28,001,0,recog,84,KETCHUP,LF,lure,-,-,-,conservative,yes,z,0,0.633574854255,-3,157
2019_Nov_01,28,001,0,recog,85,HOARD,LF,lure,-,-,-,conservative,yes,z,0,1.33354999828,-3,154
2019_Nov_01,28,001,0,recog,86,URBANE,LF,lure,-,-,-,liberal,no,m,1,1.65003699068,1,155
2019_Nov_01,28,001,0,recog,87,BEAUTIFUL,HF,target,left,yellow,imageability,liberal,no,z,1,0.850250062873,3,158
2019_Nov_01,28,001,0,recog,88,YOUNG,HF,target,right,aqua,pleasantness,conservative,no,z,1,1.30001495758,1,159
2019_Nov_01,28,001,0,recog,89,TOUSLED,LF,lure,-,-,-,conservative,no,m,1,0.933620973459,3,162
2019_Nov_01,28,001,0,recog,90,WINDOW,HF,lure,-,-,-,conservative,no,m,1,1.05026076781,3,165
2019_Nov_01,28,001,0,recog,91,SEVEN,HF,lure,-,-,-,liberal,no,m,1,1.06694800115,1,166
2019_Nov_01,28,001,0,recog,92,LAUNCHER,LF,lure,-,-,-,liberal,no,m,1,1.08355421426,1,167
2019_Nov_01,28,001,0,recog,93,OUGHT,HF,target,right,aqua,pleasantness,conservative,no,z,1,1.65016090397,1,168
2019_Nov_01,28,001,0,recog,94,LIFEBOAT,LF,target,left,yellow,imageability,liberal,no,z,1,0.666954820043,3,171
2019_Nov_01,28,001,0,recog,95,CHURCH,HF,target,left,yellow,imageability,conservative,no,z,1,0.550297428543,1,172
2019_Nov_01,28,001,1,source,0,TICKLE,LF,target,right,aqua,pleasantness,conservative,no,8,1,2.63345973955,-,-
2019_Nov_01,28,001,1,source,1,SANDAL,LF,target,left,yellow,imageability,liberal,no,1,1,2.71678629064,-,-
2019_Nov_01,28,001,1,source,2,LATER,HF,target,right,aqua,pleasantness,conservative,no,9,1,1.86685957545,-,-
2019_Nov_01,28,001,1,source,3,TRIED,HF,target,right,aqua,pleasantness,liberal,no,9,1,1.28333395657,-,-
2019_Nov_01,28,001,1,source,4,INITIATES,LF,target,left,yellow,imageability,conservative,no,1,1,1.75019888449,-,-
2019_Nov_01,28,001,1,source,5,DUNGEON,LF,target,right,aqua,pleasantness,liberal,no,9,1,1.23356737547,-,-
2019_Nov_01,28,001,1,source,6,REQUIRED,HF,target,left,yellow,imageability,liberal,yes,2,1,1.71687500962,-,-
2019_Nov_01,28,001,1,source,7,ELECTING,LF,target,right,aqua,pleasantness,liberal,no,9,1,1.61700090259,-,-
2019_Nov_01,28,001,1,source,8,GERANIUMS,LF,target,left,yellow,imageability,conservative,no,1,1,1.03356326946,-,-
2019_Nov_01,28,001,1,source,9,EPIDEMICS,LF,target,right,aqua,pleasantness,liberal,no,9,1,1.55028753014,-,-
2019_Nov_01,28,001,1,source,10,UGLIEST,LF,target,right,aqua,pleasantness,conservative,no,9,1,1.26688831747,-,-
2019_Nov_01,28,001,1,source,11,HUMAN,HF,target,left,yellow,imageability,conservative,no,1,1,1.03360432949,-,-
2019_Nov_01,28,001,1,source,12,HUBBUB,LF,target,left,yellow,imageability,conservative,no,1,1,0.916896346172,-,-
2019_Nov_01,28,001,1,source,13,GAUCHE,LF,target,right,aqua,pleasantness,liberal,no,2,0,1.53360579592,-,-
2019_Nov_01,28,001,1,source,14,DURING,HF,target,left,yellow,imageability,liberal,no,3,1,1.78357445099,-,-
2019_Nov_01,28,001,1,source,15,SUMMER,HF,target,right,aqua,pleasantness,liberal,no,9,1,1.43363600436,-,-
2019_Nov_01,28,001,1,source,16,NOTHING,HF,target,left,yellow,imageability,conservative,yes,7,0,1.6668580357,-,-
2019_Nov_01,28,001,1,source,17,FUELLED,LF,target,left,yellow,imageability,liberal,no,1,1,1.18335463322,-,-
2019_Nov_01,28,001,1,source,18,OFFER,HF,target,left,yellow,imageability,conservative,no,2,1,2.36678075487,-,-
2019_Nov_01,28,001,1,source,19,SPEAK,HF,target,left,yellow,imageability,conservative,no,2,1,1.20021233898,-,-
2019_Nov_01,28,001,1,source,20,EDUCATION,HF,target,left,yellow,imageability,liberal,no,2,1,5.40013909083,-,-
2019_Nov_01,28,001,1,source,21,CIPHER,LF,target,right,aqua,pleasantness,conservative,no,2,0,0.833612688134,-,-
2019_Nov_01,28,001,1,source,22,SOCIAL,HF,target,right,aqua,pleasantness,liberal,no,8,1,1.48359028842,-,-
2019_Nov_01,28,001,1,source,23,SHALL,HF,target,right,aqua,pleasantness,liberal,no,8,1,1.48351073463,-,-
2019_Nov_01,28,001,1,source,24,SECOND,HF,target,right,aqua,pleasantness,liberal,no,9,1,1.00029365249,-,-
2019_Nov_01,28,001,1,source,25,WAYSIDE,LF,target,left,yellow,imageability,liberal,no,1,1,1.200063863,-,-
2019_Nov_01,28,001,1,source,26,STEADFAST,LF,target,left,yellow,imageability,liberal,no,7,0,1.46671791837,-,-
2019_Nov_01,28,001,1,source,27,MAJOR,HF,target,right,aqua,pleasantness,conservative,no,9,1,1.15024265741,-,-
2019_Nov_01,28,001,1,source,28,MOTHER,HF,target,left,yellow,imageability,liberal,no,1,1,0.966639831008,-,-
2019_Nov_01,28,001,1,source,29,DALES,LF,target,left,yellow,imageability,conservative,no,1,1,1.00019906779,-,-
2019_Nov_01,28,001,1,source,30,KRAALS,LF,target,right,aqua,pleasantness,conservative,no,2,0,1.66676895012,-,-
2019_Nov_01,28,001,1,source,31,SCHOOL,HF,target,right,aqua,pleasantness,conservative,no,9,1,0.900278035015,-,-
2019_Nov_01,28,001,1,source,32,OFTEN,HF,target,left,yellow,imageability,conservative,no,8,0,1.13335012395,-,-
2019_Nov_01,28,001,1,source,33,HEEDED,LF,target,left,yellow,imageability,conservative,no,8,0,1.83334763102,-,-
2019_Nov_01,28,001,1,source,34,GNOMES,LF,target,right,aqua,pleasantness,liberal,no,9,1,1.48333586292,-,-
2019_Nov_01,28,001,1,source,35,BETTER,HF,target,left,yellow,imageability,conservative,no,1,1,3.00014847598,-,-
2019_Nov_01,28,001,1,source,36,BEHIND,HF,target,right,aqua,pleasantness,conservative,no,9,1,1.01686760415,-,-
2019_Nov_01,28,001,1,source,37,GIVEN,HF,target,left,yellow,imageability,liberal,no,1,1,0.816704023955,-,-
2019_Nov_01,28,001,1,source,38,DWINDLE,LF,target,left,yellow,imageability,liberal,no,1,1,0.883608398828,-,-
2019_Nov_01,28,001,1,source,39,SILENCER,LF,target,left,yellow,imageability,conservative,yes,2,1,1.16684117176,-,-
2019_Nov_01,28,001,1,source,40,MOMENT,HF,target,right,aqua,pleasantness,conservative,no,9,1,1.78358104992,-,-
2019_Nov_01,28,001,1,source,41,HAGGLING,LF,target,right,aqua,pleasantness,conservative,no,9,1,0.933586145761,-,-
2019_Nov_01,28,001,1,source,42,PLACE,HF,target,right,aqua,pleasantness,liberal,no,9,1,0.8002902797,-,-
2019_Nov_01,28,001,1,source,43,PURCHASER,LF,target,left,yellow,imageability,liberal,yes,7,0,1.08354468247,-,-
2019_Nov_01,28,001,1,source,44,UNSAVOURY,LF,target,right,aqua,pleasantness,conservative,no,9,1,0.983665442932,-,-
2019_Nov_01,28,001,1,source,45,EFFECT,HF,target,right,aqua,pleasantness,conservative,no,9,1,0.600201487399,-,-
2019_Nov_01,28,001,1,source,46,TAMING,LF,target,right,aqua,pleasantness,liberal,no,9,1,0.900234042132,-,-
2019_Nov_01,28,001,1,source,47,MOVED,HF,target,left,yellow,imageability,liberal,no,9,0,1.43364223669,-,-
2019_Nov_01,28,001,1,recog,0,BREAK,HF,lure,-,-,-,conservative,no,z,0,1.55022703993,-3,169
2019_Nov_01,28,001,1,recog,1,BOGEY,LF,lure,-,-,-,liberal,no,m,1,1.8501917723,1,170
2019_Nov_01,28,001,1,recog,2,MOTHER,HF,target,left,yellow,imageability,liberal,no,z,1,1.18358962853,3,173
2019_Nov_01,28,001,1,recog,3,ENCLOSE,LF,lure,-,-,-,liberal,no,m,1,1.46688032543,1,174
2019_Nov_01,28,001,1,recog,4,MOVED,HF,target,left,yellow,imageability,liberal,no,z,1,1.01689766596,3,177
2019_Nov_01,28,001,1,recog,5,STEADFAST,LF,target,left,yellow,imageability,liberal,no,z,1,0.816939752482,3,180
2019_Nov_01,28,001,1,recog,6,UNDER,HF,lure,-,-,-,conservative,no,m,1,1.70020390701,3,183
2019_Nov_01,28,001,1,recog,7,UNSAVOURY,LF,target,right,aqua,pleasantness,conservative,no,z,1,0.883611698294,1,184
2019_Nov_01,28,001,1,recog,8,USHERS,LF,lure,-,-,-,conservative,no,m,1,0.950227553182,3,187
2019_Nov_01,28,001,1,recog,9,UGLIEST,LF,target,right,aqua,pleasantness,conservative,no,z,1,0.733575440827,1,188
2019_Nov_01,28,001,1,recog,10,MALIGNED,LF,lure,-,-,-,conservative,no,m,1,1.20022773649,3,191
2019_Nov_01,28,001,1,recog,11,NOTHING,HF,target,left,yellow,imageability,conservative,no,z,1,0.9168578524,1,192
2019_Nov_01,28,001,1,recog,12,GASEOUS,LF,lure,-,-,-,conservative,no,m,1,1.11683116338,3,195
2019_Nov_01,28,001,1,recog,13,KRAALS,LF,target,right,aqua,pleasantness,conservative,no,z,1,0.633617747315,1,196
2019_Nov_01,28,001,1,recog,14,LAPELS,LF,lure,-,-,-,liberal,yes,z,0,1.41691211029,-1,195
2019_Nov_01,28,001,1,recog,15,OFTEN,HF,target,left,yellow,imageability,conservative,no,z,1,0.783579216883,1,196
2019_Nov_01,28,001,1,recog,16,SWEARS,LF,lure,-,-,-,conservative,no,m,1,0.950336802172,3,199
2019_Nov_01,28,001,1,recog,17,HIMSELF,HF,lure,-,-,-,liberal,no,m,1,0.999997067142,1,200
2019_Nov_01,28,001,1,recog,18,PASSED,HF,lure,-,-,-,conservative,no,m,1,0.966937516177,3,203
2019_Nov_01,28,001,1,recog,19,CHIEF,HF,lure,-,-,-,liberal,no,m,1,0.883624162944,1,204
2019_Nov_01,28,001,1,recog,20,DWINDLE,LF,target,left,yellow,imageability,liberal,no,z,1,0.750203283776,3,207
2019_Nov_01,28,001,1,recog,21,ZEBRA,LF,lure,-,-,-,conservative,no,m,1,1.13358438605,3,210
2019_Nov_01,28,001,1,recog,22,AXIOM,LF,lure,-,-,-,liberal,yes,m,1,1.4169124769,1,211
2019_Nov_01,28,001,1,recog,23,SOLEMNITY,LF,lure,-,-,-,conservative,no,m,1,1.03357720054,3,214
2019_Nov_01,28,001,1,recog,24,MAJOR,HF,target,right,aqua,pleasantness,conservative,no,z,1,0.733690188928,1,215
2019_Nov_01,28,001,1,recog,25,DURING,HF,target,left,yellow,imageability,liberal,no,z,1,0.617048561543,3,218
2019_Nov_01,28,001,1,recog,26,HAPPEN,HF,lure,-,-,-,liberal,no,m,1,1.0169346933,1,219
2019_Nov_01,28,001,1,recog,27,GNOMES,LF,target,right,aqua,pleasantness,liberal,no,z,1,0.600274808869,3,222
2019_Nov_01,28,001,1,recog,28,SILENCER,LF,target,left,yellow,imageability,conservative,no,z,1,0.850272425922,1,223
2019_Nov_01,28,001,1,recog,29,PURCHASER,LF,target,left,yellow,imageability,liberal,no,z,1,0.650334675849,3,226
2019_Nov_01,28,001,1,recog,30,REQUIRED,HF,target,left,yellow,imageability,liberal,no,z,1,0.583659063964,3,229
2019_Nov_01,28,001,1,recog,31,EPIDEMICS,LF,target,right,aqua,pleasantness,liberal,no,z,1,0.566884211467,3,232
2019_Nov_01,28,001,1,recog,32,HUBBUB,LF,target,left,yellow,imageability,conservative,no,z,1,0.53358306626,1,233
2019_Nov_01,28,001,1,recog,33,PARENTS,HF,lure,-,-,-,conservative,no,m,1,1.00024672675,3,236
2019_Nov_01,28,001,1,recog,34,DOING,HF,lure,-,-,-,liberal,no,m,1,1.10024108099,1,237
2019_Nov_01,28,001,1,recog,35,MOMENT,HF,target,right,aqua,pleasantness,conservative,no,z,1,1.03357243465,1,238
2019_Nov_01,28,001,1,recog,36,SHALL,HF,target,right,aqua,pleasantness,liberal,no,z,1,0.733632264966,3,241
2019_Nov_01,28,001,1,recog,37,SOPHISTS,LF,lure,-,-,-,liberal,no,m,1,1.00023206245,1,242
2019_Nov_01,28,001,1,recog,38,MORNING,HF,lure,-,-,-,liberal,no,m,1,1.35027902485,1,243
2019_Nov_01,28,001,1,recog,39,EVIDENCE,HF,lure,-,-,-,liberal,no,m,1,0.96671021962,1,244
2019_Nov_01,28,001,1,recog,40,TAMING,LF,target,right,aqua,pleasantness,liberal,no,z,1,0.783634574593,3,247
2019_Nov_01,28,001,1,recog,41,GERANIUMS,LF,target,left,yellow,imageability,conservative,no,z,1,0.550054734477,1,248
2019_Nov_01,28,001,1,recog,42,THEORY,HF,lure,-,-,-,liberal,no,m,1,1.08359710732,1,249
2019_Nov_01,28,001,1,recog,43,DALES,LF,target,left,yellow,imageability,conservative,no,z,1,0.750291269539,1,250
2019_Nov_01,28,001,1,recog,44,LATER,HF,target,right,aqua,pleasantness,conservative,no,z,1,0.666949320933,1,251
2019_Nov_01,28,001,1,recog,45,SANDAL,LF,target,left,yellow,imageability,liberal,no,z,1,0.633544425846,3,254
2019_Nov_01,28,001,1,recog,46,SUNBURN,LF,lure,-,-,-,liberal,no,m,1,1.15026282081,1,255
2019_Nov_01,28,001,1,recog,47,VARIOUS,HF,lure,-,-,-,conservative,no,m,1,1.01686943719,3,258
2019_Nov_01,28,001,1,recog,48,ALTHOUGH,HF,lure,-,-,-,liberal,no,m,1,0.866950494076,1,259
2019_Nov_01,28,001,1,recog,49,JUROR,LF,lure,-,-,-,conservative,no,m,1,0.916916509575,3,262
2019_Nov_01,28,001,1,recog,50,PUPPETS,LF,lure,-,-,-,conservative,no,m,1,0.716890040524,3,265
2019_Nov_01,28,001,1,recog,51,PLACE,HF,target,right,aqua,pleasantness,liberal,no,z,1,1.86681521596,3,268
2019_Nov_01,28,001,1,recog,52,SCHOOL,HF,target,right,aqua,pleasantness,conservative,yes,z,1,1.450228653,1,269
2019_Nov_01,28,001,1,recog,53,EFFECT,HF,target,right,aqua,pleasantness,conservative,no,z,1,0.616923548437,1,270
2019_Nov_01,28,001,1,recog,54,SLIGHTLY,HF,lure,-,-,-,conservative,no,m,1,1.48362474952,3,273
2019_Nov_01,28,001,1,recog,55,SNUBBED,LF,lure,-,-,-,liberal,no,m,1,1.05019294545,1,274
2019_Nov_01,28,001,1,recog,56,ELECTING,LF,target,right,aqua,pleasantness,liberal,no,z,1,0.833563929356,3,277
2019_Nov_01,28,001,1,recog,57,FEELING,HF,lure,-,-,-,conservative,no,m,1,0.833584459368,3,280
2019_Nov_01,28,001,1,recog,58,IGNOBLE,LF,lure,-,-,-,conservative,no,m,1,0.916961968886,3,283
2019_Nov_01,28,001,1,recog,59,DUNGEON,LF,target,right,aqua,pleasantness,liberal,no,z,1,0.583584276063,3,286
2019_Nov_01,28,001,1,recog,60,SEABED,LF,lure,-,-,-,liberal,no,m,1,0.966902688478,1,287
2019_Nov_01,28,001,1,recog,61,PYJAMA,LF,lure,-,-,-,conservative,no,m,1,0.766952473757,3,290
2019_Nov_01,28,001,1,recog,62,SUMMER,HF,target,right,aqua,pleasantness,liberal,no,z,1,0.716920468934,3,293
2019_Nov_01,28,001,1,recog,63,CIPHER,LF,target,right,aqua,pleasantness,conservative,no,z,1,0.666910093947,1,294
2019_Nov_01,28,001,1,recog,64,ODDER,LF,lure,-,-,-,liberal,no,m,1,1.35025299573,1,295
2019_Nov_01,28,001,1,recog,65,GIVEN,HF,target,left,yellow,imageability,liberal,no,z,1,0.883576137381,3,298
2019_Nov_01,28,001,1,recog,66,FUELLED,LF,target,left,yellow,imageability,liberal,no,z,1,0.650243024012,3,301
2019_Nov_01,28,001,1,recog,67,INITIATES,LF,target,left,yellow,imageability,conservative,no,z,1,0.633587318905,1,302
2019_Nov_01,28,001,1,recog,68,TRIED,HF,target,right,aqua,pleasantness,liberal,no,z,1,0.766666520024,3,305
2019_Nov_01,28,001,1,recog,69,CASES,HF,lure,-,-,-,liberal,yes,m,1,0.983554360904,1,306
2019_Nov_01,28,001,1,recog,70,SPEAK,HF,target,left,yellow,imageability,conservative,no,z,1,1.50023059602,1,307
2019_Nov_01,28,001,1,recog,71,SOCIAL,HF,target,right,aqua,pleasantness,liberal,no,z,1,0.666970950767,3,310
2019_Nov_01,28,001,1,recog,72,SECOND,HF,target,right,aqua,pleasantness,liberal,no,z,1,0.616895686278,3,313
2019_Nov_01,28,001,1,recog,73,WAYSIDE,LF,target,left,yellow,imageability,liberal,no,z,1,0.533543839274,3,316
2019_Nov_01,28,001,1,recog,74,MARKET,HF,lure,-,-,-,conservative,no,z,0,0.51671069621,-3,313
2019_Nov_01,28,001,1,recog,75,FOUND,HF,lure,-,-,-,conservative,no,m,1,1.20022480363,3,316
2019_Nov_01,28,001,1,recog,76,OFFER,HF,target,left,yellow,imageability,conservative,no,z,1,0.717030817747,1,317
2019_Nov_01,28,001,1,recog,77,AEONS,LF,lure,-,-,-,conservative,no,m,1,0.833554397565,3,320
2019_Nov_01,28,001,1,recog,78,DAFFODILS,LF,lure,-,-,-,liberal,no,m,1,0.950281077855,1,321
2019_Nov_01,28,001,1,recog,79,HUMAN,HF,target,left,yellow,imageability,conservative,no,z,1,0.55031172623,1,322
2019_Nov_01,28,001,1,recog,80,NEBULOUS,LF,lure,-,-,-,liberal,no,m,1,1.10022714991,1,323
2019_Nov_01,28,001,1,recog,81,HEEDED,LF,target,left,yellow,imageability,conservative,no,z,1,0.55025490209,1,324
2019_Nov_01,28,001,1,recog,82,AEROSOL,LF,lure,-,-,-,liberal,no,m,1,0.916936672979,1,325
2019_Nov_01,28,001,1,recog,83,ROBBERIES,LF,lure,-,-,-,conservative,no,m,1,0.88353617718,3,328
2019_Nov_01,28,001,1,recog,84,BEHIND,HF,target,right,aqua,pleasantness,conservative,no,z,1,0.600292406022,1,329
2019_Nov_01,28,001,1,recog,85,HAGGLING,LF,target,right,aqua,pleasantness,conservative,no,z,1,0.70027686187,1,330
2019_Nov_01,28,001,1,recog,86,CORNER,HF,lure,-,-,-,liberal,no,m,1,1.60015712791,1,331
2019_Nov_01,28,001,1,recog,87,ENTIRELY,HF,lure,-,-,-,conservative,no,m,1,0.950303440904,3,334
2019_Nov_01,28,001,1,recog,88,BETTER,HF,target,left,yellow,imageability,conservative,no,z,1,0.616913283431,1,335
2019_Nov_01,28,001,1,recog,89,SYSTEM,HF,lure,-,-,-,conservative,no,m,1,0.883618297226,3,338
2019_Nov_01,28,001,1,recog,90,SLEEP,HF,lure,-,-,-,liberal,no,m,1,0.816711356102,1,339
2019_Nov_01,28,001,1,recog,91,HAVING,HF,lure,-,-,-,liberal,no,z,0,0.800273049154,-1,338
2019_Nov_01,28,001,1,recog,92,TICKLE,LF,target,right,aqua,pleasantness,conservative,no,z,1,1.15012497645,1,339
2019_Nov_01,28,001,1,recog,93,BUILDING,HF,lure,-,-,-,conservative,no,m,1,0.733627132463,3,342
2019_Nov_01,28,001,1,recog,94,EDUCATION,HF,target,left,yellow,imageability,liberal,no,z,1,0.600303037635,3,345
2019_Nov_01,28,001,1,recog,95,GAUCHE,LF,target,right,aqua,pleasantness,liberal,no,z,1,0.583635234486,3,348
2019_Nov_01,28,001,2,source,0,VEGAN,LF,target,right,aqua,pleasantness,liberal,no,9,1,2.333506372,-,-
2019_Nov_01,28,001,2,source,1,JASMINE,LF,target,right,aqua,pleasantness,conservative,no,9,1,1.16668536364,-,-
2019_Nov_01,28,001,2,source,2,APART,HF,target,right,aqua,pleasantness,conservative,no,9,1,1.333566129,-,-
2019_Nov_01,28,001,2,source,3,SMALL,HF,target,right,aqua,pleasantness,liberal,no,9,1,2.30017956428,-,-
2019_Nov_01,28,001,2,source,4,APPEARED,HF,target,left,yellow,imageability,conservative,no,8,0,2.76665112252,-,-
2019_Nov_01,28,001,2,source,5,SCUFFED,LF,target,left,yellow,imageability,conservative,no,8,0,1.08331408645,-,-
2019_Nov_01,28,001,2,source,6,RUNNING,HF,target,left,yellow,imageability,conservative,no,1,1,1.18355516744,-,-
2019_Nov_01,28,001,2,source,7,ONCOMING,LF,target,right,aqua,pleasantness,liberal,no,8,1,2.28355905348,-,-
2019_Nov_01,28,001,2,source,8,BEGAN,HF,target,left,yellow,imageability,liberal,yes,7,0,1.85017454176,-,-
2019_Nov_01,28,001,2,source,9,AIRBED,LF,target,right,aqua,pleasantness,liberal,no,9,1,1.25046614124,-,-
2019_Nov_01,28,001,2,source,10,LEARN,HF,target,left,yellow,imageability,liberal,no,1,1,1.23355637724,-,-
2019_Nov_01,28,001,2,source,11,SODDING,LF,target,right,aqua,pleasantness,conservative,no,2,0,1.36694059568,-,-
2019_Nov_01,28,001,2,source,12,DECIDED,HF,target,right,aqua,pleasantness,conservative,no,8,1,2.65016383682,-,-
2019_Nov_01,28,001,2,source,13,ACROSS,HF,target,left,yellow,imageability,liberal,no,2,1,1.20027906151,-,-
2019_Nov_01,28,001,2,source,14,MYTHIC,LF,target,left,yellow,imageability,conservative,no,1,1,0.750226013431,-,-
2019_Nov_01,28,001,2,source,15,LAVISHED,LF,target,right,aqua,pleasantness,conservative,no,9,1,1.74996425578,-,-
2019_Nov_01,28,001,2,source,16,TOFFEE,LF,target,left,yellow,imageability,liberal,no,1,1,1.2170135872,-,-
2019_Nov_01,28,001,2,source,17,BIDDER,LF,target,left,yellow,imageability,liberal,no,1,1,0.93352125626,-,-
2019_Nov_01,28,001,2,source,18,OEDIPAL,LF,target,right,aqua,pleasantness,liberal,no,3,0,2.99995784015,-,-
2019_Nov_01,28,001,2,source,19,UPKEEP,LF,target,left,yellow,imageability,conservative,no,3,1,1.516720228,-,-
2019_Nov_01,28,001,2,source,20,ALONE,HF,target,right,aqua,pleasantness,conservative,no,9,1,1.16691376002,-,-
2019_Nov_01,28,001,2,source,21,BENIGNLY,LF,target,left,yellow,imageability,conservative,no,2,1,1.63353636048,-,-
2019_Nov_01,28,001,2,source,22,HOEING,LF,target,left,yellow,imageability,liberal,no,1,1,0.883576870596,-,-
2019_Nov_01,28,001,2,source,23,WITHIN,HF,target,left,yellow,imageability,conservative,no,2,1,1.05035901858,-,-
2019_Nov_01,28,001,2,source,24,BEREAVED,LF,target,right,aqua,pleasantness,conservative,no,8,1,2.26681096332,-,-
2019_Nov_01,28,001,2,source,25,EXCEPT,HF,target,right,aqua,pleasantness,liberal,yes,8,1,0.950365397545,-,-
2019_Nov_01,28,001,2,source,26,PIZZA,LF,target,right,aqua,pleasantness,conservative,no,9,1,1.00023646174,-,-
2019_Nov_01,28,001,2,source,27,SHORT,HF,target,left,yellow,imageability,conservative,no,8,0,1.43359861041,-,-
2019_Nov_01,28,001,2,source,28,HOWEVER,HF,target,left,yellow,imageability,conservative,no,1,1,1.43354875181,-,-
2019_Nov_01,28,001,2,source,29,ARPEGGIO,LF,target,left,yellow,imageability,liberal,no,2,1,1.40025017286,-,-
2019_Nov_01,28,001,2,source,30,LOWED,LF,target,left,yellow,imageability,conservative,no,3,1,1.13360931535,-,-
2019_Nov_01,28,001,2,source,31,MEANS,HF,target,right,aqua,pleasantness,conservative,no,9,1,2.81677001328,-,-
2019_Nov_01,28,001,2,source,32,RAFTERS,LF,target,left,yellow,imageability,liberal,yes,8,0,0.966947047968,-,-
2019_Nov_01,28,001,2,source,33,LEPROSY,LF,target,right,aqua,pleasantness,conservative,no,9,1,0.900241374279,-,-
2019_Nov_01,28,001,2,source,34,BLOOD,HF,target,right,aqua,pleasantness,conservative,no,9,1,0.666915959664,-,-
2019_Nov_01,28,001,2,source,35,AFRAID,HF,target,left,yellow,imageability,liberal,no,9,0,1.13350666529,-,-
2019_Nov_01,28,001,2,source,36,WHETHER,HF,target,right,aqua,pleasantness,conservative,no,9,1,0.816872663337,-,-
2019_Nov_01,28,001,2,source,37,DIFFERENT,HF,target,left,yellow,imageability,liberal,no,7,0,1.00023536192,-,-
2019_Nov_01,28,001,2,source,38,PIECE,HF,target,right,aqua,pleasantness,liberal,no,9,1,1.10033456587,-,-
2019_Nov_01,28,001,2,source,39,COFFINS,LF,target,left,yellow,imageability,conservative,no,9,0,0.883547542007,-,-
2019_Nov_01,28,001,2,source,40,MOUTH,HF,target,right,aqua,pleasantness,liberal,no,9,1,0.883624162944,-,-
2019_Nov_01,28,001,2,source,41,VIOLATING,LF,target,left,yellow,imageability,liberal,no,1,1,1.73349038792,-,-
2019_Nov_01,28,001,2,source,42,WRONG,HF,target,right,aqua,pleasantness,liberal,yes,2,0,1.01694385848,-,-
2019_Nov_01,28,001,2,source,43,BOTANIST,LF,target,right,aqua,pleasantness,liberal,no,9,1,1.66687453303,-,-
2019_Nov_01,28,001,2,source,44,CACOPHONY,LF,target,right,aqua,pleasantness,liberal,no,9,1,1.23356114314,-,-
2019_Nov_01,28,001,2,source,45,BEYOND,HF,target,left,yellow,imageability,conservative,no,2,1,6.23331258336,-,-
2019_Nov_01,28,001,2,source,46,WAITING,HF,target,left,yellow,imageability,liberal,no,1,1,1.01670153103,-,-
2019_Nov_01,28,001,2,source,47,FAMILY,HF,target,right,aqua,pleasantness,liberal,no,8,1,1.5335449391,-,-
2019_Nov_01,28,001,2,recog,0,SCUFFED,LF,target,left,yellow,imageability,conservative,no,z,1,1.26696567162,1,349
2019_Nov_01,28,001,2,recog,1,ROPED,LF,lure,-,-,-,liberal,no,m,1,0.950332402884,1,350
2019_Nov_01,28,001,2,recog,2,SUCCESS,HF,lure,-,-,-,liberal,no,m,1,1.03356840197,1,351
2019_Nov_01,28,001,2,recog,3,VEGAN,LF,target,right,aqua,pleasantness,liberal,no,z,1,0.933587245584,3,354
2019_Nov_01,28,001,2,recog,4,PENALIZED,LF,lure,-,-,-,conservative,no,m,1,1.10023008277,3,357
2019_Nov_01,28,001,2,recog,5,WHETHER,HF,target,right,aqua,pleasantness,conservative,no,z,1,0.766880985323,1,358
2019_Nov_01,28,001,2,recog,6,LAMENT,LF,lure,-,-,-,conservative,no,m,1,1.03359443109,3,361
2019_Nov_01,28,001,2,recog,7,TREES,HF,lure,-,-,-,liberal,no,m,1,0.916908810821,1,362
2019_Nov_01,28,001,2,recog,8,LEPROSY,LF,target,right,aqua,pleasantness,conservative,no,z,1,0.666954453436,1,363
2019_Nov_01,28,001,2,recog,9,ARPEGGIO,LF,target,left,yellow,imageability,liberal,no,z,1,0.650211495779,3,366
2019_Nov_01,28,001,2,recog,10,LEARN,HF,target,left,yellow,imageability,liberal,no,z,1,0.66685986874,3,369
2019_Nov_01,28,001,2,recog,11,FRONT,HF,lure,-,-,-,liberal,no,m,1,0.866845644375,1,370
2019_Nov_01,28,001,2,recog,12,WRONG,HF,target,right,aqua,pleasantness,liberal,no,z,1,0.666958486117,3,373
2019_Nov_01,28,001,2,recog,13,OBVIOUSLY,HF,lure,-,-,-,liberal,no,m,1,1.03360396288,1,374
2019_Nov_01,28,001,2,recog,14,FUNNILY,LF,lure,-,-,-,conservative,no,m,1,0.850229166254,3,377
2019_Nov_01,28,001,2,recog,15,SOMEONE,HF,lure,-,-,-,liberal,no,m,1,1.28344980449,1,378
2019_Nov_01,28,001,2,recog,16,LESSENED,LF,lure,-,-,-,liberal,no,m,1,0.883578703633,1,379
2019_Nov_01,28,001,2,recog,17,TROUBLE,HF,lure,-,-,-,conservative,no,m,1,0.683608692114,3,382
2019_Nov_01,28,001,2,recog,18,JASMINE,LF,target,right,aqua,pleasantness,conservative,no,z,1,0.983525398924,1,383
2019_Nov_01,28,001,2,recog,19,OEDIPAL,LF,target,right,aqua,pleasantness,liberal,no,z,1,1.18352437242,3,386
2019_Nov_01,28,001,2,recog,20,ERODE,LF,lure,-,-,-,liberal,no,m,1,0.900277668406,1,387
2019_Nov_01,28,001,2,recog,21,CONCERNED,HF,lure,-,-,-,liberal,no,m,1,0.983529798212,1,388
2019_Nov_01,28,001,2,recog,22,ARRIVED,HF,lure,-,-,-,conservative,no,m,1,0.800246653425,3,391
2019_Nov_01,28,001,2,recog,23,PIZZA,LF,target,right,aqua,pleasantness,conservative,no,z,1,0.566953500256,1,392
2019_Nov_01,28,001,2,recog,24,DECIDED,HF,target,right,aqua,pleasantness,conservative,no,z,1,0.716895173027,1,393
2019_Nov_01,28,001,2,recog,25,RESEARCH,HF,lure,-,-,-,conservative,no,m,1,0.983601653252,3,396
2019_Nov_01,28,001,2,recog,26,WRITE,HF,lure,-,-,-,conservative,no,m,1,0.950312606087,3,399
2019_Nov_01,28,001,2,recog,27,ALONE,HF,target,right,aqua,pleasantness,conservative,no,z,1,0.61689128699,1,400
2019_Nov_01,28,001,2,recog,28,BENIGNLY,LF,target,left,yellow,imageability,conservative,no,z,1,0.550253802268,1,401
2019_Nov_01,28,001,2,recog,29,BEYOND,HF,target,left,yellow,imageability,conservative,no,z,1,0.533587832156,1,402
2019_Nov_01,28,001,2,recog,30,TOFFEE,LF,target,left,yellow,imageability,liberal,no,z,1,0.583683993264,3,405
2019_Nov_01,28,001,2,recog,31,BIDDER,LF,target,left,yellow,imageability,liberal,yes,z,1,1.61687332323,3,408
2019_Nov_01,28,001,2,recog,32,LAVISHED,LF,target,right,aqua,pleasantness,conservative,yes,z,1,0.816911523715,1,409
2019_Nov_01,28,001,2,recog,33,EASILY,HF,lure,-,-,-,liberal,no,m,1,1.08356924516,1,410
2019_Nov_01,28,001,2,recog,34,FIGURE,HF,lure,-,-,-,conservative,no,m,1,0.966949980826,3,413
2019_Nov_01,28,001,2,recog,35,NORTH,HF,lure,-,-,-,liberal,no,m,1,0.733383338576,1,414
2019_Nov_01,28,001,2,recog,36,PRIVATE,HF,lure,-,-,-,liberal,no,m,1,1.00021006601,1,415
2019_Nov_01,28,001,2,recog,37,CAIRN,LF,lure,-,-,-,liberal,no,m,1,0.700226636664,1,416
2019_Nov_01,28,001,2,recog,38,DEVELOPED,HF,lure,-,-,-,conservative,no,m,1,0.916946937985,3,419
2019_Nov_01,28,001,2,recog,39,ACROSS,HF,target,left,yellow,imageability,liberal,no,z,1,0.866797985419,3,422
2019_Nov_01,28,001,2,recog,40,UNJUSTLY,LF,lure,-,-,-,liberal,no,z,0,0.833616720815,-1,421
2019_Nov_01,28,001,2,recog,41,DEGREE,HF,lure,-,-,-,liberal,no,m,1,0.9000379072,1,422
2019_Nov_01,28,001,2,recog,42,DIFFERENT,HF,target,left,yellow,imageability,liberal,no,z,1,0.666678764709,3,425
2019_Nov_01,28,001,2,recog,43,CEASELESS,LF,lure,-,-,-,conservative,no,m,1,1.08339693971,3,428
2019_Nov_01,28,001,2,recog,44,BOTANIST,LF,target,right,aqua,pleasantness,liberal,no,z,1,0.616930147368,3,431
2019_Nov_01,28,001,2,recog,45,SAVOURED,LF,lure,-,-,-,conservative,no,z,0,0.783631641734,-3,428
2019_Nov_01,28,001,2,recog,46,MOCCASINS,LF,lure,-,-,-,conservative,no,z,0,0.76690078212,-3,425
2019_Nov_01,28,001,2,recog,47,VIOLATING,LF,target,left,yellow,imageability,liberal,no,z,1,0.933535920555,3,428
2019_Nov_01,28,001,2,recog,48,EXCEPT,HF,target,right,aqua,pleasantness,liberal,no,z,1,1.66690679448,3,431
2019_Nov_01,28,001,2,recog,49,SODDING,LF,target,right,aqua,pleasantness,conservative,no,z,1,1.15020489685,1,432
2019_Nov_01,28,001,2,recog,50,BLOOD,HF,target,right,aqua,pleasantness,conservative,no,z,1,0.566976963128,1,433
2019_Nov_01,28,001,2,recog,51,MEANS,HF,target,right,aqua,pleasantness,conservative,no,z,1,1.13346523866,1,434
2019_Nov_01,28,001,2,recog,52,HOWEVER,HF,target,left,yellow,imageability,conservative,no,z,1,1.11688835413,1,435
2019_Nov_01,28,001,2,recog,53,SHORT,HF,target,left,yellow,imageability,conservative,no,z,1,0.61695067738,1,436
2019_Nov_01,28,001,2,recog,54,MOUTH,HF,target,right,aqua,pleasantness,liberal,no,z,1,0.65023495865,3,439
2019_Nov_01,28,001,2,recog,55,NAPPY,LF,lure,-,-,-,conservative,no,m,1,0.900232209095,3,442
2019_Nov_01,28,001,2,recog,56,FLOOR,HF,lure,-,-,-,conservative,no,m,1,1.51687713595,3,445
2019_Nov_01,28,001,2,recog,57,AFRAID,HF,target,left,yellow,imageability,liberal,no,z,1,0.966923585097,3,448
2019_Nov_01,28,001,2,recog,58,NUMBER,HF,lure,-,-,-,conservative,no,m,1,1.26682452779,3,451
2019_Nov_01,28,001,2,recog,59,CACOPHONY,LF,target,right,aqua,pleasantness,liberal,no,z,1,0.633570821575,3,454
2019_Nov_01,28,001,2,recog,60,CYANIDE,LF,lure,-,-,-,liberal,no,m,1,0.983607518971,1,455
2019_Nov_01,28,001,2,recog,61,FAILINGS,LF,lure,-,-,-,liberal,no,m,1,1.01689729935,1,456
2019_Nov_01,28,001,2,recog,62,MYTHIC,LF,target,left,yellow,imageability,conservative,no,z,1,0.900251639285,1,457
2019_Nov_01,28,001,2,recog,63,JINGLE,LF,lure,-,-,-,liberal,no,m,1,0.933580646652,1,458
2019_Nov_01,28,001,2,recog,64,BEGAN,HF,target,left,yellow,imageability,liberal,no,z,1,1.31663546838,3,461
2019_Nov_01,28,001,2,recog,65,WAITING,HF,target,left,yellow,imageability,liberal,no,z,1,0.666764550829,3,464
2019_Nov_01,28,001,2,recog,66,WITHIN,HF,target,left,yellow,imageability,conservative,no,z,1,0.816913356753,1,465
2019_Nov_01,28,001,2,recog,67,UPKEEP,LF,target,left,yellow,imageability,conservative,no,z,1,0.750268173276,1,466
2019_Nov_01,28,001,2,recog,68,AIRBED,LF,target,right,aqua,pleasantness,liberal,no,z,1,0.633601249985,3,469
2019_Nov_01,28,001,2,recog,69,DEITIES,LF,lure,-,-,-,conservative,no,m,1,1.11692538147,3,472
2019_Nov_01,28,001,2,recog,70,FAMILY,HF,target,right,aqua,pleasantness,liberal,no,z,1,0.533529541587,3,475
2019_Nov_01,28,001,2,recog,71,DONATE,LF,lure,-,-,-,conservative,no,m,1,1.26685568942,3,478
2019_Nov_01,28,001,2,recog,72,EXACTLY,HF,lure,-,-,-,conservative,no,m,1,1.13336148878,3,481
2019_Nov_01,28,001,2,recog,73,DEDICATE,LF,lure,-,-,-,liberal,no,m,1,1.58354248283,1,482
2019_Nov_01,28,001,2,recog,74,GLASS,HF,lure,-,-,-,liberal,no,m,1,0.766916179629,1,483
2019_Nov_01,28,001,2,recog,75,VECTORS,LF,lure,-,-,-,liberal,no,m,1,0.850040730076,1,484
2019_Nov_01,28,001,2,recog,76,KERNEL,LF,lure,-,-,-,liberal,no,m,1,0.900335592368,1,485
2019_Nov_01,28,001,2,recog,77,LIVED,HF,lure,-,-,-,liberal,no,m,1,0.983560593229,1,486
2019_Nov_01,28,001,2,recog,78,SAGES,LF,lure,-,-,-,conservative,no,m,1,0.733614301205,3,489
2019_Nov_01,28,001,2,recog,79,TABLE,HF,lure,-,-,-,conservative,no,m,1,0.783576284023,3,492
2019_Nov_01,28,001,2,recog,80,CUPID,LF,lure,-,-,-,conservative,no,m,1,0.600172158812,3,495
2019_Nov_01,28,001,2,recog,81,HOEING,LF,target,left,yellow,imageability,liberal,no,z,1,1.83347997627,3,498
2019_Nov_01,28,001,2,recog,82,HOSPITAL,HF,lure,-,-,-,conservative,yes,m,1,1.11684986036,3,501
2019_Nov_01,28,001,2,recog,83,LOWED,LF,target,left,yellow,imageability,conservative,no,z,1,0.61690925075,1,502
2019_Nov_01,28,001,2,recog,84,COFFINS,LF,target,left,yellow,imageability,conservative,no,z,1,0.516968054569,1,503
2019_Nov_01,28,001,2,recog,85,LOUDEST,LF,lure,-,-,-,conservative,no,m,1,1.10022055098,3,506
2019_Nov_01,28,001,2,recog,86,APART,HF,target,right,aqua,pleasantness,conservative,no,z,1,0.783572251344,1,507
2019_Nov_01,28,001,2,recog,87,WRANGLING,LF,lure,-,-,-,liberal,no,m,1,0.900309929853,1,508
2019_Nov_01,28,001,2,recog,88,ONCOMING,LF,target,right,aqua,pleasantness,liberal,no,z,1,0.600247313319,3,511
2019_Nov_01,28,001,2,recog,89,NUCLEAR,HF,lure,-,-,-,conservative,no,m,1,0.866890737079,3,514
2019_Nov_01,28,001,2,recog,90,APPEARED,HF,target,left,yellow,imageability,conservative,no,z,1,0.616945544877,1,515
2019_Nov_01,28,001,2,recog,91,BEREAVED,LF,target,right,aqua,pleasantness,conservative,no,z,1,1.06693663632,1,516
2019_Nov_01,28,001,2,recog,92,PIECE,HF,target,right,aqua,pleasantness,liberal,no,z,1,0.600276275299,3,519
2019_Nov_01,28,001,2,recog,93,RUNNING,HF,target,left,yellow,imageability,conservative,yes,m,0,0.966904154908,-1,518
2019_Nov_01,28,001,2,recog,94,SMALL,HF,target,right,aqua,pleasantness,liberal,no,z,1,0.583584642672,3,521
2019_Nov_01,28,001,2,recog,95,RAFTERS,LF,target,left,yellow,imageability,liberal,no,z,1,0.650221760786,3,524
2019_Nov_01,28,001,3,source,0,ZENITH,LF,target,right,aqua,pleasantness,conservative,no,9,1,5.38332537795,-,-
2019_Nov_01,28,001,3,source,1,RANGE,HF,target,right,aqua,pleasantness,conservative,no,7,1,1.65002012674,-,-
2019_Nov_01,28,001,3,source,2,RECENT,HF,target,right,aqua,pleasantness,liberal,no,8,1,1.16700467864,-,-
2019_Nov_01,28,001,3,source,3,UNBEATEN,LF,target,left,yellow,imageability,liberal,no,1,1,1.4002424741,-,-
2019_Nov_01,28,001,3,source,4,BYPASS,LF,target,left,yellow,imageability,conservative,no,1,1,1.05002173982,-,-
2019_Nov_01,28,001,3,source,5,JARRED,LF,target,right,aqua,pleasantness,liberal,no,1,0,0.983538230182,-,-
2019_Nov_01,28,001,3,source,6,TIMES,HF,target,left,yellow,imageability,liberal,yes,2,1,1.11665482525,-,-
2019_Nov_01,28,001,3,source,7,SUING,LF,target,left,yellow,imageability,liberal,no,8,0,1.66684630427,-,-
2019_Nov_01,28,001,3,source,8,DOLPHIN,LF,target,left,yellow,imageability,liberal,no,1,1,0.900031308267,-,-
2019_Nov_01,28,001,3,source,9,BURGH,LF,target,left,yellow,imageability,liberal,no,7,0,1.36688487136,-,-
2019_Nov_01,28,001,3,source,10,OPENED,HF,target,right,aqua,pleasantness,conservative,no,9,1,1.43351942322,-,-
2019_Nov_01,28,001,3,source,11,REPORT,HF,target,right,aqua,pleasantness,conservative,no,8,1,1.26690298176,-,-
2019_Nov_01,28,001,3,source,12,BELIEVE,HF,target,left,yellow,imageability,conservative,yes,7,0,0.88357357113,-,-
2019_Nov_01,28,001,3,source,13,QUICKLY,HF,target,right,aqua,pleasantness,liberal,yes,7,1,0.533589665192,-,-
2019_Nov_01,28,001,3,source,14,OLDER,HF,target,left,yellow,imageability,conservative,no,2,1,1.58358464267,-,-
2019_Nov_01,28,001,3,source,15,SEMANTIC,LF,target,right,aqua,pleasantness,conservative,no,7,1,1.96660280367,-,-
2019_Nov_01,28,001,3,source,16,IMPORTANT,HF,target,right,aqua,pleasantness,conservative,no,9,1,1.41687911563,-,-
2019_Nov_01,28,001,3,source,17,SPRATS,LF,target,left,yellow,imageability,conservative,no,7,0,1.31688659442,-,-
2019_Nov_01,28,001,3,source,18,FLECKED,LF,target,right,aqua,pleasantness,liberal,no,7,1,1.08360663911,-,-
2019_Nov_01,28,001,3,source,19,HOURS,HF,target,right,aqua,pleasantness,liberal,no,7,1,1.38355047487,-,-
2019_Nov_01,28,001,3,source,20,CERTAIN,HF,target,left,yellow,imageability,liberal,no,2,1,1.10026564369,-,-
2019_Nov_01,28,001,3,source,21,SWOOPING,LF,target,left,yellow,imageability,liberal,no,1,1,0.683566165661,-,-
2019_Nov_01,28,001,3,source,22,ALMOST,HF,target,right,aqua,pleasantness,liberal,no,1,0,0.866906867803,-,-
2019_Nov_01,28,001,3,source,23,CHOICE,HF,target,left,yellow,imageability,liberal,no,1,1,1.00024379389,-,-
2019_Nov_01,28,001,3,source,24,STUDENT,HF,target,left,yellow,imageability,liberal,no,1,1,0.633604916058,-,-
2019_Nov_01,28,001,3,source,25,ORDER,HF,target,left,yellow,imageability,liberal,no,1,1,0.783577383846,-,-
2019_Nov_01,28,001,3,source,26,RELAXES,LF,target,left,yellow,imageability,liberal,no,1,1,0.583585009279,-,-
2019_Nov_01,28,001,3,source,27,FRIEND,HF,target,right,aqua,pleasantness,conservative,no,9,1,1.21673203276,-,-
2019_Nov_01,28,001,3,source,28,REVERE,LF,target,right,aqua,pleasantness,liberal,no,9,1,0.883590435067,-,-
2019_Nov_01,28,001,3,source,29,SPOKE,HF,target,left,yellow,imageability,conservative,no,1,1,1.08359784054,-,-
2019_Nov_01,28,001,3,source,30,HORDE,LF,target,left,yellow,imageability,conservative,no,2,1,1.25002181314,-,-
2019_Nov_01,28,001,3,source,31,LIQUEUR,LF,target,right,aqua,pleasantness,liberal,no,9,1,0.883609132043,-,-
2019_Nov_01,28,001,3,source,32,BOASTS,LF,target,right,aqua,pleasantness,conservative,no,9,1,1.64996440243,-,-
2019_Nov_01,28,001,3,source,33,WOMAN,HF,target,right,aqua,pleasantness,liberal,no,8,1,0.666750619749,-,-
2019_Nov_01,28,001,3,source,34,FLUFF,LF,target,right,aqua,pleasantness,conservative,no,9,1,1.08350032298,-,-
2019_Nov_01,28,001,3,source,35,ALLOWED,HF,target,right,aqua,pleasantness,liberal,no,8,1,1.26692131213,-,-
2019_Nov_01,28,001,3,source,36,NEPHEWS,LF,target,right,aqua,pleasantness,liberal,no,9,1,0.916974800144,-,-
2019_Nov_01,28,001,3,source,37,PHRASED,LF,target,left,yellow,imageability,conservative,no,2,1,1.36662971265,-,-
2019_Nov_01,28,001,3,source,38,TAPER,LF,target,left,yellow,imageability,conservative,yes,7,0,1.25021024932,-,-
2019_Nov_01,28,001,3,source,39,KNEAD,LF,target,right,aqua,pleasantness,conservative,no,9,1,0.883366437976,-,-
2019_Nov_01,28,001,3,source,40,BLIGHTED,LF,target,right,aqua,pleasantness,conservative,no,2,0,1.10003651409,-,-
2019_Nov_01,28,001,3,source,41,FURTHER,HF,target,left,yellow,imageability,liberal,no,2,1,1.71676979331,-,-
2019_Nov_01,28,001,3,source,42,LAWFUL,LF,target,right,aqua,pleasantness,liberal,no,9,1,0.966948514397,-,-
2019_Nov_01,28,001,3,source,43,CHAIR,HF,target,left,yellow,imageability,conservative,no,1,1,0.933384511719,-,-
2019_Nov_01,28,001,3,source,44,SERIOUS,HF,target,right,aqua,pleasantness,conservative,no,9,1,1.28359094832,-,-
2019_Nov_01,28,001,3,source,45,MYOPIC,LF,target,left,yellow,imageability,conservative,no,1,1,1.01694789116,-,-
2019_Nov_01,28,001,3,source,46,DOCTOR,HF,target,left,yellow,imageability,conservative,no,1,1,0.966910387233,-,-
2019_Nov_01,28,001,3,source,47,FIELD,HF,target,left,yellow,imageability,conservative,no,8,0,1.01674075801,-,-
2019_Nov_01,28,001,3,recog,0,MIDDLE,HF,lure,-,-,-,conservative,yes,z,0,1.10003101498,-3,521
2019_Nov_01,28,001,3,recog,1,PANACHE,LF,lure,-,-,-,conservative,no,m,1,1.36691200031,3,524
2019_Nov_01,28,001,3,recog,2,HEDGED,LF,lure,-,-,-,conservative,no,z,0,0.600273709047,-3,521
2019_Nov_01,28,001,3,recog,3,BURGH,LF,target,left,yellow,imageability,liberal,no,z,1,0.633582919617,3,524
2019_Nov_01,28,001,3,recog,4,BELIEVE,HF,target,left,yellow,imageability,conservative,no,z,1,0.633589518549,1,525
2019_Nov_01,28,001,3,recog,5,HAWKED,LF,lure,-,-,-,liberal,no,m,1,0.883566238982,1,526
2019_Nov_01,28,001,3,recog,6,BUSINESS,HF,lure,-,-,-,liberal,no,m,1,0.633622879818,1,527
2019_Nov_01,28,001,3,recog,7,UNION,HF,lure,-,-,-,conservative,no,m,1,0.600243647245,3,530
2019_Nov_01,28,001,3,recog,8,AHEAD,HF,lure,-,-,-,liberal,no,m,1,0.716976193252,1,531
2019_Nov_01,28,001,3,recog,9,BILATERAL,LF,lure,-,-,-,liberal,no,m,1,0.916868484013,1,532
2019_Nov_01,28,001,3,recog,10,KNEAD,LF,target,right,aqua,pleasantness,conservative,no,z,1,1.05033775535,1,533
2019_Nov_01,28,001,3,recog,11,CENTRAL,HF,lure,-,-,-,liberal,no,m,1,0.850190305875,1,534
2019_Nov_01,28,001,3,recog,12,TYPHOID,LF,lure,-,-,-,conservative,no,m,1,0.800241887529,3,537
2019_Nov_01,28,001,3,recog,13,IMPORTANT,HF,target,right,aqua,pleasantness,conservative,no,z,1,0.850274625565,1,538
2019_Nov_01,28,001,3,recog,14,GADGET,LF,lure,-,-,-,conservative,no,m,1,0.750319131697,3,541
2019_Nov_01,28,001,3,recog,15,BYPASS,LF,target,left,yellow,imageability,conservative,no,z,1,0.850321184699,1,542
2019_Nov_01,28,001,3,recog,16,RECENT,HF,target,right,aqua,pleasantness,liberal,no,z,1,0.866862508313,3,545
2019_Nov_01,28,001,3,recog,17,CHOICE,HF,target,left,yellow,imageability,liberal,no,z,1,0.683586329065,3,548
2019_Nov_01,28,001,3,recog,18,WOMAN,HF,target,right,aqua,pleasantness,liberal,no,z,1,0.53362449289,3,551
2019_Nov_01,28,001,3,recog,19,MYOPIC,LF,target,left,yellow,imageability,conservative,no,z,1,0.583589775174,1,552
2019_Nov_01,28,001,3,recog,20,BLIGHTED,LF,target,right,aqua,pleasantness,conservative,no,z,1,0.583590141781,1,553
2019_Nov_01,28,001,3,recog,21,SEMANTIC,LF,target,right,aqua,pleasantness,conservative,no,z,1,0.816916289611,1,554
2019_Nov_01,28,001,3,recog,22,PLODDED,LF,lure,-,-,-,conservative,no,m,1,1.68337259698,3,557
2019_Nov_01,28,001,3,recog,23,BOASTS,LF,target,right,aqua,pleasantness,conservative,no,z,1,0.850285990394,1,558
2019_Nov_01,28,001,3,recog,24,CALLED,HF,lure,-,-,-,conservative,no,m,1,0.833587758834,3,561
2019_Nov_01,28,001,3,recog,25,GENERAL,HF,lure,-,-,-,conservative,no,m,1,0.616988804544,3,564
2019_Nov_01,28,001,3,recog,26,REACHED,HF,lure,-,-,-,liberal,no,m,1,0.799987462029,1,565
2019_Nov_01,28,001,3,recog,27,REREAD,LF,lure,-,-,-,conservative,no,m,1,0.68356213298,3,568
2019_Nov_01,28,001,3,recog,28,FRIEND,HF,target,right,aqua,pleasantness,conservative,no,z,1,1.30023308895,1,569
2019_Nov_01,28,001,3,recog,29,FLECKED,LF,target,right,aqua,pleasantness,liberal,no,z,1,0.716894073205,3,572
2019_Nov_01,28,001,3,recog,30,DETACH,LF,lure,-,-,-,conservative,no,m,1,0.783574817594,3,575
2019_Nov_01,28,001,3,recog,31,REVERE,LF,target,right,aqua,pleasantness,liberal,no,z,1,0.83355916346,3,578
2019_Nov_01,28,001,3,recog,32,ANIMAL,HF,lure,-,-,-,conservative,no,m,1,0.916913943324,3,581
2019_Nov_01,28,001,3,recog,33,LOITERING,LF,lure,-,-,-,liberal,no,m,1,0.833621120103,1,582
2019_Nov_01,28,001,3,recog,34,FOLLOWED,HF,lure,-,-,-,conservative,no,m,1,0.96688032543,3,585
2019_Nov_01,28,001,3,recog,35,RANGE,HF,target,right,aqua,pleasantness,conservative,no,z,1,1.06693993578,1,586
2019_Nov_01,28,001,3,recog,36,JARRED,LF,target,right,aqua,pleasantness,liberal,no,z,1,0.7335791069,3,589
2019_Nov_01,28,001,3,recog,37,OPENED,HF,target,right,aqua,pleasantness,conservative,no,z,1,0.583587208923,1,590
2019_Nov_01,28,001,3,recog,38,STUDENT,HF,target,left,yellow,imageability,liberal,no,z,1,0.53359553091,3,593
2019_Nov_01,28,001,3,recog,39,FIELD,HF,target,left,yellow,imageability,conservative,no,z,1,0.466943381894,1,594
2019_Nov_01,28,001,3,recog,40,ATTACK,HF,lure,-,-,-,liberal,no,z,0,1.30022319055,-1,593
2019_Nov_01,28,001,3,recog,41,LAGER,LF,lure,-,-,-,liberal,no,m,1,1.11689861914,1,594
2019_Nov_01,28,001,3,recog,42,GREATER,HF,lure,-,-,-,liberal,no,m,1,0.650011694775,1,595
2019_Nov_01,28,001,3,recog,43,FLUFF,LF,target,right,aqua,pleasantness,conservative,no,z,1,0.750249476301,1,596
2019_Nov_01,28,001,3,recog,44,NEPHEWS,LF,target,right,aqua,pleasantness,liberal,no,z,1,0.800292479344,3,599
2019_Nov_01,28,001,3,recog,45,BROUGHT,HF,lure,-,-,-,conservative,yes,z,0,1.00028192105,-3,596
2019_Nov_01,28,001,3,recog,46,LANGUAGE,HF,lure,-,-,-,liberal,no,m,1,0.866948294432,1,597
2019_Nov_01,28,001,3,recog,47,FURTHER,HF,target,left,yellow,imageability,liberal,no,z,1,1.03357610072,3,600
2019_Nov_01,28,001,3,recog,48,TIMES,HF,target,left,yellow,imageability,liberal,no,z,1,1.18351777349,3,603
2019_Nov_01,28,001,3,recog,49,TAPER,LF,target,left,yellow,imageability,conservative,no,z,1,0.650047988902,1,604
2019_Nov_01,28,001,3,recog,50,DOUBT,HF,lure,-,-,-,conservative,no,m,1,0.950249549623,3,607
2019_Nov_01,28,001,3,recog,51,MAVIS,LF,lure,-,-,-,liberal,no,m,1,1.05028129782,1,608
2019_Nov_01,28,001,3,recog,52,BALDING,LF,lure,-,-,-,liberal,no,m,1,0.816912990145,1,609
2019_Nov_01,28,001,3,recog,53,QUICKLY,HF,target,right,aqua,pleasantness,liberal,no,z,1,1.06690144201,3,612
2019_Nov_01,28,001,3,recog,54,HORDE,LF,target,left,yellow,imageability,conservative,no,z,1,0.766952840363,1,613
2019_Nov_01,28,001,3,recog,55,SUING,LF,target,left,yellow,imageability,liberal,no,z,1,0.716924501616,3,616
2019_Nov_01,28,001,3,recog,56,CITES,LF,lure,-,-,-,liberal,no,m,1,0.883426561582,1,617
2019_Nov_01,28,001,3,recog,57,SPACE,HF,lure,-,-,-,liberal,no,m,1,0.783582516349,1,618
2019_Nov_01,28,001,3,recog,58,MUSIC,HF,lure,-,-,-,liberal,no,m,1,0.583405371678,1,619
2019_Nov_01,28,001,3,recog,59,CHAIR,HF,target,left,yellow,imageability,conservative,no,z,1,1.03338766454,1,620
2019_Nov_01,28,001,3,recog,60,VALUE,HF,lure,-,-,-,conservative,no,m,1,0.916911377072,3,623
2019_Nov_01,28,001,3,recog,61,PHRASED,LF,target,left,yellow,imageability,conservative,no,m,0,0.850280491283,-1,622
2019_Nov_01,28,001,3,recog,62,SWOOPING,LF,target,left,yellow,imageability,liberal,no,z,1,0.833536433805,3,625
2019_Nov_01,28,001,3,recog,63,FUMING,LF,lure,-,-,-,liberal,yes,z,0,1.15032147799,-1,624
2019_Nov_01,28,001,3,recog,64,ASCEND,LF,lure,-,-,-,conservative,no,m,1,0.900264103935,3,627
2019_Nov_01,28,001,3,recog,65,SPRATS,LF,target,left,yellow,imageability,conservative,no,m,0,0.783577383846,-1,626
2019_Nov_01,28,001,3,recog,66,AVOCADO,LF,lure,-,-,-,conservative,no,m,1,0.783590215104,3,629
2019_Nov_01,28,001,3,recog,67,BIJOU,LF,lure,-,-,-,liberal,no,m,1,1.0502853305,1,630
2019_Nov_01,28,001,3,recog,68,LIQUEUR,LF,target,right,aqua,pleasantness,liberal,no,z,1,0.866988254634,3,633
2019_Nov_01,28,001,3,recog,69,SERIOUS,HF,target,right,aqua,pleasantness,conservative,yes,m,0,0.900211679084,-1,632
2019_Nov_01,28,001,3,recog,70,CERTAIN,HF,target,left,yellow,imageability,liberal,no,z,1,1.71686731087,3,635
2019_Nov_01,28,001,3,recog,71,OLDER,HF,target,left,yellow,imageability,conservative,no,z,1,0.500250026212,1,636
2019_Nov_01,28,001,3,recog,72,JEWELLED,LF,lure,-,-,-,conservative,no,m,1,1.05008223003,3,639
2019_Nov_01,28,001,3,recog,73,TERMS,HF,lure,-,-,-,conservative,no,m,1,0.716864744618,3,642
2019_Nov_01,28,001,3,recog,74,ORDER,HF,target,left,yellow,imageability,liberal,no,z,1,0.63337505325,3,645
2019_Nov_01,28,001,3,recog,75,CLASS,HF,lure,-,-,-,conservative,no,m,1,1.10023778153,3,648
2019_Nov_01,28,001,3,recog,76,ROCKER,LF,lure,-,-,-,liberal,no,m,1,0.966902321871,1,649
2019_Nov_01,28,001,3,recog,77,DOLPHIN,LF,target,left,yellow,imageability,liberal,no,z,1,0.600293872451,3,652
2019_Nov_01,28,001,3,recog,78,AGILITY,LF,lure,-,-,-,conservative,no,m,1,0.850240897689,3,655
2019_Nov_01,28,001,3,recog,79,SPOKE,HF,target,left,yellow,imageability,conservative,no,z,1,0.616758941736,1,656
2019_Nov_01,28,001,3,recog,80,CODING,LF,lure,-,-,-,liberal,no,m,1,0.733582406367,1,657
2019_Nov_01,28,001,3,recog,81,AGGRAVATE,LF,lure,-,-,-,liberal,no,m,1,0.816909690679,1,658
2019_Nov_01,28,001,3,recog,82,ZENITH,LF,target,right,aqua,pleasantness,conservative,no,z,1,1.05027616532,1,659
2019_Nov_01,28,001,3,recog,83,GRACES,LF,lure,-,-,-,conservative,no,m,1,0.933580646652,3,662
2019_Nov_01,28,001,3,recog,84,UNBEATEN,LF,target,left,yellow,imageability,liberal,no,z,1,0.86686984046,3,665
2019_Nov_01,28,001,3,recog,85,RIVER,HF,lure,-,-,-,conservative,no,m,1,0.866988254634,3,668
2019_Nov_01,28,001,3,recog,86,REPORT,HF,target,right,aqua,pleasantness,conservative,no,z,1,1.13359318462,1,669
2019_Nov_01,28,001,3,recog,87,DOCTOR,HF,target,left,yellow,imageability,conservative,no,z,1,0.650279684747,1,670
2019_Nov_01,28,001,3,recog,88,ALMOST,HF,target,right,aqua,pleasantness,liberal,no,z,1,0.600268209937,3,673
2019_Nov_01,28,001,3,recog,89,RELAXES,LF,target,left,yellow,imageability,liberal,no,z,1,0.566926004705,3,676
2019_Nov_01,28,001,3,recog,90,LAWFUL,LF,target,right,aqua,pleasantness,liberal,no,z,1,0.683540503146,3,679
2019_Nov_01,28,001,3,recog,91,POUNDS,HF,lure,-,-,-,liberal,no,m,1,0.800242987351,1,680
2019_Nov_01,28,001,3,recog,92,HOURS,HF,target,right,aqua,pleasantness,liberal,no,z,1,0.600047145706,3,683
2019_Nov_01,28,001,3,recog,93,ALLOWED,HF,target,right,aqua,pleasantness,liberal,no,z,1,0.533620093603,3,686
2019_Nov_01,28,001,3,recog,94,MATERIAL,HF,lure,-,-,-,liberal,no,m,1,0.916907344392,1,687
2019_Nov_01,28,001,3,recog,95,EITHER,HF,lure,-,-,-,liberal,no,z,0,1.48350780177,-1,686
2019_Nov_01,28,001,4,source,0,SHIELDING,LF,target,right,aqua,pleasantness,liberal,no,9,1,2.95014616635,-,-
2019_Nov_01,28,001,4,source,1,STOOD,HF,target,left,yellow,imageability,conservative,no,7,0,1.2501845868,-,-
2019_Nov_01,28,001,4,source,2,YARDSTICK,LF,target,right,aqua,pleasantness,conservative,no,9,1,1.19997147795,-,-
2019_Nov_01,28,001,4,source,3,CRONE,LF,target,right,aqua,pleasantness,liberal,no,9,1,0.866906867802,-,-
2019_Nov_01,28,001,4,source,4,ANYONE,HF,target,left,yellow,imageability,conservative,no,9,0,0.88336460494,-,-
2019_Nov_01,28,001,4,source,5,ABLAZE,LF,target,right,aqua,pleasantness,conservative,no,9,1,1.13356348943,-,-
2019_Nov_01,28,001,4,source,6,WATCH,HF,target,right,aqua,pleasantness,conservative,no,9,1,0.716961528958,-,-
2019_Nov_01,28,001,4,source,7,UNLESS,HF,target,left,yellow,imageability,liberal,no,7,0,1.28356161973,-,-
2019_Nov_01,28,001,4,source,8,SITTING,HF,target,left,yellow,imageability,liberal,no,9,0,1.46685173006,-,-
2019_Nov_01,28,001,4,source,9,TEXTURES,LF,target,right,aqua,pleasantness,conservative,no,9,1,0.666959219332,-,-
2019_Nov_01,28,001,4,source,10,ADMIRALS,LF,target,left,yellow,imageability,conservative,no,2,1,1.95002298628,-,-
2019_Nov_01,28,001,4,source,11,WOODCOCK,LF,target,right,aqua,pleasantness,conservative,no,9,1,0.883557807013,-,-
2019_Nov_01,28,001,4,source,12,SIBLINGS,LF,target,right,aqua,pleasantness,conservative,no,9,1,0.800041719916,-,-
2019_Nov_01,28,001,4,source,13,ENOUGH,HF,target,right,aqua,pleasantness,conservative,no,8,1,1.11664859292,-,-
2019_Nov_01,28,001,4,source,14,PICTURE,HF,target,left,yellow,imageability,liberal,yes,7,0,0.950210689243,-,-
2019_Nov_01,28,001,4,source,15,TURNED,HF,target,right,aqua,pleasantness,conservative,no,2,0,2.43349962643,-,-
2019_Nov_01,28,001,4,source,16,DAUGHTER,HF,target,right,aqua,pleasantness,liberal,no,9,1,1.08353954997,-,-
2019_Nov_01,28,001,4,source,17,THUDDING,LF,target,left,yellow,imageability,liberal,yes,7,0,1.05023803815,-,-
2019_Nov_01,28,001,4,source,18,STICKER,LF,target,right,aqua,pleasantness,liberal,no,9,1,0.80033720544,-,-
2019_Nov_01,28,001,4,source,19,ALREADY,HF,target,left,yellow,imageability,conservative,no,2,1,1.91690991064,-,-
2019_Nov_01,28,001,4,source,20,CLEAR,HF,target,right,aqua,pleasantness,liberal,no,9,1,0.900210579262,-,-
2019_Nov_01,28,001,4,source,21,ADENOIDS,LF,target,right,aqua,pleasantness,liberal,yes,7,1,1.03351964319,-,-
2019_Nov_01,28,001,4,source,22,INSIDE,HF,target,left,yellow,imageability,liberal,no,1,1,1.36689330333,-,-
2019_Nov_01,28,001,4,source,23,ADDED,HF,target,right,aqua,pleasantness,liberal,no,9,1,1.90003020845,-,-
2019_Nov_01,28,001,4,source,24,ALABASTER,LF,target,left,yellow,imageability,conservative,no,7,0,1.45023561854,-,-
2019_Nov_01,28,001,4,source,25,MEMBERS,HF,target,right,aqua,pleasantness,conservative,no,8,1,1.1500230596,-,-
2019_Nov_01,28,001,4,source,26,WEEKS,HF,target,right,aqua,pleasantness,liberal,no,9,1,0.883614997761,-,-
2019_Nov_01,28,001,4,source,27,LIGHT,HF,target,right,aqua,pleasantness,liberal,no,9,1,0.666928057707,-,-
2019_Nov_01,28,001,4,source,28,JOBLESS,LF,target,right,aqua,pleasantness,conservative,no,9,1,1.46688729097,-,-
2019_Nov_01,28,001,4,source,29,GIRLS,HF,target,right,aqua,pleasantness,conservative,no,9,1,0.566982462237,-,-
2019_Nov_01,28,001,4,source,30,NATIONAL,HF,target,left,yellow,imageability,conservative,no,9,0,0.716953463596,-,-
2019_Nov_01,28,001,4,source,31,ENMESHED,LF,target,left,yellow,imageability,conservative,no,1,1,1.41686555115,-,-
2019_Nov_01,28,001,4,source,32,TYRANTS,LF,target,left,yellow,imageability,conservative,no,1,1,0.800267183436,-,-
2019_Nov_01,28,001,4,source,33,POLICE,HF,target,left,yellow,imageability,liberal,no,1,1,0.533556303923,-,-
2019_Nov_01,28,001,4,source,34,DEPARTS,LF,target,right,aqua,pleasantness,liberal,yes,2,0,0.899935623749,-,-
2019_Nov_01,28,001,4,source,35,COWARDS,LF,target,right,aqua,pleasantness,liberal,no,9,1,1.78355098812,-,-
2019_Nov_01,28,001,4,source,36,LONGER,HF,target,left,yellow,imageability,conservative,no,7,0,2.15028151778,-,-
2019_Nov_01,28,001,4,source,37,WAFER,LF,target,left,yellow,imageability,liberal,no,1,1,0.933527121978,-,-
2019_Nov_01,28,001,4,source,38,POWER,HF,target,left,yellow,imageability,conservative,no,1,1,1.81665893125,-,-
2019_Nov_01,28,001,4,source,39,RUINOUS,LF,target,left,yellow,imageability,liberal,no,1,1,0.783612211544,-,-
2019_Nov_01,28,001,4,source,40,HONKING,LF,target,left,yellow,imageability,liberal,no,1,1,0.716926334652,-,-
2019_Nov_01,28,001,4,source,41,PROBABLY,HF,target,right,aqua,pleasantness,conservative,no,1,0,0.900087765799,-,-
2019_Nov_01,28,001,4,source,42,ANTELOPES,LF,target,left,yellow,imageability,conservative,no,1,1,0.733619067101,-,-
2019_Nov_01,28,001,4,source,43,FITFUL,LF,target,left,yellow,imageability,liberal,no,1,1,0.650043223006,-,-
2019_Nov_01,28,001,4,source,44,MODERN,HF,target,right,aqua,pleasantness,liberal,no,8,1,3.08347392725,-,-
2019_Nov_01,28,001,4,source,45,ECHELONS,LF,target,left,yellow,imageability,conservative,no,7,0,1.30033243954,-,-
2019_Nov_01,28,001,4,source,46,OBESE,LF,target,left,yellow,imageability,liberal,no,1,1,1.08355898016,-,-
2019_Nov_01,28,001,4,source,47,CAUGHT,HF,target,left,yellow,imageability,liberal,no,7,0,2.18350090955,-,-
2019_Nov_01,28,001,4,recog,0,TEXTURES,LF,target,right,aqua,pleasantness,conservative,no,z,1,0.983528331783,1,687
2019_Nov_01,28,001,4,recog,1,COLDEST,LF,lure,-,-,-,liberal,no,m,1,1.30023162252,1,688
2019_Nov_01,28,001,4,recog,2,NEITHER,HF,lure,-,-,-,conservative,no,z,0,0.750010448309,-3,685
2019_Nov_01,28,001,4,recog,3,FUSELAGE,LF,lure,-,-,-,conservative,no,m,1,0.933581746473,3,688
2019_Nov_01,28,001,4,recog,4,LOCAL,HF,lure,-,-,-,conservative,no,m,1,0.800053817959,3,691
2019_Nov_01,28,001,4,recog,5,POLICE,HF,target,left,yellow,imageability,liberal,no,z,1,0.933493394103,3,694
2019_Nov_01,28,001,4,recog,6,FITFUL,LF,target,left,yellow,imageability,liberal,no,z,1,1.25029236936,3,697
2019_Nov_01,28,001,4,recog,7,STICKER,LF,target,right,aqua,pleasantness,liberal,no,z,1,0.716944298412,3,700
2019_Nov_01,28,001,4,recog,8,PROBABLY,HF,target,right,aqua,pleasantness,conservative,no,z,1,0.583543216041,1,701
2019_Nov_01,28,001,4,recog,9,SITTING,HF,target,left,yellow,imageability,liberal,no,z,1,0.633366254673,3,704
2019_Nov_01,28,001,4,recog,10,PUBLIC,HF,lure,-,-,-,liberal,no,m,1,0.766907381053,1,705
2019_Nov_01,28,001,4,recog,11,LONGER,HF,target,left,yellow,imageability,conservative,no,z,1,0.667021542581,1,706
2019_Nov_01,28,001,4,recog,12,MINISTER,HF,lure,-,-,-,conservative,no,m,1,0.73361100174,3,709
2019_Nov_01,28,001,4,recog,13,JABBED,LF,lure,-,-,-,liberal,no,m,1,0.866906134587,1,710
2019_Nov_01,28,001,4,recog,14,DIVAN,LF,lure,-,-,-,liberal,no,m,1,1.08356814534,1,711
2019_Nov_01,28,001,4,recog,15,OBESE,LF,target,left,yellow,imageability,liberal,no,z,1,0.600234115454,3,714
2019_Nov_01,28,001,4,recog,16,SEWED,LF,lure,-,-,-,liberal,no,m,1,0.783421209115,1,715
2019_Nov_01,28,001,4,recog,17,NATIONAL,HF,target,left,yellow,imageability,conservative,no,z,1,0.616915849681,1,716
2019_Nov_01,28,001,4,recog,18,MEETING,HF,lure,-,-,-,liberal,no,z,0,1.10000828533,-1,715
2019_Nov_01,28,001,4,recog,19,MODERN,HF,target,right,aqua,pleasantness,liberal,no,z,1,0.633640476971,3,718
2019_Nov_01,28,001,4,recog,20,ENMESHED,LF,target,left,yellow,imageability,conservative,no,z,1,0.783577750453,1,719
2019_Nov_01,28,001,4,recog,21,THUDDING,LF,target,left,yellow,imageability,liberal,yes,m,0,0.716919735721,-3,716
2019_Nov_01,28,001,4,recog,22,ANYONE,HF,target,left,yellow,imageability,conservative,no,z,1,0.700288959913,1,717
2019_Nov_01,28,001,4,recog,23,LETTER,HF,lure,-,-,-,conservative,yes,z,0,0.916689213019,-3,714
2019_Nov_01,28,001,4,recog,24,DEPARTS,LF,target,right,aqua,pleasantness,liberal,no,z,1,1.73358240637,3,717
2019_Nov_01,28,001,4,recog,25,MEMBERS,HF,target,right,aqua,pleasantness,conservative,no,z,1,0.51695412349,1,718
2019_Nov_01,28,001,4,recog,26,POSITION,HF,lure,-,-,-,conservative,no,m,1,0.783621743335,3,721
2019_Nov_01,28,001,4,recog,27,FISHY,LF,lure,-,-,-,liberal,no,m,1,0.766867054244,1,722
2019_Nov_01,28,001,4,recog,28,ASPIRED,LF,lure,-,-,-,conservative,no,m,1,0.883676221188,3,725
2019_Nov_01,28,001,4,recog,29,EDICT,LF,lure,-,-,-,liberal,no,m,1,0.633583652831,1,726
2019_Nov_01,28,001,4,recog,30,TURNED,HF,target,right,aqua,pleasantness,conservative,no,z,1,0.633538926735,1,727
2019_Nov_01,28,001,4,recog,31,WEEKS,HF,target,right,aqua,pleasantness,liberal,no,z,1,1.13366503966,3,730
2019_Nov_01,28,001,4,recog,32,ROUND,HF,lure,-,-,-,conservative,no,m,1,1.91697443354,3,733
2019_Nov_01,28,001,4,recog,33,EIGHT,HF,lure,-,-,-,liberal,no,m,1,0.766910313911,1,734
2019_Nov_01,28,001,4,recog,34,OVENS,LF,lure,-,-,-,conservative,no,m,1,0.683619323727,3,737
2019_Nov_01,28,001,4,recog,35,PREPARED,HF,lure,-,-,-,conservative,no,m,1,0.966910753839,3,740
2019_Nov_01,28,001,4,recog,36,BAIZE,LF,lure,-,-,-,liberal,no,m,1,0.583596007499,1,741
2019_Nov_01,28,001,4,recog,37,ROADWAY,LF,lure,-,-,-,conservative,no,m,1,0.650324777451,3,744
2019_Nov_01,28,001,4,recog,38,STRAIGHT,HF,lure,-,-,-,conservative,no,m,1,0.583589041959,3,747
2019_Nov_01,28,001,4,recog,39,CAUGHT,HF,target,left,yellow,imageability,liberal,no,z,1,0.950209222814,3,750
2019_Nov_01,28,001,4,recog,40,GIRLS,HF,target,right,aqua,pleasantness,conservative,no,z,1,0.633617747315,1,751
2019_Nov_01,28,001,4,recog,41,COERCION,LF,lure,-,-,-,conservative,no,m,1,0.750195951628,3,754
2019_Nov_01,28,001,4,recog,42,MANDARIN,LF,lure,-,-,-,liberal,no,m,1,0.600308903352,1,755
2019_Nov_01,28,001,4,recog,43,CHLORIDE,LF,lure,-,-,-,liberal,no,m,1,0.600211385798,1,756
2019_Nov_01,28,001,4,recog,44,COUNCIL,HF,lure,-,-,-,conservative,no,m,1,0.500254792108,3,759
2019_Nov_01,28,001,4,recog,45,POWER,HF,target,left,yellow,imageability,conservative,no,z,1,0.716890040525,1,760
2019_Nov_01,28,001,4,recog,46,STOOD,HF,target,left,yellow,imageability,conservative,no,z,1,0.716911670359,1,761
2019_Nov_01,28,001,4,recog,47,MESSED,LF,lure,-,-,-,conservative,no,m,1,0.700292259379,3,764
2019_Nov_01,28,001,4,recog,48,STAFF,HF,lure,-,-,-,liberal,no,m,1,0.700199141112,1,765
2019_Nov_01,28,001,4,recog,49,SUBJECT,HF,lure,-,-,-,conservative,no,m,1,1.40034292451,3,768
2019_Nov_01,28,001,4,recog,50,DAUGHTER,HF,target,right,aqua,pleasantness,liberal,no,z,1,0.600214685264,3,771
2019_Nov_01,28,001,4,recog,51,SIBLINGS,LF,target,right,aqua,pleasantness,conservative,no,z,1,0.700277595085,1,772
2019_Nov_01,28,001,4,recog,52,ADDED,HF,target,right,aqua,pleasantness,liberal,no,z,1,0.633587318905,3,775
2019_Nov_01,28,001,4,recog,53,DUCHY,LF,lure,-,-,-,liberal,no,m,1,0.766897116047,1,776
2019_Nov_01,28,001,4,recog,54,SHIELDING,LF,target,right,aqua,pleasantness,liberal,no,z,1,0.716929634119,3,779
2019_Nov_01,28,001,4,recog,55,ECHELONS,LF,target,left,yellow,imageability,conservative,yes,z,1,0.783572984557,1,780
2019_Nov_01,28,001,4,recog,56,RUINOUS,LF,target,left,yellow,imageability,liberal,no,z,1,0.583549814974,3,783
2019_Nov_01,28,001,4,recog,57,BUGGED,LF,lure,-,-,-,conservative,no,z,0,0.566902908443,-3,780
2019_Nov_01,28,001,4,recog,58,LIGHT,HF,target,right,aqua,pleasantness,liberal,no,z,1,1.01696695475,3,783
2019_Nov_01,28,001,4,recog,59,AROUND,HF,lure,-,-,-,conservative,no,m,1,0.900270702867,3,786
2019_Nov_01,28,001,4,recog,60,UNLESS,HF,target,left,yellow,imageability,liberal,no,m,0,0.850228066432,-3,783
2019_Nov_01,28,001,4,recog,61,YARDSTICK,LF,target,right,aqua,pleasantness,conservative,no,z,1,0.716864011403,1,784
2019_Nov_01,28,001,4,recog,62,TYRANTS,LF,target,left,yellow,imageability,conservative,no,z,1,0.566930403994,1,785
2019_Nov_01,28,001,4,recog,63,INSIDE,HF,target,left,yellow,imageability,liberal,no,z,1,0.53357610072,3,788
2019_Nov_01,28,001,4,recog,64,ALABASTER,LF,target,left,yellow,imageability,conservative,no,z,1,0.700247533282,1,789
2019_Nov_01,28,001,4,recog,65,ALREADY,HF,target,left,yellow,imageability,conservative,no,z,1,0.483611918258,1,790
2019_Nov_01,28,001,4,recog,66,HUNDRED,HF,lure,-,-,-,liberal,no,m,1,0.700207206473,1,791
2019_Nov_01,28,001,4,recog,67,COWARDS,LF,target,right,aqua,pleasantness,liberal,no,z,1,0.633589151942,3,794
2019_Nov_01,28,001,4,recog,68,PLEASE,HF,lure,-,-,-,liberal,no,m,1,0.866917132807,1,795
2019_Nov_01,28,001,4,recog,69,ENOUGH,HF,target,right,aqua,pleasantness,conservative,no,z,1,0.583589775174,1,796
2019_Nov_01,28,001,4,recog,70,UPTIGHT,LF,lure,-,-,-,conservative,no,m,1,0.716910203929,3,799
2019_Nov_01,28,001,4,recog,71,VOICE,HF,lure,-,-,-,liberal,no,m,1,0.700230669344,1,800
2019_Nov_01,28,001,4,recog,72,WAFER,LF,target,left,yellow,imageability,liberal,no,z,1,0.633584019439,3,803
2019_Nov_01,28,001,4,recog,73,WOODCOCK,LF,target,right,aqua,pleasantness,conservative,no,z,1,0.850248963051,1,804
2019_Nov_01,28,001,4,recog,74,FAUCET,LF,lure,-,-,-,conservative,no,m,1,0.733682123566,3,807
2019_Nov_01,28,001,4,recog,75,ADMIRALS,LF,target,left,yellow,imageability,conservative,no,z,1,1.11690705111,1,808
2019_Nov_01,28,001,4,recog,76,HONKING,LF,target,left,yellow,imageability,liberal,no,z,1,0.58359050839,3,811
2019_Nov_01,28,001,4,recog,77,CLEAR,HF,target,right,aqua,pleasantness,liberal,no,z,1,0.950029218606,3,814
2019_Nov_01,28,001,4,recog,78,HESITATES,LF,lure,-,-,-,conservative,no,m,1,0.700298491704,3,817
2019_Nov_01,28,001,4,recog,79,ASTERN,LF,lure,-,-,-,liberal,no,m,1,1.05018927937,1,818
2019_Nov_01,28,001,4,recog,80,ABLAZE,LF,target,right,aqua,pleasantness,conservative,no,z,1,0.650258788128,1,819
2019_Nov_01,28,001,4,recog,81,WAKED,LF,lure,-,-,-,liberal,no,m,1,0.666658601305,1,820
2019_Nov_01,28,001,4,recog,82,VETOED,LF,lure,-,-,-,conservative,no,m,1,0.700292992593,3,823
2019_Nov_01,28,001,4,recog,83,AMONG,HF,lure,-,-,-,liberal,no,m,1,0.850253728947,1,824
2019_Nov_01,28,001,4,recog,84,JOBLESS,LF,target,right,aqua,pleasantness,conservative,no,z,1,0.7836749014,1,825
2019_Nov_01,28,001,4,recog,85,THANK,HF,lure,-,-,-,liberal,no,m,1,0.816910057287,1,826
2019_Nov_01,28,001,4,recog,86,CRONE,LF,target,right,aqua,pleasantness,liberal,no,z,1,0.700346883874,3,829
2019_Nov_01,28,001,4,recog,87,ANTELOPES,LF,target,left,yellow,imageability,conservative,no,m,0,0.733579840115,-1,828
2019_Nov_01,28,001,4,recog,88,EVENING,HF,lure,-,-,-,liberal,no,m,1,1.80020852626,1,829
2019_Nov_01,28,001,4,recog,89,OUTSIDE,HF,lure,-,-,-,liberal,no,z,0,1.28355282115,-1,828
2019_Nov_01,28,001,4,recog,90,BRING,HF,lure,-,-,-,conservative,yes,z,0,0.800281481123,-3,825
2019_Nov_01,28,001,4,recog,91,LICENSING,LF,lure,-,-,-,conservative,no,m,1,1.01690169864,3,828
2019_Nov_01,28,001,4,recog,92,WATCH,HF,target,right,aqua,pleasantness,conservative,no,z,1,0.616962408815,1,829
2019_Nov_01,28,001,4,recog,93,WALKED,HF,lure,-,-,-,liberal,no,m,1,0.883610965079,1,830
2019_Nov_01,28,001,4,recog,94,ADENOIDS,LF,target,right,aqua,pleasantness,liberal,no,z,1,0.950310773051,3,833
2019_Nov_01,28,001,4,recog,95,PICTURE,HF,target,left,yellow,imageability,liberal,no,z,1,0.666883698218,3,836
