date,subj,session,cycle,task,trial,item,wf,type,source,colour,encoding,bias,null,response,corr,rt,points,total
2019_Nov_04,29,001,0,source,0,USUAL,HF,target,left,aqua,pleasantness,liberal,no,2,1,3.88340279295,-,-
2019_Nov_04,29,001,0,source,1,HYENA,LF,target,left,aqua,pleasantness,liberal,no,8,0,3.61670095655,-,-
2019_Nov_04,29,001,0,source,2,KNOWLEDGE,HF,target,left,aqua,pleasantness,liberal,no,1,1,3.15010939523,-,-
2019_Nov_04,29,001,0,source,3,TEETERED,LF,target,right,yellow,imageability,conservative,no,8,1,3.75013601083,-,-
2019_Nov_04,29,001,0,source,4,IDEAS,HF,target,right,yellow,imageability,liberal,yes,3,0,3.23344993848,-,-
2019_Nov_04,29,001,0,source,5,EXPECT,HF,target,right,yellow,imageability,liberal,no,2,0,2.16686548932,-,-
2019_Nov_04,29,001,0,source,6,SHUNNED,LF,target,left,aqua,pleasantness,liberal,no,2,1,1.53364013368,-,-
2019_Nov_04,29,001,0,source,7,GROUND,HF,target,left,aqua,pleasantness,conservative,no,2,1,1.30001165807,-,-
2019_Nov_04,29,001,0,source,8,FORCE,HF,target,right,yellow,imageability,liberal,no,1,0,3.13345008513,-,-
2019_Nov_04,29,001,0,source,9,NIGHT,HF,target,left,aqua,pleasantness,conservative,no,1,1,1.36667052825,-,-
2019_Nov_04,29,001,0,source,10,LUMBER,LF,target,right,yellow,imageability,liberal,no,2,0,1.88336686556,-,-
2019_Nov_04,29,001,0,source,11,TIRADE,LF,target,right,yellow,imageability,conservative,yes,7,1,5.01669963677,-,-
2019_Nov_04,29,001,0,source,12,NUMBER,HF,target,right,yellow,imageability,liberal,no,8,1,2.55016489938,-,-
2019_Nov_04,29,001,0,source,13,MAUSOLEUM,LF,target,right,yellow,imageability,liberal,no,8,1,2.48331942675,-,-
2019_Nov_04,29,001,0,source,14,UNION,HF,target,right,yellow,imageability,conservative,no,1,0,2.33347398784,-,-
2019_Nov_04,29,001,0,source,15,OTHERS,HF,target,right,yellow,imageability,conservative,no,1,0,3.51674033003,-,-
2019_Nov_04,29,001,0,source,16,CELLO,LF,target,right,yellow,imageability,liberal,no,8,1,4.90009363117,-,-
2019_Nov_04,29,001,0,source,17,PAPER,HF,target,left,aqua,pleasantness,liberal,no,2,1,4.46668137979,-,-
2019_Nov_04,29,001,0,source,18,INVOLVED,HF,target,right,yellow,imageability,conservative,yes,7,1,3.15011636075,-,-
2019_Nov_04,29,001,0,source,19,OFFER,HF,target,left,aqua,pleasantness,liberal,no,1,1,1.93351563428,-,-
2019_Nov_04,29,001,0,source,20,SLUGS,LF,target,left,aqua,pleasantness,conservative,no,1,1,3.45007926022,-,-
2019_Nov_04,29,001,0,source,21,BIDDER,LF,target,right,yellow,imageability,liberal,no,2,0,3.75009311793,-,-
2019_Nov_04,29,001,0,source,22,SNOBBISH,LF,target,left,aqua,pleasantness,liberal,no,1,1,1.4501756776,-,-
2019_Nov_04,29,001,0,source,23,COUNCIL,HF,target,right,yellow,imageability,conservative,no,1,0,1.76684921202,-,-
2019_Nov_04,29,001,0,source,24,ITSELF,HF,target,left,aqua,pleasantness,liberal,no,8,0,2.13358242989,-,-
2019_Nov_04,29,001,0,source,25,TWENTY,HF,target,right,yellow,imageability,liberal,no,2,0,3.58351174826,-,-
2019_Nov_04,29,001,0,source,26,INEDIBLE,LF,target,left,aqua,pleasantness,liberal,no,7,0,3.20012178652,-,-
2019_Nov_04,29,001,0,source,27,RAMBLE,LF,target,left,aqua,pleasantness,conservative,no,7,0,1.7834887254,-,-
2019_Nov_04,29,001,0,source,28,JABBED,LF,target,left,aqua,pleasantness,liberal,no,7,0,4.9333950209,-,-
2019_Nov_04,29,001,0,source,29,FAMILY,HF,target,right,yellow,imageability,conservative,no,2,0,5.20003856695,-,-
2019_Nov_04,29,001,0,source,30,OUSTED,LF,target,left,aqua,pleasantness,conservative,no,2,1,3.39997485083,-,-
2019_Nov_04,29,001,0,source,31,SEVEN,HF,target,right,yellow,imageability,conservative,no,1,0,2.8167578538,-,-
2019_Nov_04,29,001,0,source,32,WESTERN,HF,target,left,aqua,pleasantness,conservative,no,8,0,1.86681350459,-,-
2019_Nov_04,29,001,0,source,33,PUBLIC,HF,target,left,aqua,pleasantness,conservative,no,8,0,7.76630883476,-,-
2019_Nov_04,29,001,0,source,34,POLICE,HF,target,left,aqua,pleasantness,conservative,yes,7,0,2.46678402947,-,-
2019_Nov_04,29,001,0,source,35,DUSTER,LF,target,left,aqua,pleasantness,conservative,no,8,0,5.83332037992,-,-
2019_Nov_04,29,001,0,source,36,PREPARED,HF,target,right,yellow,imageability,liberal,no,2,0,3.71659706041,-,-
2019_Nov_04,29,001,0,source,37,LAMENT,LF,target,left,aqua,pleasantness,conservative,no,8,0,2.61681497102,-,-
2019_Nov_04,29,001,0,source,38,ANNALS,LF,target,right,yellow,imageability,conservative,no,2,0,4.6334181904,-,-
2019_Nov_04,29,001,0,source,39,ABBOT,LF,target,right,yellow,imageability,liberal,no,8,1,4.16669355111,-,-
2019_Nov_04,29,001,0,source,40,VIVACIOUS,LF,target,right,yellow,imageability,conservative,no,8,1,2.84991736701,-,-
2019_Nov_04,29,001,0,source,41,BRING,HF,target,left,aqua,pleasantness,liberal,no,8,0,2.33349488438,-,-
2019_Nov_04,29,001,0,source,42,GARDEN,HF,target,left,aqua,pleasantness,conservative,no,1,1,2.0168789071,-,-
2019_Nov_04,29,001,0,source,43,SPLASHES,LF,target,right,yellow,imageability,liberal,no,3,0,4.20007412773,-,-
2019_Nov_04,29,001,0,source,44,KETCHUP,LF,target,left,aqua,pleasantness,conservative,no,1,1,2.61680213981,-,-
2019_Nov_04,29,001,0,source,45,ROOFED,LF,target,right,yellow,imageability,conservative,no,8,1,3.1834921715,-,-
2019_Nov_04,29,001,0,source,46,SEABED,LF,target,left,aqua,pleasantness,liberal,no,7,0,5.98332529244,-,-
2019_Nov_04,29,001,0,source,47,SNIGGERED,LF,target,right,yellow,imageability,conservative,no,3,0,7.23328826524,-,-
2019_Nov_04,29,001,0,recog,0,WONDROUS,LF,lure,-,-,-,conservative,no,None,-1,-1,-3,-3
2019_Nov_04,29,001,0,recog,1,KNOWLEDGE,HF,target,left,aqua,pleasantness,liberal,no,z,1,3.20010418943,3,0
2019_Nov_04,29,001,0,recog,2,YORKER,LF,lure,-,-,-,liberal,no,m,1,2.40017025183,1,1
2019_Nov_04,29,001,0,recog,3,BUSINESS,HF,lure,-,-,-,conservative,no,m,1,2.35018608921,3,4
2019_Nov_04,29,001,0,recog,4,HERSELF,HF,lure,-,-,-,liberal,no,m,1,1.61698947547,1,5
2019_Nov_04,29,001,0,recog,5,ROWAN,LF,lure,-,-,-,conservative,no,m,1,1.15025053854,3,8
2019_Nov_04,29,001,0,recog,6,VACATED,LF,lure,-,-,-,liberal,no,z,0,2.55011210812,-1,7
2019_Nov_04,29,001,0,recog,7,TEETERED,LF,target,right,yellow,imageability,conservative,no,z,1,3.46677706396,1,8
2019_Nov_04,29,001,0,recog,8,OUSTED,LF,target,left,aqua,pleasantness,conservative,no,z,1,1.5835451094,1,9
2019_Nov_04,29,001,0,recog,9,LENGTHEN,LF,lure,-,-,-,liberal,no,m,1,1.63346144991,1,10
2019_Nov_04,29,001,0,recog,10,LICENSING,LF,lure,-,-,-,liberal,no,m,1,1.5335679123,1,11
2019_Nov_04,29,001,0,recog,11,TIRADE,LF,target,right,yellow,imageability,conservative,no,m,0,1.55020046016,-1,10
2019_Nov_04,29,001,0,recog,12,PAPER,HF,target,left,aqua,pleasantness,liberal,no,z,1,2.00001503085,3,13
2019_Nov_04,29,001,0,recog,13,DREADING,LF,lure,-,-,-,liberal,no,z,0,1.8502344812,-1,12
2019_Nov_04,29,001,0,recog,14,BIDDER,LF,target,right,yellow,imageability,liberal,no,z,1,1.81693859056,3,15
2019_Nov_04,29,001,0,recog,15,ITSELF,HF,target,left,aqua,pleasantness,liberal,no,z,1,1.03361373805,3,18
2019_Nov_04,29,001,0,recog,16,SPLASHES,LF,target,right,yellow,imageability,liberal,no,z,1,1.38356629923,3,21
2019_Nov_04,29,001,0,recog,17,IDEAS,HF,target,right,yellow,imageability,liberal,no,m,0,1.2169325049,-3,18
2019_Nov_04,29,001,0,recog,18,SHIELDING,LF,lure,-,-,-,liberal,no,m,1,2.18346760889,1,19
2019_Nov_04,29,001,0,recog,19,FOOLHARDY,LF,lure,-,-,-,conservative,no,m,1,2.1501746511,3,22
2019_Nov_04,29,001,0,recog,20,WISPY,LF,lure,-,-,-,conservative,no,m,1,1.25023059518,3,25
2019_Nov_04,29,001,0,recog,21,ABBOT,LF,target,right,yellow,imageability,liberal,no,z,1,1.54994860184,3,28
2019_Nov_04,29,001,0,recog,22,WINDOW,HF,lure,-,-,-,liberal,yes,z,0,3.9667492019,-1,27
2019_Nov_04,29,001,0,recog,23,THING,HF,lure,-,-,-,liberal,no,m,1,1.58355280813,1,28
2019_Nov_04,29,001,0,recog,24,TWENTY,HF,target,right,yellow,imageability,liberal,no,z,1,1.15021864382,3,31
2019_Nov_04,29,001,0,recog,25,DOCTOR,HF,lure,-,-,-,conservative,no,z,0,1.28358807563,-3,28
2019_Nov_04,29,001,0,recog,26,UNGAINLY,LF,lure,-,-,-,liberal,no,m,1,2.13354686911,1,29
2019_Nov_04,29,001,0,recog,27,BROUGHT,HF,lure,-,-,-,conservative,no,m,1,1.23362884221,3,32
2019_Nov_04,29,001,0,recog,28,UNION,HF,target,right,yellow,imageability,conservative,no,z,1,0.983559187073,1,33
2019_Nov_04,29,001,0,recog,29,OUGHT,HF,lure,-,-,-,liberal,no,z,0,1.36682853544,-1,32
2019_Nov_04,29,001,0,recog,30,ACROSS,HF,lure,-,-,-,conservative,no,z,0,2.06685757063,-3,29
2019_Nov_04,29,001,0,recog,31,NEMESIS,LF,lure,-,-,-,conservative,no,m,1,1.80018506271,3,32
2019_Nov_04,29,001,0,recog,32,KETCHUP,LF,target,left,aqua,pleasantness,conservative,no,z,1,1.1502967309,1,33
2019_Nov_04,29,001,0,recog,33,LANGUAGE,HF,lure,-,-,-,liberal,no,m,1,2.21683535431,1,34
2019_Nov_04,29,001,0,recog,34,CEMENTED,LF,lure,-,-,-,conservative,no,z,0,2.08342596245,-3,31
2019_Nov_04,29,001,0,recog,35,FORCE,HF,target,right,yellow,imageability,liberal,no,z,1,1.38353293808,3,34
2019_Nov_04,29,001,0,recog,36,OFTEN,HF,lure,-,-,-,conservative,no,m,1,1.23335242129,3,37
2019_Nov_04,29,001,0,recog,37,VIVACIOUS,LF,target,right,yellow,imageability,conservative,no,z,1,1.51689613759,1,38
2019_Nov_04,29,001,0,recog,38,SEABED,LF,target,left,aqua,pleasantness,liberal,no,z,1,2.00015360792,3,41
2019_Nov_04,29,001,0,recog,39,INSIDE,HF,lure,-,-,-,conservative,no,m,1,3.96672243966,3,44
2019_Nov_04,29,001,0,recog,40,PHRASED,LF,lure,-,-,-,conservative,no,m,1,1.63350690906,3,47
2019_Nov_04,29,001,0,recog,41,SHORT,HF,lure,-,-,-,liberal,no,m,1,2.01683381456,1,48
2019_Nov_04,29,001,0,recog,42,COUNCIL,HF,target,right,yellow,imageability,conservative,no,m,0,3.76674252967,-1,47
2019_Nov_04,29,001,0,recog,43,OFFER,HF,target,left,aqua,pleasantness,liberal,no,z,1,1.03357781066,3,50
2019_Nov_04,29,001,0,recog,44,ANNALS,LF,target,right,yellow,imageability,conservative,no,z,1,0.883520473479,1,51
2019_Nov_04,29,001,0,recog,45,NUMBER,HF,target,right,yellow,imageability,liberal,no,z,1,0.883533671295,3,54
2019_Nov_04,29,001,0,recog,46,DIFFERENT,HF,lure,-,-,-,conservative,no,m,1,1.80029907718,3,57
2019_Nov_04,29,001,0,recog,47,EITHER,HF,lure,-,-,-,liberal,no,m,1,2.33368222005,1,58
2019_Nov_04,29,001,0,recog,48,INVOLVED,HF,target,right,yellow,imageability,conservative,no,m,0,2.00015140828,-1,57
2019_Nov_04,29,001,0,recog,49,PROBABLY,HF,lure,-,-,-,liberal,no,m,1,1.41685119169,1,58
2019_Nov_04,29,001,0,recog,50,DUSTER,LF,target,left,aqua,pleasantness,conservative,no,z,1,1.33349855044,1,59
2019_Nov_04,29,001,0,recog,51,BASIC,HF,lure,-,-,-,conservative,no,m,1,1.016933898,3,62
2019_Nov_04,29,001,0,recog,52,SNOBBISH,LF,target,left,aqua,pleasantness,liberal,no,z,1,0.88357546438,3,65
2019_Nov_04,29,001,0,recog,53,SLUGS,LF,target,left,aqua,pleasantness,conservative,no,z,1,0.833578470549,1,66
2019_Nov_04,29,001,0,recog,54,INEDIBLE,LF,target,left,aqua,pleasantness,liberal,no,z,1,4.83340726554,3,69
2019_Nov_04,29,001,0,recog,55,TOPICAL,LF,lure,-,-,-,liberal,no,m,1,1.48353132502,1,70
2019_Nov_04,29,001,0,recog,56,FAMILY,HF,target,right,yellow,imageability,conservative,no,z,1,1.03355654751,1,71
2019_Nov_04,29,001,0,recog,57,LUMBER,LF,target,right,yellow,imageability,liberal,no,z,1,1.08355390795,3,74
2019_Nov_04,29,001,0,recog,58,GARDEN,HF,target,left,aqua,pleasantness,conservative,no,z,1,1.01690970201,1,75
2019_Nov_04,29,001,0,recog,59,JABBED,LF,target,left,aqua,pleasantness,liberal,no,m,0,2.8668076389,-3,72
2019_Nov_04,29,001,0,recog,60,GROUND,HF,target,left,aqua,pleasantness,conservative,no,z,1,0.650272168299,1,73
2019_Nov_04,29,001,0,recog,61,HYENA,LF,target,left,aqua,pleasantness,liberal,no,m,0,0.849982622875,-3,70
2019_Nov_04,29,001,0,recog,62,COERCION,LF,lure,-,-,-,conservative,no,m,1,0.950265129463,3,73
2019_Nov_04,29,001,0,recog,63,REWRITE,LF,lure,-,-,-,liberal,no,m,1,2.13352927202,1,74
2019_Nov_04,29,001,0,recog,64,PREPARED,HF,target,right,yellow,imageability,liberal,no,z,1,2.88346731561,3,77
2019_Nov_04,29,001,0,recog,65,ZEALOTS,LF,lure,-,-,-,conservative,no,m,1,0.866891225066,3,80
2019_Nov_04,29,001,0,recog,66,USUAL,HF,target,left,aqua,pleasantness,liberal,no,z,1,0.966895111089,3,83
2019_Nov_04,29,001,0,recog,67,MYSELF,HF,lure,-,-,-,conservative,no,m,1,2.78347222813,3,86
2019_Nov_04,29,001,0,recog,68,NIGHT,HF,target,left,aqua,pleasantness,conservative,no,z,1,1.26691666752,1,87
2019_Nov_04,29,001,0,recog,69,SNIGGERED,LF,target,right,yellow,imageability,conservative,no,m,0,1.36690845555,-1,86
2019_Nov_04,29,001,0,recog,70,SPACE,HF,lure,-,-,-,liberal,no,z,0,2.50009861702,-1,85
2019_Nov_04,29,001,0,recog,71,OTHERS,HF,target,right,yellow,imageability,conservative,no,z,1,1.65024503945,1,86
2019_Nov_04,29,001,0,recog,72,DRUDGERY,LF,lure,-,-,-,liberal,no,m,1,3.28347956025,1,87
2019_Nov_04,29,001,0,recog,73,NECESSARY,HF,lure,-,-,-,conservative,no,m,1,4.36672881861,3,90
2019_Nov_04,29,001,0,recog,74,SITTING,HF,lure,-,-,-,liberal,yes,m,1,2.00015800719,1,91
2019_Nov_04,29,001,0,recog,75,EXPECT,HF,target,right,yellow,imageability,liberal,no,z,1,1.68364871226,3,94
2019_Nov_04,29,001,0,recog,76,URCHIN,LF,lure,-,-,-,conservative,yes,z,0,1.76683968026,-3,91
2019_Nov_04,29,001,0,recog,77,RAMBLE,LF,target,left,aqua,pleasantness,conservative,no,m,0,2.2165842292,-1,90
2019_Nov_04,29,001,0,recog,78,CELLO,LF,target,right,yellow,imageability,liberal,no,m,0,1.08335777373,-3,87
2019_Nov_04,29,001,0,recog,79,WEDGES,LF,lure,-,-,-,conservative,no,m,1,0.983565419375,3,90
2019_Nov_04,29,001,0,recog,80,WESTERN,HF,target,left,aqua,pleasantness,conservative,no,z,1,0.88356813226,1,91
2019_Nov_04,29,001,0,recog,81,BRING,HF,target,left,aqua,pleasantness,liberal,no,z,1,4.60003138147,3,94
2019_Nov_04,29,001,0,recog,82,LAMENT,LF,target,left,aqua,pleasantness,conservative,no,z,1,1.18355999361,1,95
2019_Nov_04,29,001,0,recog,83,BEHIND,HF,lure,-,-,-,conservative,no,m,1,1.01688990528,3,98
2019_Nov_04,29,001,0,recog,84,SYMBOLIZE,LF,lure,-,-,-,liberal,no,m,1,1.31690083014,1,99
2019_Nov_04,29,001,0,recog,85,ROOFED,LF,target,right,yellow,imageability,conservative,no,z,1,1.28360273987,1,100
2019_Nov_04,29,001,0,recog,86,MAYBE,HF,lure,-,-,-,conservative,no,m,1,1.26664317944,3,103
2019_Nov_04,29,001,0,recog,87,WOMAN,HF,lure,-,-,-,liberal,no,m,1,1.28350742231,1,104
2019_Nov_04,29,001,0,recog,88,SEVEN,HF,target,right,yellow,imageability,conservative,no,z,1,0.98358888216,1,105
2019_Nov_04,29,001,0,recog,89,CORNER,HF,lure,-,-,-,liberal,no,z,0,1.74995050819,-1,104
2019_Nov_04,29,001,0,recog,90,PUBLIC,HF,target,left,aqua,pleasantness,conservative,no,z,1,1.15023147503,1,105
2019_Nov_04,29,001,0,recog,91,BIRCHES,LF,lure,-,-,-,liberal,no,m,1,1.11691872052,1,106
2019_Nov_04,29,001,0,recog,92,MAUSOLEUM,LF,target,right,yellow,imageability,liberal,yes,m,0,1.31696241995,-3,103
2019_Nov_04,29,001,0,recog,93,POLICE,HF,target,left,aqua,pleasantness,conservative,no,z,1,2.60020955199,1,104
2019_Nov_04,29,001,0,recog,94,FASCINATE,LF,lure,-,-,-,conservative,no,m,1,2.74998643558,3,107
2019_Nov_04,29,001,0,recog,95,SHUNNED,LF,target,left,aqua,pleasantness,liberal,no,z,1,3.73341034503,3,110
2019_Nov_04,29,001,1,source,0,GLASS,HF,target,left,aqua,pleasantness,liberal,no,1,1,4.55000579238,-,-
2019_Nov_04,29,001,1,source,1,MOLARS,LF,target,right,yellow,imageability,conservative,yes,7,1,2.63346731561,-,-
2019_Nov_04,29,001,1,source,2,ENFORCING,LF,target,right,yellow,imageability,conservative,no,1,0,3.79977629702,-,-
2019_Nov_04,29,001,1,source,3,WANTED,HF,target,right,yellow,imageability,conservative,no,7,1,3.83326062314,-,-
2019_Nov_04,29,001,1,source,4,TURNED,HF,target,right,yellow,imageability,liberal,no,8,1,2.10013513097,-,-
2019_Nov_04,29,001,1,source,5,SWIFTNESS,LF,target,right,yellow,imageability,liberal,no,2,0,2.26684151329,-,-
2019_Nov_04,29,001,1,source,6,CHOICE,HF,target,right,yellow,imageability,conservative,no,8,1,3.41676723891,-,-
2019_Nov_04,29,001,1,source,7,FIGURE,HF,target,left,aqua,pleasantness,conservative,no,1,1,1.83363712751,-,-
2019_Nov_04,29,001,1,source,8,POTASH,LF,target,right,yellow,imageability,conservative,no,8,1,2.00014114331,-,-
2019_Nov_04,29,001,1,source,9,TABLE,HF,target,left,aqua,pleasantness,liberal,yes,2,1,2.81654852177,-,-
2019_Nov_04,29,001,1,source,10,EATERS,LF,target,right,yellow,imageability,liberal,no,9,1,4.16674120989,-,-
2019_Nov_04,29,001,1,source,11,UNLESS,HF,target,left,aqua,pleasantness,liberal,no,1,1,3.2166271221,-,-
2019_Nov_04,29,001,1,source,12,OBVIOUSLY,HF,target,right,yellow,imageability,conservative,yes,7,1,1.90015338795,-,-
2019_Nov_04,29,001,1,source,13,TANGIER,LF,target,right,yellow,imageability,liberal,no,1,0,3.83320269939,-,-
2019_Nov_04,29,001,1,source,14,BURGH,LF,target,right,yellow,imageability,liberal,no,8,1,4.01674289628,-,-
2019_Nov_04,29,001,1,source,15,EVENING,HF,target,right,yellow,imageability,liberal,no,9,1,4.81666693551,-,-
2019_Nov_04,29,001,1,source,16,HOIST,LF,target,left,aqua,pleasantness,conservative,no,8,0,3.58322506236,-,-
2019_Nov_04,29,001,1,source,17,DOUBT,HF,target,left,aqua,pleasantness,conservative,no,2,1,5.84985211114,-,-
2019_Nov_04,29,001,1,source,18,CREAK,LF,target,left,aqua,pleasantness,conservative,no,2,1,4.26651706698,-,-
2019_Nov_04,29,001,1,source,19,CERTAIN,HF,target,left,aqua,pleasantness,conservative,no,1,1,2.33348718565,-,-
2019_Nov_04,29,001,1,source,20,EARLIER,HF,target,right,yellow,imageability,liberal,no,2,0,5.2666835061,-,-
2019_Nov_04,29,001,1,source,21,FILAMENTS,LF,target,left,aqua,pleasantness,conservative,no,2,1,4.4498460988,-,-
2019_Nov_04,29,001,1,source,22,PHYSICAL,HF,target,right,yellow,imageability,conservative,no,8,1,5.44977791008,-,-
2019_Nov_04,29,001,1,source,23,ASKED,HF,target,left,aqua,pleasantness,liberal,no,1,1,6.4665842292,-,-
2019_Nov_04,29,001,1,source,24,PRIVATE,HF,target,right,yellow,imageability,conservative,no,1,0,2.9168148977,-,-
2019_Nov_04,29,001,1,source,25,HOWEVER,HF,target,right,yellow,imageability,liberal,no,8,1,2.36682670241,-,-
2019_Nov_04,29,001,1,source,26,BEYOND,HF,target,left,aqua,pleasantness,conservative,no,3,1,4.76674802876,-,-
2019_Nov_04,29,001,1,source,27,CAPITAL,HF,target,left,aqua,pleasantness,conservative,no,1,1,1.64999464755,-,-
2019_Nov_04,29,001,1,source,28,DERANGED,LF,target,right,yellow,imageability,conservative,no,8,1,2.50021153167,-,-
2019_Nov_04,29,001,1,source,29,INNATELY,LF,target,left,aqua,pleasantness,liberal,no,2,1,1.98353389126,-,-
2019_Nov_04,29,001,1,source,30,FLYWHEEL,LF,target,right,yellow,imageability,liberal,no,3,0,5.78329845688,-,-
2019_Nov_04,29,001,1,source,31,MEMBERS,HF,target,right,yellow,imageability,conservative,no,8,1,2.18350390289,-,-
2019_Nov_04,29,001,1,source,32,ALIAS,LF,target,left,aqua,pleasantness,conservative,no,2,1,2.21681849043,-,-
2019_Nov_04,29,001,1,source,33,ENERGY,HF,target,right,yellow,imageability,liberal,no,1,0,4.14990519569,-,-
2019_Nov_04,29,001,1,source,34,ORIGINALS,LF,target,left,aqua,pleasantness,conservative,no,8,0,4.16669575074,-,-
2019_Nov_04,29,001,1,source,35,BEQUEST,LF,target,left,aqua,pleasantness,conservative,no,2,1,2.71677743056,-,-
2019_Nov_04,29,001,1,source,36,QUICKLY,HF,target,left,aqua,pleasantness,liberal,no,1,1,2.40019334801,-,-
2019_Nov_04,29,001,1,source,37,FIFTIETH,LF,target,left,aqua,pleasantness,liberal,yes,7,0,1.95022993529,-,-
2019_Nov_04,29,001,1,source,38,COACHED,LF,target,left,aqua,pleasantness,liberal,no,2,1,7.04997169802,-,-
2019_Nov_04,29,001,1,source,39,SOAPY,LF,target,right,yellow,imageability,liberal,no,8,1,2.14996898513,-,-
2019_Nov_04,29,001,1,source,40,EXCEPT,HF,target,right,yellow,imageability,liberal,no,1,0,3.08349818383,-,-
2019_Nov_04,29,001,1,source,41,BAGGY,LF,target,right,yellow,imageability,conservative,no,8,1,2.43341591745,-,-
2019_Nov_04,29,001,1,source,42,BUILDING,HF,target,left,aqua,pleasantness,conservative,no,1,1,6.86643040132,-,-
2019_Nov_04,29,001,1,source,43,EDICT,LF,target,left,aqua,pleasantness,liberal,no,8,0,3.2501646061,-,-
2019_Nov_04,29,001,1,source,44,SMUDGE,LF,target,left,aqua,pleasantness,liberal,no,2,1,2.98342317625,-,-
2019_Nov_04,29,001,1,source,45,LOBBIES,LF,target,right,yellow,imageability,conservative,no,2,0,2.03351365461,-,-
2019_Nov_04,29,001,1,source,46,NICETIES,LF,target,left,aqua,pleasantness,liberal,no,8,0,2.55010660903,-,-
2019_Nov_04,29,001,1,source,47,PASSED,HF,target,left,aqua,pleasantness,liberal,no,1,1,2.01685177826,-,-
2019_Nov_04,29,001,1,recog,0,BAGGY,LF,target,right,yellow,imageability,conservative,no,m,0,3.34990746864,-1,109
2019_Nov_04,29,001,1,recog,1,RINSING,LF,lure,-,-,-,conservative,no,m,1,3.65009069833,3,112
2019_Nov_04,29,001,1,recog,2,FILAMENTS,LF,target,left,aqua,pleasantness,conservative,no,z,1,2.23349723066,1,113
2019_Nov_04,29,001,1,recog,3,RESEARCH,HF,lure,-,-,-,conservative,no,m,1,1.21687641418,3,116
2019_Nov_04,29,001,1,recog,4,WANTED,HF,target,right,yellow,imageability,conservative,no,z,1,1.50030941547,1,117
2019_Nov_04,29,001,1,recog,5,PARENTS,HF,lure,-,-,-,liberal,no,z,0,3.6167588803,-1,116
2019_Nov_04,29,001,1,recog,6,KITCHEN,HF,lure,-,-,-,conservative,no,m,1,2.13351020851,3,119
2019_Nov_04,29,001,1,recog,7,MAJOR,HF,lure,-,-,-,liberal,no,m,1,1.86681680405,1,120
2019_Nov_04,29,001,1,recog,8,CAPITAL,HF,target,left,aqua,pleasantness,conservative,no,z,1,2.01682868208,1,121
2019_Nov_04,29,001,1,recog,9,LYNCH,LF,lure,-,-,-,conservative,no,m,1,1.96679906032,3,124
2019_Nov_04,29,001,1,recog,10,GENERAL,HF,lure,-,-,-,liberal,no,m,1,2.30022392295,1,125
2019_Nov_04,29,001,1,recog,11,PHYSICAL,HF,target,right,yellow,imageability,conservative,no,z,1,1.73353205823,1,126
2019_Nov_04,29,001,1,recog,12,BECAME,HF,lure,-,-,-,conservative,no,m,1,2.58333101149,3,129
2019_Nov_04,29,001,1,recog,13,SPOKE,HF,lure,-,-,-,liberal,no,m,1,1.33354400958,1,130
2019_Nov_04,29,001,1,recog,14,NEITHER,HF,lure,-,-,-,conservative,no,m,1,1.55016416617,3,133
2019_Nov_04,29,001,1,recog,15,TANGIER,LF,target,right,yellow,imageability,liberal,no,z,1,2.23356285313,3,136
2019_Nov_04,29,001,1,recog,16,PRIVATE,HF,target,right,yellow,imageability,conservative,no,z,1,1.23356615259,1,137
2019_Nov_04,29,001,1,recog,17,FOUND,HF,lure,-,-,-,liberal,no,m,1,0.967003626467,1,138
2019_Nov_04,29,001,1,recog,18,ABOVE,HF,lure,-,-,-,liberal,no,m,1,1.20021637086,1,139
2019_Nov_04,29,001,1,recog,19,ENERGY,HF,target,right,yellow,imageability,liberal,no,z,1,2.48359364804,3,142
2019_Nov_04,29,001,1,recog,20,INDEED,HF,lure,-,-,-,liberal,no,m,1,1.46690574266,1,143
2019_Nov_04,29,001,1,recog,21,SOAPY,LF,target,right,yellow,imageability,liberal,yes,z,1,3.06679744725,3,146
2019_Nov_04,29,001,1,recog,22,EARLIER,HF,target,right,yellow,imageability,liberal,no,z,1,4.18348337295,3,149
2019_Nov_04,29,001,1,recog,23,SAYING,HF,lure,-,-,-,conservative,no,m,1,1.10020075345,3,152
2019_Nov_04,29,001,1,recog,24,LOOKED,HF,lure,-,-,-,conservative,no,m,1,3.81671276126,3,155
2019_Nov_04,29,001,1,recog,25,WHETHER,HF,lure,-,-,-,conservative,no,m,1,3.16674084328,3,158
2019_Nov_04,29,001,1,recog,26,ENFORCING,LF,target,right,yellow,imageability,conservative,no,z,1,1.25027055523,1,159
2019_Nov_04,29,001,1,recog,27,YEARN,LF,lure,-,-,-,conservative,no,m,1,1.48356578598,3,162
2019_Nov_04,29,001,1,recog,28,USELESSLY,LF,lure,-,-,-,liberal,no,z,0,2.66681416448,-1,161
2019_Nov_04,29,001,1,recog,29,DOUBT,HF,target,left,aqua,pleasantness,conservative,no,z,1,1.60013879703,1,162
2019_Nov_04,29,001,1,recog,30,DEGREE,HF,lure,-,-,-,liberal,no,m,1,2.83358616928,1,163
2019_Nov_04,29,001,1,recog,31,CHOICE,HF,target,right,yellow,imageability,conservative,no,m,0,1.20019694075,-1,162
2019_Nov_04,29,001,1,recog,32,HOIST,LF,target,left,aqua,pleasantness,conservative,no,z,1,1.01689943704,1,163
2019_Nov_04,29,001,1,recog,33,OSTRACISM,LF,lure,-,-,-,conservative,no,m,1,2.80018469611,3,166
2019_Nov_04,29,001,1,recog,34,PASSED,HF,target,left,aqua,pleasantness,liberal,no,z,1,1.26698412303,3,169
2019_Nov_04,29,001,1,recog,35,GLASS,HF,target,left,aqua,pleasantness,liberal,no,z,1,1.28357561102,3,172
2019_Nov_04,29,001,1,recog,36,BURGH,LF,target,right,yellow,imageability,liberal,no,z,1,1.15018381625,3,175
2019_Nov_04,29,001,1,recog,37,EDICT,LF,target,left,aqua,pleasantness,liberal,no,z,1,0.750340210373,3,178
2019_Nov_04,29,001,1,recog,38,GERANIUMS,LF,lure,-,-,-,liberal,no,z,0,1.33359130176,-1,177
2019_Nov_04,29,001,1,recog,39,EXCEPT,HF,target,right,yellow,imageability,liberal,no,z,1,0.900234041274,3,180
2019_Nov_04,29,001,1,recog,40,CUDDLE,LF,lure,-,-,-,conservative,no,m,1,1.20021893711,3,183
2019_Nov_04,29,001,1,recog,41,ARSENALS,LF,lure,-,-,-,liberal,no,z,0,3.38340242635,-1,182
2019_Nov_04,29,001,1,recog,42,DERANGED,LF,target,right,yellow,imageability,conservative,no,m,0,1.7666648092,-1,181
2019_Nov_04,29,001,1,recog,43,FIFTIETH,LF,target,left,aqua,pleasantness,liberal,no,m,0,2.80015830047,-3,178
2019_Nov_04,29,001,1,recog,44,BOXCAR,LF,lure,-,-,-,conservative,no,m,1,4.83343402778,3,181
2019_Nov_04,29,001,1,recog,45,ORIGINALS,LF,target,left,aqua,pleasantness,conservative,no,z,1,1.000195401,1,182
2019_Nov_04,29,001,1,recog,46,OPENED,HF,lure,-,-,-,liberal,no,z,0,5.10002001669,-1,181
2019_Nov_04,29,001,1,recog,47,TABLE,HF,target,left,aqua,pleasantness,liberal,no,m,0,1.23360061355,-3,178
2019_Nov_04,29,001,1,recog,48,ANCHORAGE,LF,lure,-,-,-,liberal,no,z,0,1.75028155341,-1,177
2019_Nov_04,29,001,1,recog,49,SUPPORT,HF,lure,-,-,-,conservative,no,m,1,1.30024261985,3,180
2019_Nov_04,29,001,1,recog,50,TOXICITY,LF,lure,-,-,-,conservative,no,m,1,1.28359100847,3,183
2019_Nov_04,29,001,1,recog,51,KILOWATT,LF,lure,-,-,-,liberal,no,m,1,1.31683814052,1,184
2019_Nov_04,29,001,1,recog,52,NICETIES,LF,target,left,aqua,pleasantness,liberal,yes,z,1,1.30022172331,3,187
2019_Nov_04,29,001,1,recog,53,EATERS,LF,target,right,yellow,imageability,liberal,no,z,1,1.76689797062,3,190
2019_Nov_04,29,001,1,recog,54,EVENING,HF,target,right,yellow,imageability,liberal,no,z,1,1.05021769065,3,193
2019_Nov_04,29,001,1,recog,55,INUNDATED,LF,lure,-,-,-,conservative,no,m,1,1.25021739736,3,196
2019_Nov_04,29,001,1,recog,56,GIPSY,LF,lure,-,-,-,conservative,no,m,1,3.51677919027,3,199
2019_Nov_04,29,001,1,recog,57,HONKING,LF,lure,-,-,-,conservative,no,z,0,1.85022384963,-3,196
2019_Nov_04,29,001,1,recog,58,RABBIS,LF,lure,-,-,-,liberal,no,m,1,1.4334984038,1,197
2019_Nov_04,29,001,1,recog,59,EAVES,LF,lure,-,-,-,conservative,no,m,1,0.933632581596,3,200
2019_Nov_04,29,001,1,recog,60,HAVING,HF,lure,-,-,-,conservative,no,m,1,1.96689914375,3,203
2019_Nov_04,29,001,1,recog,61,BEYOND,HF,target,left,aqua,pleasantness,conservative,no,z,1,2.20015478106,1,204
2019_Nov_04,29,001,1,recog,62,LOBBIES,LF,target,right,yellow,imageability,conservative,no,z,1,1.51681658408,1,205
2019_Nov_04,29,001,1,recog,63,TUFTS,LF,lure,-,-,-,liberal,no,m,1,1.3502524449,1,206
2019_Nov_04,29,001,1,recog,64,HOWEVER,HF,target,right,yellow,imageability,liberal,no,z,1,1.31688140002,3,209
2019_Nov_04,29,001,1,recog,65,ASKED,HF,target,left,aqua,pleasantness,liberal,no,z,1,0.816889831963,3,212
2019_Nov_04,29,001,1,recog,66,POTASH,LF,target,right,yellow,imageability,conservative,no,z,1,1.10017252479,1,213
2019_Nov_04,29,001,1,recog,67,INNATELY,LF,target,left,aqua,pleasantness,liberal,no,m,0,1.91676723891,-3,210
2019_Nov_04,29,001,1,recog,68,ENZYME,LF,lure,-,-,-,liberal,no,z,0,3.26683454778,-1,209
2019_Nov_04,29,001,1,recog,69,HIGHER,HF,lure,-,-,-,conservative,no,m,1,4.45009282464,3,212
2019_Nov_04,29,001,1,recog,70,SMUDGE,LF,target,left,aqua,pleasantness,liberal,no,z,1,1.3168740679,3,215
2019_Nov_04,29,001,1,recog,71,BEQUEST,LF,target,left,aqua,pleasantness,conservative,no,m,0,1.93377555794,-1,214
2019_Nov_04,29,001,1,recog,72,UNLESS,HF,target,left,aqua,pleasantness,liberal,no,z,1,1.25025222493,3,217
2019_Nov_04,29,001,1,recog,73,OATHS,LF,lure,-,-,-,liberal,no,z,0,4.03338387608,-1,216
2019_Nov_04,29,001,1,recog,74,ALONE,HF,lure,-,-,-,conservative,no,m,1,2.01687927371,3,219
2019_Nov_04,29,001,1,recog,75,SLEEP,HF,lure,-,-,-,liberal,yes,z,0,1.20022736904,-1,218
2019_Nov_04,29,001,1,recog,76,PUNCTUAL,LF,lure,-,-,-,conservative,no,z,0,2.41680536594,-3,215
2019_Nov_04,29,001,1,recog,77,FLYWHEEL,LF,target,right,yellow,imageability,liberal,no,z,1,1.75016753894,3,218
2019_Nov_04,29,001,1,recog,78,MOLARS,LF,target,right,yellow,imageability,conservative,no,m,0,2.50027825396,-1,217
2019_Nov_04,29,001,1,recog,79,ALIAS,LF,target,left,aqua,pleasantness,conservative,no,z,1,2.41683249478,1,218
2019_Nov_04,29,001,1,recog,80,BUILDING,HF,target,left,aqua,pleasantness,conservative,no,z,1,2.58332477919,1,219
2019_Nov_04,29,001,1,recog,81,TIMES,HF,lure,-,-,-,liberal,no,m,1,1.03351218818,1,220
2019_Nov_04,29,001,1,recog,82,TODAY,HF,lure,-,-,-,liberal,no,m,1,1.30021842386,1,221
2019_Nov_04,29,001,1,recog,83,OBVIOUSLY,HF,target,right,yellow,imageability,conservative,yes,z,1,1.3502161509,1,222
2019_Nov_04,29,001,1,recog,84,FIGURE,HF,target,left,aqua,pleasantness,conservative,no,z,1,3.68343608078,1,223
2019_Nov_04,29,001,1,recog,85,TURNED,HF,target,right,yellow,imageability,liberal,no,z,1,2.53344216644,3,226
2019_Nov_04,29,001,1,recog,86,CRACKLE,LF,lure,-,-,-,liberal,no,m,1,3.58343256136,1,227
2019_Nov_04,29,001,1,recog,87,MEMBERS,HF,target,right,yellow,imageability,conservative,no,z,1,1.50019870045,1,228
2019_Nov_04,29,001,1,recog,88,CERTAIN,HF,target,left,aqua,pleasantness,conservative,no,z,1,1.18340271963,1,229
2019_Nov_04,29,001,1,recog,89,INMATE,LF,lure,-,-,-,liberal,no,m,1,7.88329354436,1,230
2019_Nov_04,29,001,1,recog,90,CREAK,LF,target,left,aqua,pleasantness,conservative,no,z,1,1.4668899786,1,231
2019_Nov_04,29,001,1,recog,91,SIDED,LF,lure,-,-,-,liberal,no,m,1,5.08336290622,1,232
2019_Nov_04,29,001,1,recog,92,TRIED,HF,lure,-,-,-,conservative,no,m,1,1.56687150166,3,235
2019_Nov_04,29,001,1,recog,93,COACHED,LF,target,left,aqua,pleasantness,liberal,no,z,1,0.900342190046,3,238
2019_Nov_04,29,001,1,recog,94,SWIFTNESS,LF,target,right,yellow,imageability,liberal,no,z,1,2.33351248147,3,241
2019_Nov_04,29,001,1,recog,95,QUICKLY,HF,target,left,aqua,pleasantness,liberal,no,z,1,1.2335060292,3,244
2019_Nov_04,29,001,2,source,0,FAUCET,LF,target,right,yellow,imageability,liberal,no,9,1,3.89987036812,-,-
2019_Nov_04,29,001,2,source,1,VINEYARDS,LF,target,left,aqua,pleasantness,liberal,no,1,1,2.56690596263,-,-
2019_Nov_04,29,001,2,source,2,HECTOR,LF,target,left,aqua,pleasantness,conservative,no,2,1,2.55011577418,-,-
2019_Nov_04,29,001,2,source,3,DINER,LF,target,right,yellow,imageability,liberal,no,9,1,3.15018161662,-,-
2019_Nov_04,29,001,2,source,4,FITFUL,LF,target,right,yellow,imageability,liberal,no,9,1,2.16687318805,-,-
2019_Nov_04,29,001,2,source,5,MEANS,HF,target,left,aqua,pleasantness,conservative,no,1,1,1.91685045848,-,-
2019_Nov_04,29,001,2,source,6,LIVED,HF,target,right,yellow,imageability,conservative,no,8,1,5.30005235134,-,-
2019_Nov_04,29,001,2,source,7,GAUCHE,LF,target,right,yellow,imageability,conservative,no,8,1,3.50016863876,-,-
2019_Nov_04,29,001,2,source,8,ICONS,LF,target,right,yellow,imageability,liberal,no,9,1,2.06685500439,-,-
2019_Nov_04,29,001,2,source,9,LEVEL,HF,target,right,yellow,imageability,liberal,no,9,1,4.58339883361,-,-
2019_Nov_04,29,001,2,source,10,EMOTIVE,LF,target,right,yellow,imageability,liberal,no,9,1,1.41684752563,-,-
2019_Nov_04,29,001,2,source,11,NEBULOUS,LF,target,right,yellow,imageability,conservative,no,2,0,5.28330945506,-,-
2019_Nov_04,29,001,2,source,12,DOING,HF,target,right,yellow,imageability,liberal,no,2,0,2.48344443939,-,-
2019_Nov_04,29,001,2,source,13,FATHER,HF,target,right,yellow,imageability,conservative,no,None,-1,-1,-,-
2019_Nov_04,29,001,2,source,14,ASSERTIVE,LF,target,left,aqua,pleasantness,liberal,no,2,1,1.75019173494,-,-
2019_Nov_04,29,001,2,source,15,SMOCK,LF,target,left,aqua,pleasantness,liberal,no,2,1,1.45021380462,-,-
2019_Nov_04,29,001,2,source,16,JOWLS,LF,target,right,yellow,imageability,conservative,no,2,0,0.900241006788,-,-
2019_Nov_04,29,001,2,source,17,LASER,LF,target,left,aqua,pleasantness,conservative,no,2,1,1.11684943198,-,-
2019_Nov_04,29,001,2,source,18,FISHY,LF,target,left,aqua,pleasantness,liberal,no,8,0,2.05000872522,-,-
2019_Nov_04,29,001,2,source,19,ENOUGH,HF,target,right,yellow,imageability,conservative,no,2,0,1.13355566766,-,-
2019_Nov_04,29,001,2,source,20,BLACK,HF,target,left,aqua,pleasantness,conservative,no,1,1,1.70024459953,-,-
2019_Nov_04,29,001,2,source,21,VALUE,HF,target,left,aqua,pleasantness,liberal,no,1,1,1.05027488118,-,-
2019_Nov_04,29,001,2,source,22,RUFFLES,LF,target,left,aqua,pleasantness,conservative,no,8,0,1.28350302303,-,-
2019_Nov_04,29,001,2,source,23,SALAMI,LF,target,right,yellow,imageability,conservative,no,8,1,1.03357011193,-,-
2019_Nov_04,29,001,2,source,24,VAINLY,LF,target,right,yellow,imageability,liberal,no,8,1,0.933612784871,-,-
2019_Nov_04,29,001,2,source,25,ALLOWED,HF,target,left,aqua,pleasantness,liberal,no,1,1,1.41683689406,-,-
2019_Nov_04,29,001,2,source,26,ALREADY,HF,target,left,aqua,pleasantness,conservative,no,8,0,1.23355698744,-,-
2019_Nov_04,29,001,2,source,27,HUSBAND,HF,target,left,aqua,pleasantness,liberal,yes,8,0,2.19991648715,-,-
2019_Nov_04,29,001,2,source,28,MOMENT,HF,target,left,aqua,pleasantness,liberal,no,8,0,2.68327550735,-,-
2019_Nov_04,29,001,2,source,29,SUBJECT,HF,target,left,aqua,pleasantness,conservative,no,1,1,3.46656809853,-,-
2019_Nov_04,29,001,2,source,30,VAGABOND,LF,target,right,yellow,imageability,conservative,no,1,0,1.20017971026,-,-
2019_Nov_04,29,001,2,source,31,WALKED,HF,target,right,yellow,imageability,liberal,no,9,1,2.38349774391,-,-
2019_Nov_04,29,001,2,source,32,EVIDENCE,HF,target,left,aqua,pleasantness,conservative,no,9,0,3.6834437795,-,-
2019_Nov_04,29,001,2,source,33,GIRLS,HF,target,right,yellow,imageability,conservative,no,9,1,4.86667492752,-,-
2019_Nov_04,29,001,2,source,34,SEEMED,HF,target,right,yellow,imageability,liberal,no,2,0,2.65020654582,-,-
2019_Nov_04,29,001,2,source,35,TRUTH,HF,target,right,yellow,imageability,conservative,no,9,1,4.04986648209,-,-
2019_Nov_04,29,001,2,source,36,PHOBIC,LF,target,left,aqua,pleasantness,conservative,no,8,0,2.43344744556,-,-
2019_Nov_04,29,001,2,source,37,BLIGHTED,LF,target,right,yellow,imageability,conservative,no,9,1,2.51665051156,-,-
2019_Nov_04,29,001,2,source,38,DEPARTS,LF,target,left,aqua,pleasantness,liberal,no,2,1,1.46667184803,-,-
2019_Nov_04,29,001,2,source,39,SERIOUS,HF,target,left,aqua,pleasantness,liberal,yes,2,1,1.50025515778,-,-
2019_Nov_04,29,001,2,source,40,WADDLED,LF,target,left,aqua,pleasantness,liberal,no,8,0,2.53352831885,-,-
2019_Nov_04,29,001,2,source,41,CLEAR,HF,target,right,yellow,imageability,liberal,no,2,0,3.61666686219,-,-
2019_Nov_04,29,001,2,source,42,SUMMER,HF,target,left,aqua,pleasantness,conservative,no,1,1,3.21673637069,-,-
2019_Nov_04,29,001,2,source,43,NOTHING,HF,target,left,aqua,pleasantness,liberal,yes,2,1,1.80017149829,-,-
2019_Nov_04,29,001,2,source,44,FUTURE,HF,target,right,yellow,imageability,liberal,yes,2,0,1.45020243984,-,-
2019_Nov_04,29,001,2,source,45,SOVIET,HF,target,right,yellow,imageability,conservative,no,8,1,4.11679040841,-,-
2019_Nov_04,29,001,2,source,46,RICKETS,LF,target,left,aqua,pleasantness,conservative,no,8,0,1.1000266156,-,-
2019_Nov_04,29,001,2,source,47,SUSPEND,LF,target,left,aqua,pleasantness,conservative,no,8,0,0.816922093291,-,-
2019_Nov_04,29,001,2,recog,0,BELIEVE,HF,lure,-,-,-,liberal,no,m,1,2.16690434956,1,245
2019_Nov_04,29,001,2,recog,1,BOWER,LF,lure,-,-,-,conservative,no,m,1,1.45021123838,3,248
2019_Nov_04,29,001,2,recog,2,FISHY,LF,target,left,aqua,pleasantness,liberal,no,z,1,1.03351108837,3,251
2019_Nov_04,29,001,2,recog,3,ANYONE,HF,lure,-,-,-,conservative,no,z,0,1.70025266486,-3,248
2019_Nov_04,29,001,2,recog,4,PANACHE,LF,lure,-,-,-,conservative,no,m,1,1.41668401935,3,251
2019_Nov_04,29,001,2,recog,5,APART,HF,lure,-,-,-,conservative,no,m,1,1.26688880547,3,254
2019_Nov_04,29,001,2,recog,6,ENOUGH,HF,target,right,yellow,imageability,conservative,no,z,1,0.933586755845,1,255
2019_Nov_04,29,001,2,recog,7,LIVED,HF,target,right,yellow,imageability,conservative,yes,z,1,2.00017633749,1,256
2019_Nov_04,29,001,2,recog,8,WRONG,HF,lure,-,-,-,liberal,no,m,1,1.43349473774,1,257
2019_Nov_04,29,001,2,recog,9,FITFUL,LF,target,right,yellow,imageability,liberal,no,z,1,1.06684767227,3,260
2019_Nov_04,29,001,2,recog,10,SOCIAL,HF,lure,-,-,-,conservative,no,m,1,1.58350404953,3,263
2019_Nov_04,29,001,2,recog,11,EMOTIVE,LF,target,right,yellow,imageability,liberal,no,z,1,1.10023411459,3,266
2019_Nov_04,29,001,2,recog,12,SUING,LF,lure,-,-,-,liberal,no,m,1,1.11692458621,1,267
2019_Nov_04,29,001,2,recog,13,HISTORY,HF,lure,-,-,-,liberal,no,m,1,1.43349107168,1,268
2019_Nov_04,29,001,2,recog,14,CEASELESS,LF,lure,-,-,-,liberal,no,m,1,1.13335403435,1,269
2019_Nov_04,29,001,2,recog,15,PLACE,HF,lure,-,-,-,liberal,no,m,1,0.950228102256,1,270
2019_Nov_04,29,001,2,recog,16,ALREADY,HF,target,left,aqua,pleasantness,conservative,no,z,1,1.11696381305,1,271
2019_Nov_04,29,001,2,recog,17,ACCORDING,HF,lure,-,-,-,liberal,no,m,1,1.1002528115,1,272
2019_Nov_04,29,001,2,recog,18,ERADICATE,LF,lure,-,-,-,liberal,no,m,1,1.95018447614,1,273
2019_Nov_04,29,001,2,recog,19,TAPER,LF,lure,-,-,-,liberal,no,z,0,1.78350192321,-1,272
2019_Nov_04,29,001,2,recog,20,DOLPHIN,LF,lure,-,-,-,liberal,no,m,1,1.13336649896,1,273
2019_Nov_04,29,001,2,recog,21,SIZZLING,LF,lure,-,-,-,conservative,no,m,1,2.91685302472,3,276
2019_Nov_04,29,001,2,recog,22,SERIOUS,HF,target,left,aqua,pleasantness,liberal,no,z,1,1.48356725241,3,279
2019_Nov_04,29,001,2,recog,23,RATHER,HF,lure,-,-,-,liberal,no,m,1,1.16698426967,1,280
2019_Nov_04,29,001,2,recog,24,SOMEONE,HF,lure,-,-,-,conservative,no,m,1,2.63337969677,3,283
2019_Nov_04,29,001,2,recog,25,VALUE,HF,target,left,aqua,pleasantness,liberal,yes,z,1,1.18362268323,3,286
2019_Nov_04,29,001,2,recog,26,REPORT,HF,lure,-,-,-,conservative,no,m,1,1.13360149341,3,289
2019_Nov_04,29,001,2,recog,27,GIRLS,HF,target,right,yellow,imageability,conservative,no,z,1,0.90033082526,1,290
2019_Nov_04,29,001,2,recog,28,WALKED,HF,target,right,yellow,imageability,liberal,no,z,1,0.883657217519,3,293
2019_Nov_04,29,001,2,recog,29,TRUTH,HF,target,right,yellow,imageability,conservative,no,z,1,0.616909555366,1,294
2019_Nov_04,29,001,2,recog,30,VAINLY,LF,target,right,yellow,imageability,liberal,no,z,1,0.950077793794,3,297
2019_Nov_04,29,001,2,recog,31,MOUTH,HF,lure,-,-,-,liberal,no,m,1,1.05022465616,1,298
2019_Nov_04,29,001,2,recog,32,SMOCK,LF,target,left,aqua,pleasantness,liberal,no,z,1,0.78356021357,3,301
2019_Nov_04,29,001,2,recog,33,RUFFLES,LF,target,left,aqua,pleasantness,conservative,no,z,1,0.900207645642,1,302
2019_Nov_04,29,001,2,recog,34,MISFITS,LF,lure,-,-,-,conservative,no,m,1,1.16667595402,3,305
2019_Nov_04,29,001,2,recog,35,FUTURE,HF,target,right,yellow,imageability,liberal,no,z,1,1.10022934872,3,308
2019_Nov_04,29,001,2,recog,36,FATHER,HF,target,right,yellow,imageability,conservative,no,z,1,0.866867762281,1,309
2019_Nov_04,29,001,2,recog,37,EVIDENCE,HF,target,left,aqua,pleasantness,conservative,no,z,1,0.833570771823,1,310
2019_Nov_04,29,001,2,recog,38,MEANS,HF,target,left,aqua,pleasantness,conservative,no,z,1,0.816945922681,1,311
2019_Nov_04,29,001,2,recog,39,SUMMER,HF,target,left,aqua,pleasantness,conservative,no,z,1,0.666910215256,1,312
2019_Nov_04,29,001,2,recog,40,FINAL,HF,lure,-,-,-,conservative,no,m,1,1.85018792224,3,315
2019_Nov_04,29,001,2,recog,41,SEEMED,HF,target,right,yellow,imageability,liberal,no,z,1,0.88371770751,3,318
2019_Nov_04,29,001,2,recog,42,DEPARTS,LF,target,left,aqua,pleasantness,liberal,no,z,1,0.966844152854,3,321
2019_Nov_04,29,001,2,recog,43,NOMAD,LF,lure,-,-,-,conservative,no,m,1,1.11684063344,3,324
2019_Nov_04,29,001,2,recog,44,ASSERTIVE,LF,target,left,aqua,pleasantness,liberal,no,z,1,0.950235067771,3,327
2019_Nov_04,29,001,2,recog,45,MOGUL,LF,lure,-,-,-,liberal,no,z,0,1.78362693586,-1,326
2019_Nov_04,29,001,2,recog,46,PHOBIC,LF,target,left,aqua,pleasantness,conservative,no,z,1,1.36668775873,1,327
2019_Nov_04,29,001,2,recog,47,NEBULOUS,LF,target,right,yellow,imageability,conservative,no,z,1,1.13350800887,1,328
2019_Nov_04,29,001,2,recog,48,SUBJECT,HF,target,left,aqua,pleasantness,conservative,no,z,1,0.933616817537,1,329
2019_Nov_04,29,001,2,recog,49,NOTHING,HF,target,left,aqua,pleasantness,liberal,no,z,1,2.15019958031,3,332
2019_Nov_04,29,001,2,recog,50,SIMILAR,HF,lure,-,-,-,liberal,no,m,1,1.03355508109,1,333
2019_Nov_04,29,001,2,recog,51,FAUCET,LF,target,right,yellow,imageability,liberal,no,m,0,1.08354584261,-3,330
2019_Nov_04,29,001,2,recog,52,WICKEDLY,LF,lure,-,-,-,liberal,no,m,1,1.2002915251,1,331
2019_Nov_04,29,001,2,recog,53,DOING,HF,target,right,yellow,imageability,liberal,no,z,1,0.800247019127,3,334
2019_Nov_04,29,001,2,recog,54,MORNING,HF,lure,-,-,-,conservative,no,m,1,1.36682926865,3,337
2019_Nov_04,29,001,2,recog,55,METABOLIC,LF,lure,-,-,-,liberal,no,m,1,2.73322704203,1,338
2019_Nov_04,29,001,2,recog,56,STICKER,LF,lure,-,-,-,conservative,no,m,1,1.13356483281,3,341
2019_Nov_04,29,001,2,recog,57,SYRINGE,LF,lure,-,-,-,conservative,no,m,1,0.816918793837,3,344
2019_Nov_04,29,001,2,recog,58,SINCE,HF,lure,-,-,-,conservative,no,m,1,1.08356050685,3,347
2019_Nov_04,29,001,2,recog,59,SOVIET,HF,target,right,yellow,imageability,conservative,no,z,1,0.833589102123,1,348
2019_Nov_04,29,001,2,recog,60,HECTOR,LF,target,left,aqua,pleasantness,conservative,no,z,1,1.06697891722,1,349
2019_Nov_04,29,001,2,recog,61,SOJOURN,LF,lure,-,-,-,conservative,no,m,1,1.10027004198,3,352
2019_Nov_04,29,001,2,recog,62,PLEASE,HF,lure,-,-,-,conservative,no,m,1,1.61686959531,3,355
2019_Nov_04,29,001,2,recog,63,ICONS,LF,target,right,yellow,imageability,liberal,no,z,1,0.816901929961,3,358
2019_Nov_04,29,001,2,recog,64,BLACK,HF,target,left,aqua,pleasantness,conservative,no,z,1,0.566942623227,1,359
2019_Nov_04,29,001,2,recog,65,VINEYARDS,LF,target,left,aqua,pleasantness,liberal,no,z,1,0.750256257598,3,362
2019_Nov_04,29,001,2,recog,66,NEARLY,HF,lure,-,-,-,conservative,no,m,1,1.63363118849,3,365
2019_Nov_04,29,001,2,recog,67,HUSBAND,HF,target,left,aqua,pleasantness,liberal,yes,z,1,0.966662682881,3,368
2019_Nov_04,29,001,2,recog,68,KRONOR,LF,lure,-,-,-,conservative,no,m,1,0.966900976785,3,371
2019_Nov_04,29,001,2,recog,69,TOYED,LF,lure,-,-,-,liberal,no,m,1,0.88359379468,1,372
2019_Nov_04,29,001,2,recog,70,SUSPEND,LF,target,left,aqua,pleasantness,conservative,no,m,0,3.28347552758,-1,371
2019_Nov_04,29,001,2,recog,71,LASER,LF,target,left,aqua,pleasantness,conservative,no,z,1,0.950200240201,1,372
2019_Nov_04,29,001,2,recog,72,THEORY,HF,lure,-,-,-,conservative,no,m,1,0.983517027382,3,375
2019_Nov_04,29,001,2,recog,73,FURTHER,HF,lure,-,-,-,conservative,no,z,0,0.716921506721,-3,372
2019_Nov_04,29,001,2,recog,74,RIVER,HF,lure,-,-,-,liberal,no,m,1,1.33333394434,1,373
2019_Nov_04,29,001,2,recog,75,JOWLS,LF,target,right,yellow,imageability,conservative,no,z,1,0.966841953218,1,374
2019_Nov_04,29,001,2,recog,76,FUDGE,LF,lure,-,-,-,liberal,no,z,0,1.00024929208,-1,373
2019_Nov_04,29,001,2,recog,77,OUTSIDE,HF,lure,-,-,-,liberal,no,m,1,2.33351028183,1,374
2019_Nov_04,29,001,2,recog,78,BLIGHTED,LF,target,right,yellow,imageability,conservative,no,z,1,1.20026219662,1,375
2019_Nov_04,29,001,2,recog,79,RICKETS,LF,target,left,aqua,pleasantness,conservative,no,m,0,1.53357891048,-1,374
2019_Nov_04,29,001,2,recog,80,ALLOWED,HF,target,left,aqua,pleasantness,liberal,no,z,1,1.26683161493,3,377
2019_Nov_04,29,001,2,recog,81,MATERIAL,HF,lure,-,-,-,liberal,yes,z,0,0.916863289688,-1,376
2019_Nov_04,29,001,2,recog,82,OTTOMAN,LF,lure,-,-,-,conservative,no,z,0,1.06690229657,-3,373
2019_Nov_04,29,001,2,recog,83,DINER,LF,target,right,yellow,imageability,liberal,no,z,1,2.71688557933,3,376
2019_Nov_04,29,001,2,recog,84,REFECTORY,LF,lure,-,-,-,conservative,no,m,1,1.43349290471,3,379
2019_Nov_04,29,001,2,recog,85,TWINE,LF,lure,-,-,-,liberal,no,m,1,3.31659544734,1,380
2019_Nov_04,29,001,2,recog,86,SALAMI,LF,target,right,yellow,imageability,conservative,no,z,1,1.76685104505,1,381
2019_Nov_04,29,001,2,recog,87,MOMENT,HF,target,left,aqua,pleasantness,liberal,no,m,0,1.53354848218,-3,378
2019_Nov_04,29,001,2,recog,88,GAUCHE,LF,target,right,yellow,imageability,conservative,no,z,1,0.933575757665,1,379
2019_Nov_04,29,001,2,recog,89,VAGABOND,LF,target,right,yellow,imageability,conservative,no,z,1,1.85018132333,1,380
2019_Nov_04,29,001,2,recog,90,LEVEL,HF,target,right,yellow,imageability,liberal,no,z,1,0.733504562778,3,383
2019_Nov_04,29,001,2,recog,91,WADDLED,LF,target,left,aqua,pleasantness,liberal,no,m,0,1.16667302117,-3,380
2019_Nov_04,29,001,2,recog,92,CLEAR,HF,target,right,yellow,imageability,liberal,no,z,1,0.733482199812,3,383
2019_Nov_04,29,001,2,recog,93,HEDGED,LF,lure,-,-,-,liberal,no,z,0,1.71686211655,-1,382
2019_Nov_04,29,001,2,recog,94,FALCON,LF,lure,-,-,-,conservative,no,m,1,1.08355354134,3,385
2019_Nov_04,29,001,2,recog,95,SENSE,HF,lure,-,-,-,liberal,no,m,1,2.35001268457,1,386
2019_Nov_04,29,001,3,source,0,IRRIGATED,LF,target,right,yellow,imageability,conservative,no,2,0,6.59991956664,-,-
2019_Nov_04,29,001,3,source,1,SCHOOL,HF,target,left,aqua,pleasantness,conservative,no,1,1,2.05023492113,-,-
2019_Nov_04,29,001,3,source,2,DAUGHTER,HF,target,right,yellow,imageability,conservative,no,1,0,1.41681673072,-,-
2019_Nov_04,29,001,3,source,3,COLDEST,LF,target,right,yellow,imageability,conservative,no,9,1,6.01649507062,-,-
2019_Nov_04,29,001,3,source,4,INTEREST,HF,target,right,yellow,imageability,liberal,no,9,1,1.2501891687,-,-
2019_Nov_04,29,001,3,source,5,LIKELY,HF,target,right,yellow,imageability,conservative,no,8,1,3.26652843176,-,-
2019_Nov_04,29,001,3,source,6,OPULENCE,LF,target,right,yellow,imageability,liberal,no,2,0,2.45026879552,-,-
2019_Nov_04,29,001,3,source,7,PERHAPS,HF,target,left,aqua,pleasantness,liberal,no,2,1,4.08320269939,-,-
2019_Nov_04,29,001,3,source,8,NEEDED,HF,target,left,aqua,pleasantness,conservative,no,8,0,2.05014510266,-,-
2019_Nov_04,29,001,3,source,9,PRACTICE,HF,target,right,yellow,imageability,conservative,no,1,0,1.96680932528,-,-
2019_Nov_04,29,001,3,source,10,VERBALLY,LF,target,right,yellow,imageability,liberal,no,8,1,4.1500771339,-,-
2019_Nov_04,29,001,3,source,11,SORRY,HF,target,right,yellow,imageability,conservative,no,9,1,1.48350199654,-,-
2019_Nov_04,29,001,3,source,12,CARRIED,HF,target,left,aqua,pleasantness,conservative,no,9,0,1.30001055825,-,-
2019_Nov_04,29,001,3,source,13,SLIGHTLY,HF,target,left,aqua,pleasantness,liberal,no,1,1,1.80014326963,-,-
2019_Nov_04,29,001,3,source,14,RAKING,LF,target,left,aqua,pleasantness,liberal,no,2,1,1.46687348133,-,-
2019_Nov_04,29,001,3,source,15,LONGER,HF,target,left,aqua,pleasantness,liberal,no,2,1,3.63345668403,-,-
2019_Nov_04,29,001,3,source,16,HUNDRED,HF,target,left,aqua,pleasantness,liberal,no,8,0,7.29996179965,-,-
2019_Nov_04,29,001,3,source,17,KIPPERS,LF,target,right,yellow,imageability,conservative,no,1,0,2.26698045697,-,-
2019_Nov_04,29,001,3,source,18,BRACES,LF,target,left,aqua,pleasantness,conservative,no,8,0,2.15022450952,-,-
2019_Nov_04,29,001,3,source,19,UPKEEP,LF,target,right,yellow,imageability,conservative,no,1,0,1.45025853056,-,-
2019_Nov_04,29,001,3,source,20,UNJUSTLY,LF,target,left,aqua,pleasantness,conservative,no,8,0,2.68346504265,-,-
2019_Nov_04,29,001,3,source,21,GASEOUS,LF,target,left,aqua,pleasantness,liberal,no,2,1,1.88352963863,-,-
2019_Nov_04,29,001,3,source,22,ASPIRED,LF,target,left,aqua,pleasantness,liberal,yes,2,1,0.683533597974,-,-
2019_Nov_04,29,001,3,source,23,GNOMES,LF,target,left,aqua,pleasantness,conservative,no,2,1,1.28329699046,-,-
2019_Nov_04,29,001,3,source,24,DILATED,LF,target,right,yellow,imageability,liberal,no,8,1,1.68348227313,-,-
2019_Nov_04,29,001,3,source,25,QUALITY,HF,target,left,aqua,pleasantness,liberal,no,1,1,1.53353711739,-,-
2019_Nov_04,29,001,3,source,26,ALMOST,HF,target,right,yellow,imageability,liberal,no,2,0,3.16661803027,-,-
2019_Nov_04,29,001,3,source,27,BLUECOATS,LF,target,left,aqua,pleasantness,liberal,no,8,0,3.48324280609,-,-
2019_Nov_04,29,001,3,source,28,THANK,HF,target,right,yellow,imageability,liberal,no,2,0,1.65019701407,-,-
2019_Nov_04,29,001,3,source,29,TOTAL,HF,target,left,aqua,pleasantness,liberal,no,1,1,1.3502161509,-,-
2019_Nov_04,29,001,3,source,30,PRYING,LF,target,right,yellow,imageability,conservative,no,9,1,1.43355266149,-,-
2019_Nov_04,29,001,3,source,31,DANDELION,LF,target,right,yellow,imageability,liberal,no,9,1,2.5334949577,-,-
2019_Nov_04,29,001,3,source,32,UNWARY,LF,target,left,aqua,pleasantness,liberal,no,1,1,1.51686240983,-,-
2019_Nov_04,29,001,3,source,33,CENTRAL,HF,target,left,aqua,pleasantness,conservative,no,1,1,3.06687076845,-,-
2019_Nov_04,29,001,3,source,34,ENHANCES,LF,target,left,aqua,pleasantness,conservative,no,8,0,2.08351798056,-,-
2019_Nov_04,29,001,3,source,35,NETTLE,LF,target,right,yellow,imageability,liberal,no,8,1,1.0002932848,-,-
2019_Nov_04,29,001,3,source,36,LEECH,LF,target,right,yellow,imageability,conservative,no,8,1,1.8501365974,-,-
2019_Nov_04,29,001,3,source,37,CUCKOO,LF,target,left,aqua,pleasantness,conservative,no,8,0,1.18357319142,-,-
2019_Nov_04,29,001,3,source,38,CLOSE,HF,target,left,aqua,pleasantness,conservative,no,1,1,1.9334925381,-,-
2019_Nov_04,29,001,3,source,39,MONEY,HF,target,right,yellow,imageability,liberal,no,9,1,1.73351996023,-,-
2019_Nov_04,29,001,3,source,40,TOADS,LF,target,left,aqua,pleasantness,liberal,no,2,1,4.01674326288,-,-
2019_Nov_04,29,001,3,source,41,TOWARDS,HF,target,right,yellow,imageability,conservative,no,2,0,0.983536090895,-,-
2019_Nov_04,29,001,3,source,42,HIMSELF,HF,target,left,aqua,pleasantness,conservative,no,2,1,1.66665249123,-,-
2019_Nov_04,29,001,3,source,43,HANDS,HF,target,right,yellow,imageability,conservative,yes,9,1,2.65021791061,-,-
2019_Nov_04,29,001,3,source,44,ROUND,HF,target,right,yellow,imageability,liberal,no,2,0,3.75006855532,-,-
2019_Nov_04,29,001,3,source,45,UNSAVOURY,LF,target,right,yellow,imageability,liberal,yes,9,1,1.08351908038,-,-
2019_Nov_04,29,001,3,source,46,GETTING,HF,target,right,yellow,imageability,liberal,no,2,0,2.01659955333,-,-
2019_Nov_04,29,001,3,source,47,PUTTS,LF,target,left,aqua,pleasantness,conservative,yes,2,1,1.44995791363,-,-
2019_Nov_04,29,001,3,recog,0,IDLING,LF,lure,-,-,-,liberal,no,m,1,1.31684400621,1,387
2019_Nov_04,29,001,3,recog,1,LEECH,LF,target,right,yellow,imageability,conservative,no,m,0,1.03356314642,-1,386
2019_Nov_04,29,001,3,recog,2,BLUECOATS,LF,target,left,aqua,pleasantness,liberal,no,z,1,1.4168823532,3,389
2019_Nov_04,29,001,3,recog,3,HANDS,HF,target,right,yellow,imageability,conservative,no,m,0,0.966953401444,-1,388
2019_Nov_04,29,001,3,recog,4,DOGMAS,LF,lure,-,-,-,liberal,no,m,1,1.48353609089,1,389
2019_Nov_04,29,001,3,recog,5,GNOMES,LF,target,left,aqua,pleasantness,conservative,no,m,0,0.900264102967,-1,388
2019_Nov_04,29,001,3,recog,6,APPEARED,HF,lure,-,-,-,conservative,no,m,1,1.40010976184,3,391
2019_Nov_04,29,001,3,recog,7,PUTTS,LF,target,left,aqua,pleasantness,conservative,no,m,0,1.050263883,-1,390
2019_Nov_04,29,001,3,recog,8,ENHANCES,LF,target,left,aqua,pleasantness,conservative,no,z,1,2.86680433944,1,391
2019_Nov_04,29,001,3,recog,9,ANIMAL,HF,lure,-,-,-,liberal,no,z,0,1.2502133647,-1,390
2019_Nov_04,29,001,3,recog,10,QUALITY,HF,target,left,aqua,pleasantness,liberal,no,z,1,0.816931258441,3,393
2019_Nov_04,29,001,3,recog,11,LIKELY,HF,target,right,yellow,imageability,conservative,no,z,1,0.900249438726,1,394
2019_Nov_04,29,001,3,recog,12,AIDING,LF,lure,-,-,-,liberal,no,z,0,1.06699174843,-1,393
2019_Nov_04,29,001,3,recog,13,UNJUSTLY,LF,target,left,aqua,pleasantness,conservative,no,m,0,2.31683007518,-1,392
2019_Nov_04,29,001,3,recog,14,NETTLE,LF,target,right,yellow,imageability,liberal,no,z,1,1.35021798393,3,395
2019_Nov_04,29,001,3,recog,15,PERHAPS,HF,target,left,aqua,pleasantness,liberal,no,m,0,2.55016416617,-3,392
2019_Nov_04,29,001,3,recog,16,TRADE,HF,lure,-,-,-,liberal,no,m,1,1.23360281319,1,393
2019_Nov_04,29,001,3,recog,17,MUTATIONS,LF,lure,-,-,-,conservative,no,z,0,1.35016152661,-3,390
2019_Nov_04,29,001,3,recog,18,LETTER,HF,lure,-,-,-,liberal,no,m,1,0.983595481068,1,391
2019_Nov_04,29,001,3,recog,19,SARDINES,LF,lure,-,-,-,conservative,no,m,1,1.0335620466,3,394
2019_Nov_04,29,001,3,recog,20,AFTERNOON,HF,lure,-,-,-,conservative,no,m,1,1.28353565097,3,397
2019_Nov_04,29,001,3,recog,21,VILLAGE,HF,lure,-,-,-,liberal,no,m,1,1.10025207829,1,398
2019_Nov_04,29,001,3,recog,22,AROUND,HF,lure,-,-,-,conservative,no,m,1,1.3833386369,3,401
2019_Nov_04,29,001,3,recog,23,TOGETHER,HF,lure,-,-,-,conservative,no,m,1,1.10022714908,3,404
2019_Nov_04,29,001,3,recog,24,LEOPARDS,LF,lure,-,-,-,liberal,no,z,0,2.0335195203,-1,403
2019_Nov_04,29,001,3,recog,25,SPEAK,HF,lure,-,-,-,conservative,no,m,1,2.15012442608,3,406
2019_Nov_04,29,001,3,recog,26,DANDELION,LF,target,right,yellow,imageability,liberal,no,None,-1,-1,-3,403
2019_Nov_04,29,001,3,recog,27,THANK,HF,target,right,yellow,imageability,liberal,no,z,1,0.000339110555615,3,406
2019_Nov_04,29,001,3,recog,28,TOMBSTONE,LF,lure,-,-,-,conservative,no,z,0,1.96684891873,-3,403
2019_Nov_04,29,001,3,recog,29,CANNOT,HF,lure,-,-,-,liberal,yes,z,0,1.4835060292,-1,402
2019_Nov_04,29,001,3,recog,30,MONEY,HF,target,right,yellow,imageability,liberal,no,z,1,0.966742602991,3,405
2019_Nov_04,29,001,3,recog,31,AGELESS,LF,lure,-,-,-,conservative,no,m,1,1.56687956699,3,408
2019_Nov_04,29,001,3,recog,32,PRYING,LF,target,right,yellow,imageability,conservative,no,z,1,0.766906402553,1,409
2019_Nov_04,29,001,3,recog,33,IRRIGATED,LF,target,right,yellow,imageability,conservative,no,z,1,1.86689489113,1,410
2019_Nov_04,29,001,3,recog,34,ROUND,HF,target,right,yellow,imageability,liberal,no,z,1,1.66686438951,3,413
2019_Nov_04,29,001,3,recog,35,DECIDED,HF,lure,-,-,-,conservative,no,m,1,1.11691982033,3,416
2019_Nov_04,29,001,3,recog,36,VERBALLY,LF,target,right,yellow,imageability,liberal,no,m,0,2.20017237814,-3,413
2019_Nov_04,29,001,3,recog,37,BRACES,LF,target,left,aqua,pleasantness,conservative,no,z,1,2.43348997186,1,414
2019_Nov_04,29,001,3,recog,38,CUCKOO,LF,target,left,aqua,pleasantness,conservative,no,z,1,1.46688301309,1,415
2019_Nov_04,29,001,3,recog,39,SLIGHTLY,HF,target,left,aqua,pleasantness,liberal,no,m,0,1.21687641418,-3,412
2019_Nov_04,29,001,3,recog,40,ELLIPSE,LF,lure,-,-,-,conservative,no,m,1,1.66678740225,3,415
2019_Nov_04,29,001,3,recog,41,FRIEND,HF,lure,-,-,-,conservative,no,z,0,1.35020625254,-3,412
2019_Nov_04,29,001,3,recog,42,SCHOOL,HF,target,left,aqua,pleasantness,conservative,no,z,1,0.950181543294,1,413
2019_Nov_04,29,001,3,recog,43,ENTIRELY,HF,lure,-,-,-,liberal,no,z,0,2.25014774222,-1,412
2019_Nov_04,29,001,3,recog,44,TERMS,HF,lure,-,-,-,liberal,no,m,1,0.900241006789,1,413
2019_Nov_04,29,001,3,recog,45,GASEOUS,LF,target,left,aqua,pleasantness,liberal,no,z,1,1.6835291987,3,416
2019_Nov_04,29,001,3,recog,46,HUMAN,HF,lure,-,-,-,conservative,no,m,1,1.28350888873,3,419
2019_Nov_04,29,001,3,recog,47,REACHED,HF,lure,-,-,-,conservative,no,m,1,1.216853318,3,422
2019_Nov_04,29,001,3,recog,48,HUNDRED,HF,target,left,aqua,pleasantness,liberal,no,z,1,1.55026864888,3,425
2019_Nov_04,29,001,3,recog,49,LOPSIDED,LF,lure,-,-,-,liberal,no,m,1,1.58348498602,1,426
2019_Nov_04,29,001,3,recog,50,PEGGED,LF,lure,-,-,-,conservative,no,m,1,0.916892984774,3,429
2019_Nov_04,29,001,3,recog,51,CAGED,LF,lure,-,-,-,conservative,no,m,1,0.916908748833,3,432
2019_Nov_04,29,001,3,recog,52,ARPEGGIO,LF,lure,-,-,-,liberal,no,m,1,3.30005968346,1,433
2019_Nov_04,29,001,3,recog,53,UNWARY,LF,target,left,aqua,pleasantness,liberal,no,m,0,1.03354591594,-3,430
2019_Nov_04,29,001,3,recog,54,LARGE,HF,lure,-,-,-,liberal,no,m,1,1.18331730043,1,431
2019_Nov_04,29,001,3,recog,55,HIMSELF,HF,target,left,aqua,pleasantness,conservative,no,z,1,0.800247385732,1,432
2019_Nov_04,29,001,3,recog,56,RODENTS,LF,lure,-,-,-,liberal,no,z,0,2.53329075816,-1,431
2019_Nov_04,29,001,3,recog,57,NEEDED,HF,target,left,aqua,pleasantness,conservative,no,m,0,1.5502088921,-1,430
2019_Nov_04,29,001,3,recog,58,OPULENCE,LF,target,right,yellow,imageability,liberal,no,z,1,1.13350104336,3,433
2019_Nov_04,29,001,3,recog,59,RAKING,LF,target,left,aqua,pleasantness,liberal,no,z,1,0.766888805466,3,436
2019_Nov_04,29,001,3,recog,60,ALMOST,HF,target,right,yellow,imageability,liberal,no,z,1,1.35016189321,3,439
2019_Nov_04,29,001,3,recog,61,PUCKERED,LF,lure,-,-,-,conservative,no,m,1,2.25017230482,3,442
2019_Nov_04,29,001,3,recog,62,DAUGHTER,HF,target,right,yellow,imageability,conservative,no,z,1,1.00023279481,1,443
2019_Nov_04,29,001,3,recog,63,TOWARDS,HF,target,right,yellow,imageability,conservative,no,z,1,2.35016629248,1,444
2019_Nov_04,29,001,3,recog,64,TOTAL,HF,target,left,aqua,pleasantness,liberal,yes,z,1,1.35016775891,3,447
2019_Nov_04,29,001,3,recog,65,CLOSE,HF,target,left,aqua,pleasantness,conservative,no,m,0,1.1001794903,-1,446
2019_Nov_04,29,001,3,recog,66,ASPIRED,LF,target,left,aqua,pleasantness,liberal,no,z,1,0.850243646351,3,449
2019_Nov_04,29,001,3,recog,67,STOOD,HF,lure,-,-,-,liberal,yes,z,0,0.916862923082,-1,448
2019_Nov_04,29,001,3,recog,68,MINISTER,HF,lure,-,-,-,liberal,no,m,1,3.70009539088,1,449
2019_Nov_04,29,001,3,recog,69,UNSAVOURY,LF,target,right,yellow,imageability,liberal,no,m,0,1.15006320288,-3,446
2019_Nov_04,29,001,3,recog,70,BETTER,HF,lure,-,-,-,conservative,no,m,1,1.10001928348,3,449
2019_Nov_04,29,001,3,recog,71,CARRIED,HF,target,left,aqua,pleasantness,conservative,no,m,0,1.06692392632,-1,448
2019_Nov_04,29,001,3,recog,72,EBULLIENT,LF,lure,-,-,-,liberal,no,m,1,0.967016457677,1,449
2019_Nov_04,29,001,3,recog,73,NORTH,HF,lure,-,-,-,conservative,no,m,1,0.783620703561,3,452
2019_Nov_04,29,001,3,recog,74,BEREAVED,LF,lure,-,-,-,conservative,no,m,1,0.866889758641,3,455
2019_Nov_04,29,001,3,recog,75,DILATED,LF,target,right,yellow,imageability,liberal,no,m,0,0.683579423725,-3,452
2019_Nov_04,29,001,3,recog,76,AUSPICES,LF,lure,-,-,-,conservative,no,m,1,1.0835146811,3,455
2019_Nov_04,29,001,3,recog,77,TOADS,LF,target,left,aqua,pleasantness,liberal,no,z,1,1.00024232657,3,458
2019_Nov_04,29,001,3,recog,78,COLDEST,LF,target,right,yellow,imageability,conservative,no,z,1,0.900325692775,1,459
2019_Nov_04,29,001,3,recog,79,KIPPERS,LF,target,right,yellow,imageability,conservative,no,z,1,0.733535724288,1,460
2019_Nov_04,29,001,3,recog,80,GETTING,HF,target,right,yellow,imageability,liberal,no,z,1,0.833571871641,3,463
2019_Nov_04,29,001,3,recog,81,INTEREST,HF,target,right,yellow,imageability,liberal,no,m,0,1.150217544,-3,460
2019_Nov_04,29,001,3,recog,82,EXACTLY,HF,lure,-,-,-,conservative,no,m,1,1.06690229657,3,463
2019_Nov_04,29,001,3,recog,83,PRACTICE,HF,target,right,yellow,imageability,conservative,no,z,1,2.03350228982,1,464
2019_Nov_04,29,001,3,recog,84,SMALL,HF,lure,-,-,-,liberal,no,m,1,0.98355845386,1,465
2019_Nov_04,29,001,3,recog,85,BEGAN,HF,lure,-,-,-,liberal,no,m,1,1.65014825547,1,466
2019_Nov_04,29,001,3,recog,86,NOBLEMAN,LF,lure,-,-,-,liberal,no,m,1,1.28333951675,1,467
2019_Nov_04,29,001,3,recog,87,BACHELORS,LF,lure,-,-,-,liberal,yes,z,0,1.86665036492,-1,466
2019_Nov_04,29,001,3,recog,88,BUNGALOWS,LF,lure,-,-,-,conservative,no,m,1,2.8667651126,3,469
2019_Nov_04,29,001,3,recog,89,CENTRAL,HF,target,left,aqua,pleasantness,conservative,no,z,1,1.33352861213,1,470
2019_Nov_04,29,001,3,recog,90,MUGGING,LF,lure,-,-,-,conservative,no,m,1,1.23350126332,3,473
2019_Nov_04,29,001,3,recog,91,TAUNTED,LF,lure,-,-,-,liberal,no,m,1,3.58347875372,1,474
2019_Nov_04,29,001,3,recog,92,GORGED,LF,lure,-,-,-,liberal,no,z,0,1.58349378456,-1,473
2019_Nov_04,29,001,3,recog,93,UPKEEP,LF,target,right,yellow,imageability,conservative,no,m,0,1.25022472948,-1,472
2019_Nov_04,29,001,3,recog,94,LONGER,HF,target,left,aqua,pleasantness,liberal,no,z,1,2.75020199991,3,475
2019_Nov_04,29,001,3,recog,95,SORRY,HF,target,right,yellow,imageability,conservative,no,z,1,0.783621070167,1,476
2019_Nov_04,29,001,4,source,0,LIMELIGHT,LF,target,left,aqua,pleasantness,liberal,no,None,-1,-1,-,-
2019_Nov_04,29,001,4,source,1,BOOKS,HF,target,right,yellow,imageability,conservative,no,2,0,1.83327162132,-,-
2019_Nov_04,29,001,4,source,2,BAFFLING,LF,target,left,aqua,pleasantness,liberal,no,2,1,1.25026395632,-,-
2019_Nov_04,29,001,4,source,3,RANGE,HF,target,left,aqua,pleasantness,liberal,no,1,1,2.43333123146,-,-
2019_Nov_04,29,001,4,source,4,EYEBALL,LF,target,left,aqua,pleasantness,conservative,no,1,1,1.09997235791,-,-
2019_Nov_04,29,001,4,source,5,CONCERNED,HF,target,left,aqua,pleasantness,liberal,no,1,1,1.36692201997,-,-
2019_Nov_04,29,001,4,source,6,VOICE,HF,target,right,yellow,imageability,liberal,no,8,1,1.33354180995,-,-
2019_Nov_04,29,001,4,source,7,OLDER,HF,target,left,aqua,pleasantness,conservative,no,1,1,2.05021695743,-,-
2019_Nov_04,29,001,4,source,8,NESTING,LF,target,right,yellow,imageability,liberal,no,8,1,1.16689408459,-,-
2019_Nov_04,29,001,4,source,9,MAGGOT,LF,target,right,yellow,imageability,liberal,yes,8,1,2.13355750069,-,-
2019_Nov_04,29,001,4,source,10,LOCAL,HF,target,right,yellow,imageability,conservative,no,1,0,1.15006283627,-,-
2019_Nov_04,29,001,4,source,11,SAFARI,LF,target,left,aqua,pleasantness,conservative,no,8,0,1.2835074223,-,-
2019_Nov_04,29,001,4,source,12,TUBERS,LF,target,left,aqua,pleasantness,conservative,no,2,1,2.13356116675,-,-
2019_Nov_04,29,001,4,source,13,MILES,HF,target,right,yellow,imageability,liberal,yes,8,1,1.30017296471,-,-
2019_Nov_04,29,001,4,source,14,GUESSWORK,LF,target,right,yellow,imageability,conservative,no,1,0,2.0334582971,-,-
2019_Nov_04,29,001,4,source,15,MARKET,HF,target,right,yellow,imageability,liberal,no,8,1,1.18359555439,-,-
2019_Nov_04,29,001,4,source,16,MERELY,HF,target,right,yellow,imageability,liberal,yes,9,1,1.83352714571,-,-
2019_Nov_04,29,001,4,source,17,HARDLY,HF,target,left,aqua,pleasantness,conservative,no,8,0,2.6501258925,-,-
2019_Nov_04,29,001,4,source,18,BREAK,HF,target,left,aqua,pleasantness,conservative,no,1,1,1.00018696906,-,-
2019_Nov_04,29,001,4,source,19,SUNBURN,LF,target,right,yellow,imageability,conservative,no,8,1,1.73362444294,-,-
2019_Nov_04,29,001,4,source,20,FIELD,HF,target,right,yellow,imageability,conservative,no,1,0,1.48352545932,-,-
2019_Nov_04,29,001,4,source,21,BARBARIAN,LF,target,left,aqua,pleasantness,conservative,no,1,1,2.3332884852,-,-
2019_Nov_04,29,001,4,source,22,GOBBLE,LF,target,right,yellow,imageability,conservative,no,8,1,1.66681966357,-,-
2019_Nov_04,29,001,4,source,23,RECENT,HF,target,left,aqua,pleasantness,conservative,no,1,1,1.13354833554,-,-
2019_Nov_04,29,001,4,source,24,STAFF,HF,target,left,aqua,pleasantness,liberal,no,1,1,1.10018132333,-,-
2019_Nov_04,29,001,4,source,25,COMES,HF,target,right,yellow,imageability,liberal,no,8,1,1.18335176139,-,-
2019_Nov_04,29,001,4,source,26,UPDATE,LF,target,right,yellow,imageability,conservative,no,8,1,1.50005242466,-,-
2019_Nov_04,29,001,4,source,27,BEDLAM,LF,target,left,aqua,pleasantness,liberal,no,1,1,1.43333306449,-,-
2019_Nov_04,29,001,4,source,28,WIRING,LF,target,right,yellow,imageability,conservative,no,8,1,2.00015104167,-,-
2019_Nov_04,29,001,4,source,29,KNUCKLE,LF,target,left,aqua,pleasantness,liberal,no,8,0,1.28355288145,-,-
2019_Nov_04,29,001,4,source,30,ATTACK,HF,target,right,yellow,imageability,conservative,no,2,0,3.25011438107,-,-
2019_Nov_04,29,001,4,source,31,SEPULCHRE,LF,target,left,aqua,pleasantness,liberal,no,1,1,1.23350053011,-,-
2019_Nov_04,29,001,4,source,32,FRONT,HF,target,left,aqua,pleasantness,conservative,yes,7,0,1.56667793369,-,-
2019_Nov_04,29,001,4,source,33,KNEAD,LF,target,right,yellow,imageability,liberal,no,2,0,1.31690559602,-,-
2019_Nov_04,29,001,4,source,34,WAITING,HF,target,left,aqua,pleasantness,liberal,no,1,1,1.88351754063,-,-
2019_Nov_04,29,001,4,source,35,UNTIL,HF,target,right,yellow,imageability,liberal,no,8,1,1.08352604589,-,-
2019_Nov_04,29,001,4,source,36,BINDINGS,LF,target,right,yellow,imageability,conservative,no,1,0,1.7168650494,-,-
2019_Nov_04,29,001,4,source,37,HAGGLING,LF,target,left,aqua,pleasantness,conservative,no,8,0,1.38333643726,-,-
2019_Nov_04,29,001,4,source,38,REQUIRED,HF,target,right,yellow,imageability,conservative,no,1,0,3.39879987858,-,-
2019_Nov_04,29,001,4,source,39,DIOCESE,LF,target,left,aqua,pleasantness,liberal,no,8,0,1.18360032027,-,-
2019_Nov_04,29,001,4,source,40,GIVEN,HF,target,left,aqua,pleasantness,liberal,no,9,0,1.7168591837,-,-
2019_Nov_04,29,001,4,source,41,MEETING,HF,target,right,yellow,imageability,conservative,no,2,0,2.98342794212,-,-
2019_Nov_04,29,001,4,source,42,WOODCOCK,LF,target,left,aqua,pleasantness,conservative,no,2,1,1.28354701575,-,-
2019_Nov_04,29,001,4,source,43,AVAILABLE,HF,target,left,aqua,pleasantness,liberal,no,2,1,2.66657917003,-,-
2019_Nov_04,29,001,4,source,44,DELEGATED,LF,target,right,yellow,imageability,liberal,no,8,1,1.000024196,-,-
2019_Nov_04,29,001,4,source,45,DURING,HF,target,left,aqua,pleasantness,conservative,no,1,1,3.16679180152,-,-
2019_Nov_04,29,001,4,source,46,TAGGED,LF,target,right,yellow,imageability,liberal,no,8,1,0.966999960407,-,-
2019_Nov_04,29,001,4,source,47,ASHEN,LF,target,right,yellow,imageability,liberal,no,1,0,1.51670696889,-,-
2019_Nov_04,29,001,4,recog,0,DUMMIES,LF,lure,-,-,-,conservative,no,z,0,1.333605966,-3,473
2019_Nov_04,29,001,4,recog,1,UNBEATEN,LF,lure,-,-,-,liberal,no,z,0,1.61681973689,-1,472
2019_Nov_04,29,001,4,recog,2,BREAK,HF,target,left,aqua,pleasantness,conservative,no,z,1,1.71689034521,1,473
2019_Nov_04,29,001,4,recog,3,SAFARI,LF,target,left,aqua,pleasantness,conservative,no,m,0,0.983566152587,-1,472
2019_Nov_04,29,001,4,recog,4,WOODCOCK,LF,target,left,aqua,pleasantness,conservative,no,z,1,1.36688205992,1,473
2019_Nov_04,29,001,4,recog,5,USING,HF,lure,-,-,-,conservative,no,m,1,1.26684004687,3,476
2019_Nov_04,29,001,4,recog,6,COMES,HF,target,right,yellow,imageability,liberal,no,z,1,1.98350932866,3,479
2019_Nov_04,29,001,4,recog,7,ZIPPED,LF,lure,-,-,-,liberal,no,z,0,1.0501905618,-1,478
2019_Nov_04,29,001,4,recog,8,DELEGATED,LF,target,right,yellow,imageability,liberal,no,m,0,1.50020273312,-3,475
2019_Nov_04,29,001,4,recog,9,ARMAMENT,LF,lure,-,-,-,liberal,no,m,1,4.05012823878,1,476
2019_Nov_04,29,001,4,recog,10,MAGGOT,LF,target,right,yellow,imageability,liberal,no,z,1,1.03335601403,3,479
2019_Nov_04,29,001,4,recog,11,MYOPIC,LF,lure,-,-,-,conservative,no,m,1,1.48332785868,3,482
2019_Nov_04,29,001,4,recog,12,SYSTEM,HF,lure,-,-,-,liberal,no,z,0,2.06679708064,-1,481
2019_Nov_04,29,001,4,recog,13,VOICE,HF,target,right,yellow,imageability,liberal,no,m,0,1.11691835391,-3,478
2019_Nov_04,29,001,4,recog,14,NUCLEAR,HF,lure,-,-,-,conservative,no,m,1,2.18347127495,3,481
2019_Nov_04,29,001,4,recog,15,YEOMAN,LF,lure,-,-,-,conservative,no,m,1,1.28355031521,3,484
2019_Nov_04,29,001,4,recog,16,BAPTIZED,LF,lure,-,-,-,conservative,no,m,1,1.76686937535,3,487
2019_Nov_04,29,001,4,recog,17,AREAS,HF,lure,-,-,-,conservative,no,z,0,2.38328767867,-3,484
2019_Nov_04,29,001,4,recog,18,UNZIPPED,LF,lure,-,-,-,liberal,no,m,1,1.70019290808,1,485
2019_Nov_04,29,001,4,recog,19,RANGE,HF,target,left,aqua,pleasantness,liberal,no,z,1,0.91686035684,3,488
2019_Nov_04,29,001,4,recog,20,TAKEN,HF,lure,-,-,-,liberal,no,m,1,3.15013725729,1,489
2019_Nov_04,29,001,4,recog,21,KNUCKLE,LF,target,left,aqua,pleasantness,liberal,no,m,0,0.93336055994,-3,486
2019_Nov_04,29,001,4,recog,22,HAGGLING,LF,target,left,aqua,pleasantness,conservative,no,z,1,2.4168152643,1,487
2019_Nov_04,29,001,4,recog,23,MODERN,HF,lure,-,-,-,conservative,no,m,1,1.05022355634,3,490
2019_Nov_04,29,001,4,recog,24,BAFFLING,LF,target,left,aqua,pleasantness,liberal,no,z,1,1.06688653251,3,493
2019_Nov_04,29,001,4,recog,25,AHEAD,HF,lure,-,-,-,conservative,yes,z,0,1.63357913044,-3,490
2019_Nov_04,29,001,4,recog,26,REQUIRED,HF,target,right,yellow,imageability,conservative,no,z,1,1.30016856544,1,491
2019_Nov_04,29,001,4,recog,27,DURING,HF,target,left,aqua,pleasantness,conservative,no,z,1,0.966906842481,1,492
2019_Nov_04,29,001,4,recog,28,NESTING,LF,target,right,yellow,imageability,liberal,no,m,0,1.11686336301,-3,489
2019_Nov_04,29,001,4,recog,29,HARDLY,HF,target,left,aqua,pleasantness,conservative,no,m,0,1.80021952368,-1,488
2019_Nov_04,29,001,4,recog,30,BEDLAM,LF,target,left,aqua,pleasantness,liberal,no,z,1,0.900230375214,3,491
2019_Nov_04,29,001,4,recog,31,ASHEN,LF,target,right,yellow,imageability,liberal,no,z,1,0.816754920953,3,494
2019_Nov_04,29,001,4,recog,32,MILES,HF,target,right,yellow,imageability,liberal,no,m,0,1.10022604926,-3,491
2019_Nov_04,29,001,4,recog,33,BESOTTED,LF,lure,-,-,-,conservative,no,z,0,2.90009106493,-3,488
2019_Nov_04,29,001,4,recog,34,WAITING,HF,target,left,aqua,pleasantness,liberal,no,m,0,2.50019796724,-3,485
2019_Nov_04,29,001,4,recog,35,PENALIZED,LF,lure,-,-,-,conservative,no,z,0,2.25018183658,-3,482
2019_Nov_04,29,001,4,recog,36,SEPULCHRE,LF,target,left,aqua,pleasantness,liberal,no,z,1,0.900167318981,3,485
2019_Nov_04,29,001,4,recog,37,CASES,HF,lure,-,-,-,liberal,no,m,1,1.06689386463,1,486
2019_Nov_04,29,001,4,recog,38,STUDENT,HF,lure,-,-,-,liberal,no,z,0,4.05004721885,-1,485
2019_Nov_04,29,001,4,recog,39,POINT,HF,lure,-,-,-,liberal,no,m,1,1.65015705401,1,486
2019_Nov_04,29,001,4,recog,40,YOGHURT,LF,lure,-,-,-,liberal,no,m,1,1.18356915876,1,487
2019_Nov_04,29,001,4,recog,41,GUESSWORK,LF,target,right,yellow,imageability,conservative,no,z,1,0.950321586788,1,488
2019_Nov_04,29,001,4,recog,42,OLDER,HF,target,left,aqua,pleasantness,conservative,no,z,1,1.40018711571,1,489
2019_Nov_04,29,001,4,recog,43,INROADS,LF,lure,-,-,-,conservative,no,m,1,1.33354584261,3,492
2019_Nov_04,29,001,4,recog,44,EFFECT,HF,lure,-,-,-,liberal,yes,z,0,1.03349642412,-1,491
2019_Nov_04,29,001,4,recog,45,FLOOR,HF,lure,-,-,-,conservative,no,m,1,1.3169228265,3,494
2019_Nov_04,29,001,4,recog,46,LACING,LF,lure,-,-,-,conservative,no,m,1,0.983562119922,3,497
2019_Nov_04,29,001,4,recog,47,HOPPER,LF,lure,-,-,-,liberal,no,z,0,1.76685031184,-1,496
2019_Nov_04,29,001,4,recog,48,KNEAD,LF,target,right,yellow,imageability,liberal,no,z,1,0.96693910381,3,499
2019_Nov_04,29,001,4,recog,49,ALTHOUGH,HF,lure,-,-,-,liberal,no,m,1,1.21688411291,1,500
2019_Nov_04,29,001,4,recog,50,ENROLMENT,LF,lure,-,-,-,conservative,no,z,0,0.9333154674,-3,497
2019_Nov_04,29,001,4,recog,51,GOBBLE,LF,target,right,yellow,imageability,conservative,no,z,1,0.783584409566,1,498
2019_Nov_04,29,001,4,recog,52,LABOUR,HF,lure,-,-,-,conservative,yes,m,1,1.16689811726,3,501
2019_Nov_04,29,001,4,recog,53,AVAILABLE,HF,target,left,aqua,pleasantness,liberal,no,z,1,3.35006767547,3,504
2019_Nov_04,29,001,4,recog,54,SUCCESS,HF,lure,-,-,-,conservative,no,m,1,0.950227369044,3,507
2019_Nov_04,29,001,4,recog,55,GIMMICKS,LF,lure,-,-,-,conservative,no,m,1,1.76688587262,3,510
2019_Nov_04,29,001,4,recog,56,PIZZA,LF,lure,-,-,-,liberal,no,m,1,0.983572751496,1,511
2019_Nov_04,29,001,4,recog,57,MARKET,HF,target,right,yellow,imageability,liberal,no,m,0,1.0668920316,-3,508
2019_Nov_04,29,001,4,recog,58,EIGHT,HF,lure,-,-,-,liberal,no,m,1,0.966896577513,1,509
2019_Nov_04,29,001,4,recog,59,LOCAL,HF,target,right,yellow,imageability,conservative,no,z,1,1.03361337144,1,510
2019_Nov_04,29,001,4,recog,60,TAGGED,LF,target,right,yellow,imageability,liberal,yes,z,1,1.23350419617,3,513
2019_Nov_04,29,001,4,recog,61,SUNBURN,LF,target,right,yellow,imageability,conservative,no,z,1,5.08335667392,1,514
2019_Nov_04,29,001,4,recog,62,DISARMED,LF,lure,-,-,-,liberal,no,m,1,2.60015162824,1,515
2019_Nov_04,29,001,4,recog,63,LOWED,LF,lure,-,-,-,liberal,no,m,1,1.16687978696,1,516
2019_Nov_04,29,001,4,recog,64,SLOWLY,HF,lure,-,-,-,liberal,no,m,1,1.01689210492,1,517
2019_Nov_04,29,001,4,recog,65,BINDINGS,LF,target,right,yellow,imageability,conservative,no,z,1,1.36688279313,1,518
2019_Nov_04,29,001,4,recog,66,INHABITS,LF,lure,-,-,-,liberal,no,m,1,0.916914981134,1,519
2019_Nov_04,29,001,4,recog,67,FIELD,HF,target,right,yellow,imageability,conservative,no,z,1,4.26672236634,1,520
2019_Nov_04,29,001,4,recog,68,CHIEF,HF,lure,-,-,-,conservative,no,m,1,0.783621070167,3,523
2019_Nov_04,29,001,4,recog,69,LIMELIGHT,LF,target,left,aqua,pleasantness,liberal,no,m,0,1.48349613084,-3,520
2019_Nov_04,29,001,4,recog,70,FOLLOWED,HF,lure,-,-,-,conservative,no,m,1,1.73356175332,3,523
2019_Nov_04,29,001,4,recog,71,VESTIBULE,LF,lure,-,-,-,conservative,no,m,1,0.933569158757,3,526
2019_Nov_04,29,001,4,recog,72,MERELY,HF,target,right,yellow,imageability,liberal,no,m,0,0.833625029511,-3,523
2019_Nov_04,29,001,4,recog,73,FUMING,LF,lure,-,-,-,conservative,no,m,1,1.08363419466,3,526
2019_Nov_04,29,001,4,recog,74,POUNDS,HF,lure,-,-,-,liberal,no,m,1,0.950242399891,1,527
2019_Nov_04,29,001,4,recog,75,FRONT,HF,target,left,aqua,pleasantness,conservative,no,m,0,0.933529931915,-1,526
2019_Nov_04,29,001,4,recog,76,EASILY,HF,lure,-,-,-,conservative,no,m,1,1.53350925534,3,529
2019_Nov_04,29,001,4,recog,77,DIOCESE,LF,target,left,aqua,pleasantness,liberal,no,m,0,0.866891958278,-3,526
2019_Nov_04,29,001,4,recog,78,BRUISING,LF,lure,-,-,-,liberal,no,z,0,1.88326128303,-1,525
2019_Nov_04,29,001,4,recog,79,GIVEN,HF,target,left,aqua,pleasantness,liberal,no,m,0,0.983545622651,-3,522
2019_Nov_04,29,001,4,recog,80,CONCERNED,HF,target,left,aqua,pleasantness,liberal,no,z,1,1.65023880715,3,525
2019_Nov_04,29,001,4,recog,81,ROVERS,LF,lure,-,-,-,liberal,no,z,0,1.81685977027,-1,524
2019_Nov_04,29,001,4,recog,82,IMPORTANT,HF,lure,-,-,-,liberal,no,m,1,1.38365025201,1,525
2019_Nov_04,29,001,4,recog,83,UPDATE,LF,target,right,yellow,imageability,conservative,no,m,0,1.23351629417,-1,524
2019_Nov_04,29,001,4,recog,84,TUBERS,LF,target,left,aqua,pleasantness,conservative,no,z,1,1.40016181989,1,525
2019_Nov_04,29,001,4,recog,85,RECENT,HF,target,left,aqua,pleasantness,conservative,no,z,1,2.20017274475,1,526
2019_Nov_04,29,001,4,recog,86,STAFF,HF,target,left,aqua,pleasantness,liberal,no,z,1,0.866853831252,3,529
2019_Nov_04,29,001,4,recog,87,BOOKS,HF,target,right,yellow,imageability,conservative,no,z,1,1.45017347796,1,530
2019_Nov_04,29,001,4,recog,88,DEVELOPED,HF,lure,-,-,-,liberal,no,m,1,1.51681731729,1,531
2019_Nov_04,29,001,4,recog,89,ATTACK,HF,target,right,yellow,imageability,conservative,no,z,1,1.25000439927,1,532
2019_Nov_04,29,001,4,recog,90,HOTEL,HF,lure,-,-,-,conservative,no,m,1,1.88330710878,3,535
2019_Nov_04,29,001,4,recog,91,UNTIL,HF,target,right,yellow,imageability,liberal,no,m,0,1.38365245164,-3,532
2019_Nov_04,29,001,4,recog,92,BARBARIAN,LF,target,left,aqua,pleasantness,conservative,no,z,1,1.15001664391,1,533
2019_Nov_04,29,001,4,recog,93,WIRING,LF,target,right,yellow,imageability,conservative,no,m,0,0.966881546667,-1,532
2019_Nov_04,29,001,4,recog,94,EYEBALL,LF,target,left,aqua,pleasantness,conservative,no,z,1,1.18338512254,1,533
2019_Nov_04,29,001,4,recog,95,MEETING,HF,target,right,yellow,imageability,conservative,no,z,1,0.766885506012,1,534
