date,subj,session,cycle,task,trial,item,wf,type,source,colour,encoding,bias,null,response,corr,rt,points,total
2019_Apr_10,3,001,0,source,0,DOUBT,HF,target,right,yellow,pleasantness,liberal,no,None,-1,-1,-,-
2019_Apr_10,3,001,0,source,1,PAGANISM,LF,target,right,yellow,pleasantness,liberal,no,9,1,2.78592675852,-,-
2019_Apr_10,3,001,0,source,2,MENFOLK,LF,target,left,aqua,imageability,liberal,no,9,0,1.63971069133,-,-
2019_Apr_10,3,001,0,source,3,DEITIES,LF,target,right,yellow,pleasantness,conservative,no,9,1,1.47978256024,-,-
2019_Apr_10,3,001,0,source,4,FIVER,LF,target,right,yellow,pleasantness,liberal,no,9,1,0.986639508693,-,-
2019_Apr_10,3,001,0,source,5,WITHIN,HF,target,left,aqua,imageability,conservative,no,1,1,2.57275976045,-,-
2019_Apr_10,3,001,0,source,6,TENABLE,LF,target,right,yellow,pleasantness,conservative,no,9,1,1.73300683642,-,-
2019_Apr_10,3,001,0,source,7,AROUND,HF,target,right,yellow,pleasantness,conservative,no,1,0,1.87966026137,-,-
2019_Apr_10,3,001,0,source,8,VELVETY,LF,target,right,yellow,pleasantness,conservative,no,9,1,1.03970533892,-,-
2019_Apr_10,3,001,0,source,9,TOTAL,HF,target,right,yellow,pleasantness,conservative,no,1,0,2.1196189965,-,-
2019_Apr_10,3,001,0,source,10,SOMEONE,HF,target,right,yellow,pleasantness,conservative,no,2,0,2.23947628516,-,-
2019_Apr_10,3,001,0,source,11,RIVER,HF,target,left,aqua,imageability,conservative,no,2,1,1.65280429542,-,-
2019_Apr_10,3,001,0,source,12,ARSENALS,LF,target,right,yellow,pleasantness,liberal,yes,8,1,2.47957139673,-,-
2019_Apr_10,3,001,0,source,13,RAREFIED,LF,target,left,aqua,imageability,liberal,yes,8,0,1.55974350966,-,-
2019_Apr_10,3,001,0,source,14,WANTED,HF,target,left,aqua,imageability,conservative,yes,7,0,0.946428990404,-,-
2019_Apr_10,3,001,0,source,15,UNMADE,LF,target,left,aqua,imageability,liberal,no,2,1,1.35983178773,-,-
2019_Apr_10,3,001,0,source,16,IDLING,LF,target,left,aqua,imageability,conservative,no,1,1,1.70632508036,-,-
2019_Apr_10,3,001,0,source,17,LIARS,LF,target,left,aqua,imageability,liberal,no,8,0,2.42608690552,-,-
2019_Apr_10,3,001,0,source,18,ENERGY,HF,target,left,aqua,imageability,liberal,no,8,0,2.66596535452,-,-
2019_Apr_10,3,001,0,source,19,STRAIGHT,HF,target,left,aqua,imageability,liberal,no,2,1,1.73298997267,-,-
2019_Apr_10,3,001,0,source,20,EXACTLY,HF,target,left,aqua,imageability,conservative,no,2,1,2.43941733535,-,-
2019_Apr_10,3,001,0,source,21,GLASS,HF,target,left,aqua,imageability,conservative,no,9,0,1.79973120645,-,-
2019_Apr_10,3,001,0,source,22,WEDGES,LF,target,right,yellow,pleasantness,liberal,no,9,1,1.86633239776,-,-
2019_Apr_10,3,001,0,source,23,LEMURS,LF,target,right,yellow,pleasantness,liberal,no,9,1,1.7723540039,-,-
2019_Apr_10,3,001,0,source,24,LYNCH,LF,target,right,yellow,pleasantness,conservative,no,9,1,1.11999073227,-,-
2019_Apr_10,3,001,0,source,25,LEGALITY,LF,target,left,aqua,imageability,conservative,no,2,1,1.50613877255,-,-
2019_Apr_10,3,001,0,source,26,SPACE,HF,target,right,yellow,pleasantness,liberal,no,8,1,2.03930170866,-,-
2019_Apr_10,3,001,0,source,27,NEOLITHIC,LF,target,right,yellow,pleasantness,conservative,no,8,1,1.22716867859,-,-
2019_Apr_10,3,001,0,source,28,MYSELF,HF,target,right,yellow,pleasantness,liberal,no,2,0,1.50658822822,-,-
2019_Apr_10,3,001,0,source,29,PUPPETS,LF,target,left,aqua,imageability,conservative,no,9,0,1.63970262605,-,-
2019_Apr_10,3,001,0,source,30,HIGHER,HF,target,right,yellow,pleasantness,liberal,no,9,1,1.03976179583,-,-
2019_Apr_10,3,001,0,source,31,NEARLY,HF,target,right,yellow,pleasantness,liberal,no,8,1,1.79951381068,-,-
2019_Apr_10,3,001,0,source,32,CLEAR,HF,target,left,aqua,imageability,liberal,no,2,1,1.25325617067,-,-
2019_Apr_10,3,001,0,source,33,UPLIFT,LF,target,left,aqua,imageability,liberal,no,3,1,2.13286694059,-,-
2019_Apr_10,3,001,0,source,34,WESTERN,HF,target,right,yellow,pleasantness,conservative,yes,8,1,0.853384335187,-,-
2019_Apr_10,3,001,0,source,35,TIMES,HF,target,left,aqua,imageability,liberal,no,8,0,2.62572404155,-,-
2019_Apr_10,3,001,0,source,36,AVIDLY,LF,target,left,aqua,imageability,conservative,no,3,1,2.37274465639,-,-
2019_Apr_10,3,001,0,source,37,SHUNNED,LF,target,left,aqua,imageability,liberal,no,7,0,1.87964999648,-,-
2019_Apr_10,3,001,0,source,38,BECAME,HF,target,left,aqua,imageability,liberal,no,3,1,1.7331267157,-,-
2019_Apr_10,3,001,0,source,39,UNDER,HF,target,left,aqua,imageability,conservative,no,8,0,2.11949141855,-,-
2019_Apr_10,3,001,0,source,40,SAINTLY,LF,target,left,aqua,imageability,conservative,no,8,0,1.37310539405,-,-
2019_Apr_10,3,001,0,source,41,HELICAL,LF,target,left,aqua,imageability,conservative,no,8,0,1.27961861524,-,-
2019_Apr_10,3,001,0,source,42,ENTIRELY,HF,target,left,aqua,imageability,liberal,no,3,1,1.09302742486,-,-
2019_Apr_10,3,001,0,source,43,STOOD,HF,target,right,yellow,pleasantness,liberal,no,3,0,1.22635738544,-,-
2019_Apr_10,3,001,0,source,44,SYSTEM,HF,target,right,yellow,pleasantness,conservative,no,8,1,1.73298557343,-,-
2019_Apr_10,3,001,0,source,45,TOADS,LF,target,right,yellow,pleasantness,conservative,no,9,1,1.15992263204,-,-
2019_Apr_10,3,001,0,source,46,ASSERTIVE,LF,target,right,yellow,pleasantness,liberal,no,3,0,1.01349430152,-,-
2019_Apr_10,3,001,0,source,47,TELEPHONE,HF,target,right,yellow,pleasantness,conservative,no,3,0,1.0666213545,-,-
2019_Apr_10,3,001,0,recog,0,OEDIPAL,LF,lure,-,-,-,liberal,no,m,1,1.29323132963,1,1
2019_Apr_10,3,001,0,recog,1,SIMILAR,HF,lure,-,-,-,conservative,no,m,1,1.75946423125,3,4
2019_Apr_10,3,001,0,recog,2,ARSENALS,LF,target,right,yellow,pleasantness,liberal,no,z,1,2.09269271603,3,7
2019_Apr_10,3,001,0,recog,3,INTEREST,HF,lure,-,-,-,conservative,no,m,1,1.97270418338,3,10
2019_Apr_10,3,001,0,recog,4,ENTIRELY,HF,target,left,aqua,imageability,liberal,no,m,0,1.6929370938,-3,7
2019_Apr_10,3,001,0,recog,5,OPULENCE,LF,lure,-,-,-,conservative,no,m,1,1.3864706512,3,10
2019_Apr_10,3,001,0,recog,6,LYNCH,LF,target,right,yellow,pleasantness,conservative,no,z,1,1.09335150219,1,11
2019_Apr_10,3,001,0,recog,7,LIARS,LF,target,left,aqua,imageability,liberal,no,z,1,1.19993261831,3,14
2019_Apr_10,3,001,0,recog,8,ENERGY,HF,target,left,aqua,imageability,liberal,no,z,1,1.01334216114,3,17
2019_Apr_10,3,001,0,recog,9,PURCHASER,LF,lure,-,-,-,conservative,no,m,1,0.893359127543,3,20
2019_Apr_10,3,001,0,recog,10,LEGALITY,LF,target,left,aqua,imageability,conservative,no,z,1,1.02658203996,1,21
2019_Apr_10,3,001,0,recog,11,TIMES,HF,target,left,aqua,imageability,liberal,no,z,1,0.973308712255,3,24
2019_Apr_10,3,001,0,recog,12,ACIDITY,LF,lure,-,-,-,conservative,no,m,1,1.70655310762,3,27
2019_Apr_10,3,001,0,recog,13,GLASS,HF,target,left,aqua,imageability,conservative,no,z,1,1.43976230907,1,28
2019_Apr_10,3,001,0,recog,14,SOMEONE,HF,target,right,yellow,pleasantness,conservative,no,z,1,1.18657982567,1,29
2019_Apr_10,3,001,0,recog,15,PUFFS,LF,lure,-,-,-,liberal,no,m,1,1.09322209122,1,30
2019_Apr_10,3,001,0,recog,16,CHAIR,HF,lure,-,-,-,liberal,no,m,1,1.01333702869,1,31
2019_Apr_10,3,001,0,recog,17,MYSELF,HF,target,right,yellow,pleasantness,liberal,no,z,1,0.99976244105,3,34
2019_Apr_10,3,001,0,recog,18,HUSBAND,HF,lure,-,-,-,conservative,yes,z,0,1.21334113465,-3,31
2019_Apr_10,3,001,0,recog,19,ROADWAY,LF,lure,-,-,-,liberal,no,m,1,1.00001833017,1,32
2019_Apr_10,3,001,0,recog,20,WANTED,HF,target,left,aqua,imageability,conservative,yes,m,0,0.973127243613,-1,31
2019_Apr_10,3,001,0,recog,21,TOTAL,HF,target,right,yellow,pleasantness,conservative,no,z,1,1.09324921987,1,32
2019_Apr_10,3,001,0,recog,22,COLDEST,LF,lure,-,-,-,liberal,no,m,1,1.26653454283,1,33
2019_Apr_10,3,001,0,recog,23,ASSERTIVE,LF,target,right,yellow,pleasantness,liberal,no,z,1,1.09348897844,3,36
2019_Apr_10,3,001,0,recog,24,UPLIFT,LF,target,left,aqua,imageability,liberal,no,z,1,1.67995970296,3,39
2019_Apr_10,3,001,0,recog,25,SAGES,LF,lure,-,-,-,liberal,no,m,1,1.01342831292,1,40
2019_Apr_10,3,001,0,recog,26,HIGHER,HF,target,right,yellow,pleasantness,liberal,no,z,1,0.906649597616,3,43
2019_Apr_10,3,001,0,recog,27,ENDEARING,LF,lure,-,-,-,conservative,no,m,1,1.09334636975,3,46
2019_Apr_10,3,001,0,recog,28,VELVETY,LF,target,right,yellow,pleasantness,conservative,no,z,1,1.13326103916,1,47
2019_Apr_10,3,001,0,recog,29,MINISTER,HF,lure,-,-,-,liberal,no,m,1,1.22652052392,1,48
2019_Apr_10,3,001,0,recog,30,WITHIN,HF,target,left,aqua,imageability,conservative,no,z,1,1.82618786807,1,49
2019_Apr_10,3,001,0,recog,31,EXACTLY,HF,target,left,aqua,imageability,conservative,no,z,1,1.06656233136,1,50
2019_Apr_10,3,001,0,recog,32,HELICAL,LF,target,left,aqua,imageability,conservative,no,z,1,1.0,1,51
2019_Apr_10,3,001,0,recog,33,WESTERN,HF,target,right,yellow,pleasantness,conservative,no,z,1,1.55966762277,1,52
2019_Apr_10,3,001,0,recog,34,BECAME,HF,target,left,aqua,imageability,liberal,no,z,1,1.27971319889,3,55
2019_Apr_10,3,001,0,recog,35,FOLLOWED,HF,lure,-,-,-,conservative,no,m,1,1.03991943525,3,58
2019_Apr_10,3,001,0,recog,36,NAIVELY,LF,lure,-,-,-,liberal,no,m,1,1.37317798151,1,59
2019_Apr_10,3,001,0,recog,37,HYPNOSIS,LF,lure,-,-,-,liberal,no,m,1,1.07993235436,1,60
2019_Apr_10,3,001,0,recog,38,DURING,HF,lure,-,-,-,liberal,no,m,1,1.0267085181,1,61
2019_Apr_10,3,001,0,recog,39,REVERE,LF,lure,-,-,-,liberal,no,m,1,1.02663263121,1,62
2019_Apr_10,3,001,0,recog,40,TOADS,LF,target,right,yellow,pleasantness,conservative,no,z,1,1.0399685601,1,63
2019_Apr_10,3,001,0,recog,41,ATTACK,HF,lure,-,-,-,liberal,no,m,1,1.02640753678,1,64
2019_Apr_10,3,001,0,recog,42,STRAIGHT,HF,target,left,aqua,imageability,liberal,no,z,1,1.27986937191,3,67
2019_Apr_10,3,001,0,recog,43,TILTS,LF,lure,-,-,-,conservative,no,m,1,1.23988578107,3,70
2019_Apr_10,3,001,0,recog,44,DRAFTING,LF,lure,-,-,-,conservative,no,m,1,1.14657717146,3,73
2019_Apr_10,3,001,0,recog,45,CLEAR,HF,target,left,aqua,imageability,liberal,no,m,0,1.19964630112,-3,70
2019_Apr_10,3,001,0,recog,46,DOUBT,HF,target,right,yellow,pleasantness,liberal,no,z,1,1.58637467446,3,73
2019_Apr_10,3,001,0,recog,47,DIOCESE,LF,lure,-,-,-,conservative,no,z,0,1.75941144037,-3,70
2019_Apr_10,3,001,0,recog,48,PAGANISM,LF,target,right,yellow,pleasantness,liberal,no,z,1,1.1596975376,3,73
2019_Apr_10,3,001,0,recog,49,IDLING,LF,target,left,aqua,imageability,conservative,no,z,1,2.22621257713,1,74
2019_Apr_10,3,001,0,recog,50,FEIGNED,LF,lure,-,-,-,conservative,no,m,1,1.10666470167,3,77
2019_Apr_10,3,001,0,recog,51,SUDDENLY,HF,lure,-,-,-,liberal,no,z,0,1.19983913446,-1,76
2019_Apr_10,3,001,0,recog,52,TOFFEE,LF,lure,-,-,-,liberal,no,z,0,1.21298919547,-1,75
2019_Apr_10,3,001,0,recog,53,INHABITS,LF,lure,-,-,-,conservative,no,z,0,1.55948175489,-3,72
2019_Apr_10,3,001,0,recog,54,NUCLEAR,HF,lure,-,-,-,liberal,no,m,1,1.18654903099,1,73
2019_Apr_10,3,001,0,recog,55,PUPPETS,LF,target,left,aqua,imageability,conservative,no,z,1,2.10626473745,1,74
2019_Apr_10,3,001,0,recog,56,RIVER,HF,target,left,aqua,imageability,conservative,no,z,1,1.319793573,1,75
2019_Apr_10,3,001,0,recog,57,SPACE,HF,target,right,yellow,pleasantness,liberal,no,z,1,1.213225288,3,78
2019_Apr_10,3,001,0,recog,58,AHEAD,HF,lure,-,-,-,conservative,no,z,0,1.23987478297,-3,75
2019_Apr_10,3,001,0,recog,59,FIVER,LF,target,right,yellow,pleasantness,liberal,yes,m,0,1.31987459234,-3,72
2019_Apr_10,3,001,0,recog,60,AFRAID,HF,lure,-,-,-,liberal,no,z,0,1.18655159722,-1,71
2019_Apr_10,3,001,0,recog,61,REACHED,HF,lure,-,-,-,conservative,no,m,1,1.21242462636,3,74
2019_Apr_10,3,001,0,recog,62,AVIDLY,LF,target,left,aqua,imageability,conservative,no,z,1,1.34650868997,1,75
2019_Apr_10,3,001,0,recog,63,NOXIOUS,LF,lure,-,-,-,liberal,no,m,1,1.15989770301,1,76
2019_Apr_10,3,001,0,recog,64,BROUGHT,HF,lure,-,-,-,liberal,no,m,1,1.46645726285,1,77
2019_Apr_10,3,001,0,recog,65,MAJOR,HF,lure,-,-,-,conservative,no,m,1,1.14660686633,3,80
2019_Apr_10,3,001,0,recog,66,GIRLS,HF,lure,-,-,-,conservative,no,m,1,1.05342620129,3,83
2019_Apr_10,3,001,0,recog,67,AROUND,HF,target,right,yellow,pleasantness,conservative,no,z,1,1.14631834952,1,84
2019_Apr_10,3,001,0,recog,68,UNDER,HF,target,left,aqua,imageability,conservative,no,z,1,1.27993316088,1,85
2019_Apr_10,3,001,0,recog,69,WATCH,HF,lure,-,-,-,liberal,no,m,1,1.07993895322,1,86
2019_Apr_10,3,001,0,recog,70,CHIEF,HF,lure,-,-,-,conservative,no,m,1,1.43977037435,3,89
2019_Apr_10,3,001,0,recog,71,SINCE,HF,lure,-,-,-,conservative,no,m,1,1.10659504704,3,92
2019_Apr_10,3,001,0,recog,72,NEARLY,HF,target,right,yellow,pleasantness,liberal,no,z,1,1.23982382511,3,95
2019_Apr_10,3,001,0,recog,73,BUSINESS,HF,lure,-,-,-,liberal,yes,z,0,1.11987855165,-1,94
2019_Apr_10,3,001,0,recog,74,NEOLITHIC,LF,target,right,yellow,pleasantness,conservative,no,z,1,1.33319219106,1,95
2019_Apr_10,3,001,0,recog,75,SHUNNED,LF,target,left,aqua,imageability,liberal,no,z,1,1.15990576828,3,98
2019_Apr_10,3,001,0,recog,76,TENABLE,LF,target,right,yellow,pleasantness,conservative,no,m,0,1.61281887157,-1,97
2019_Apr_10,3,001,0,recog,77,EGGSHELL,LF,lure,-,-,-,conservative,no,m,1,1.05332355236,3,100
2019_Apr_10,3,001,0,recog,78,HISTORY,HF,lure,-,-,-,liberal,no,m,1,1.41292511321,1,101
2019_Apr_10,3,001,0,recog,79,PROBABLY,HF,lure,-,-,-,conservative,no,z,0,1.51977165013,-3,98
2019_Apr_10,3,001,0,recog,80,AEROSOL,LF,lure,-,-,-,liberal,no,m,1,1.41313700992,1,99
2019_Apr_10,3,001,0,recog,81,DEITIES,LF,target,right,yellow,pleasantness,conservative,no,z,1,1.27994122616,1,100
2019_Apr_10,3,001,0,recog,82,RAREFIED,LF,target,left,aqua,imageability,liberal,no,z,1,1.25317368492,3,103
2019_Apr_10,3,001,0,recog,83,RANGE,HF,lure,-,-,-,conservative,no,z,0,1.21330337451,-3,100
2019_Apr_10,3,001,0,recog,84,SAINTLY,LF,target,left,aqua,imageability,conservative,no,z,1,1.19992895228,1,101
2019_Apr_10,3,001,0,recog,85,ANSWER,HF,lure,-,-,-,liberal,no,m,1,1.17300670444,1,102
2019_Apr_10,3,001,0,recog,86,LEMURS,LF,target,right,yellow,pleasantness,liberal,no,z,1,1.11991521198,3,105
2019_Apr_10,3,001,0,recog,87,WEDGES,LF,target,right,yellow,pleasantness,liberal,no,z,1,1.15987900624,3,108
2019_Apr_10,3,001,0,recog,88,TELEPHONE,HF,target,right,yellow,pleasantness,conservative,no,z,1,1.23988981371,1,109
2019_Apr_10,3,001,0,recog,89,SYSTEM,HF,target,right,yellow,pleasantness,conservative,no,z,1,1.06658322775,1,110
2019_Apr_10,3,001,0,recog,90,CIRCUSES,LF,lure,-,-,-,liberal,no,m,1,1.30661161751,1,111
2019_Apr_10,3,001,0,recog,91,STOOD,HF,target,right,yellow,pleasantness,liberal,no,z,1,1.38649484702,3,114
2019_Apr_10,3,001,0,recog,92,UNMADE,LF,target,left,aqua,imageability,liberal,no,m,0,1.38662279158,-3,111
2019_Apr_10,3,001,0,recog,93,ROSEBUD,LF,lure,-,-,-,conservative,no,m,1,1.46621090542,3,114
2019_Apr_10,3,001,0,recog,94,MENFOLK,LF,target,left,aqua,imageability,liberal,no,z,1,1.15969313836,3,117
2019_Apr_10,3,001,0,recog,95,TITAN,LF,lure,-,-,-,conservative,no,m,1,1.34645846531,3,120
2019_Apr_10,3,001,1,source,0,RUNNING,HF,target,right,yellow,pleasantness,conservative,no,7,1,1.86644641139,-,-
2019_Apr_10,3,001,1,source,1,DERANGED,LF,target,right,yellow,pleasantness,liberal,no,9,1,1.38645525387,-,-
2019_Apr_10,3,001,1,source,2,ANYONE,HF,target,left,aqua,imageability,conservative,no,2,1,1.17330805237,-,-
2019_Apr_10,3,001,1,source,3,ADMIRALS,LF,target,left,aqua,imageability,liberal,no,1,1,2.62581495917,-,-
2019_Apr_10,3,001,1,source,4,RAYON,LF,target,right,yellow,pleasantness,conservative,no,9,1,1.27988220302,-,-
2019_Apr_10,3,001,1,source,5,MOSAICS,LF,target,right,yellow,pleasantness,liberal,no,2,0,1.62642608691,-,-
2019_Apr_10,3,001,1,source,6,ABOVE,HF,target,left,aqua,imageability,liberal,yes,2,1,0.799793162408,-,-
2019_Apr_10,3,001,1,source,7,ROUND,HF,target,left,aqua,imageability,liberal,no,1,1,2.11926559091,-,-
2019_Apr_10,3,001,1,source,8,LIZARD,LF,target,left,aqua,imageability,liberal,yes,2,1,1.23966985172,-,-
2019_Apr_10,3,001,1,source,9,DAFFODILS,LF,target,right,yellow,pleasantness,liberal,no,9,1,1.66635542045,-,-
2019_Apr_10,3,001,1,source,10,SIESTA,LF,target,right,yellow,pleasantness,conservative,no,9,1,0.879789672344,-,-
2019_Apr_10,3,001,1,source,11,KIPPERS,LF,target,left,aqua,imageability,conservative,no,8,0,1.23963172497,-,-
2019_Apr_10,3,001,1,source,12,ITSELF,HF,target,left,aqua,imageability,liberal,yes,3,1,1.27982317989,-,-
2019_Apr_10,3,001,1,source,13,LATER,HF,target,left,aqua,imageability,conservative,no,2,1,1.5464112468,-,-
2019_Apr_10,3,001,1,source,14,SUPPORT,HF,target,left,aqua,imageability,conservative,yes,7,0,1.30656065965,-,-
2019_Apr_10,3,001,1,source,15,COUNCIL,HF,target,left,aqua,imageability,liberal,no,9,0,3.03891970801,-,-
2019_Apr_10,3,001,1,source,16,TUCKER,LF,target,left,aqua,imageability,conservative,no,7,0,1.70612711457,-,-
2019_Apr_10,3,001,1,source,17,WOMAN,HF,target,right,yellow,pleasantness,liberal,no,9,1,1.50645258499,-,-
2019_Apr_10,3,001,1,source,18,DAWDLING,LF,target,right,yellow,pleasantness,conservative,no,2,0,1.31982363448,-,-
2019_Apr_10,3,001,1,source,19,HERSELF,HF,target,left,aqua,imageability,conservative,no,3,1,1.37291292731,-,-
2019_Apr_10,3,001,1,source,20,HOSPITAL,HF,target,right,yellow,pleasantness,liberal,no,9,1,1.04007817449,-,-
2019_Apr_10,3,001,1,source,21,AGELESS,LF,target,left,aqua,imageability,conservative,no,9,0,1.03999202271,-,-
2019_Apr_10,3,001,1,source,22,APART,HF,target,right,yellow,pleasantness,conservative,no,7,1,2.29277747472,-,-
2019_Apr_10,3,001,1,source,23,REPORT,HF,target,right,yellow,pleasantness,liberal,no,9,1,1.54641821227,-,-
2019_Apr_10,3,001,1,source,24,FLOOR,HF,target,left,aqua,imageability,liberal,no,3,1,1.09327744832,-,-
2019_Apr_10,3,001,1,source,25,FURTHER,HF,target,left,aqua,imageability,conservative,no,3,1,1.21329824206,-,-
2019_Apr_10,3,001,1,source,26,CAPITAL,HF,target,right,yellow,pleasantness,conservative,no,9,1,1.01358668555,-,-
2019_Apr_10,3,001,1,source,27,TREES,HF,target,right,yellow,pleasantness,liberal,no,9,1,1.14656837298,-,-
2019_Apr_10,3,001,1,source,28,TETHER,LF,target,right,yellow,pleasantness,conservative,no,7,1,2.47914210424,-,-
2019_Apr_10,3,001,1,source,29,MICROCOSM,LF,target,left,aqua,imageability,liberal,no,3,1,1.09303878956,-,-
2019_Apr_10,3,001,1,source,30,HOTEL,HF,target,right,yellow,pleasantness,liberal,no,9,1,0.986412947843,-,-
2019_Apr_10,3,001,1,source,31,VACATED,LF,target,right,yellow,pleasantness,liberal,no,9,1,0.813365183829,-,-
2019_Apr_10,3,001,1,source,32,JOTTED,LF,target,right,yellow,pleasantness,conservative,no,7,1,1.97265982438,-,-
2019_Apr_10,3,001,1,source,33,KENNEL,LF,target,right,yellow,pleasantness,liberal,no,8,1,1.1198286936,-,-
2019_Apr_10,3,001,1,source,34,MAVIS,LF,target,left,aqua,imageability,liberal,no,3,1,1.06663015298,-,-
2019_Apr_10,3,001,1,source,35,FRIEND,HF,target,right,yellow,pleasantness,liberal,no,3,0,1.14654161094,-,-
2019_Apr_10,3,001,1,source,36,LANGUAGE,HF,target,right,yellow,pleasantness,conservative,no,3,0,1.22630422796,-,-
2019_Apr_10,3,001,1,source,37,JINGLE,LF,target,left,aqua,imageability,liberal,no,3,1,1.33312400284,-,-
2019_Apr_10,3,001,1,source,38,CUDDLE,LF,target,left,aqua,imageability,liberal,no,7,0,1.21295400155,-,-
2019_Apr_10,3,001,1,source,39,DEGREE,HF,target,right,yellow,pleasantness,conservative,no,8,1,1.09330531018,-,-
2019_Apr_10,3,001,1,source,40,MAYBE,HF,target,right,yellow,pleasantness,conservative,no,8,1,1.25315902079,-,-
2019_Apr_10,3,001,1,source,41,RINSING,LF,target,left,aqua,imageability,conservative,no,2,1,1.09326864984,-,-
2019_Apr_10,3,001,1,source,42,LOPSIDED,LF,target,right,yellow,pleasantness,liberal,no,8,1,1.1063699526,-,-
2019_Apr_10,3,001,1,source,43,SMIRK,LF,target,left,aqua,imageability,conservative,no,3,1,1.21325095024,-,-
2019_Apr_10,3,001,1,source,44,BIOLOGIST,LF,target,right,yellow,pleasantness,conservative,no,9,1,1.11992474367,-,-
2019_Apr_10,3,001,1,source,45,ROOFED,LF,target,left,aqua,imageability,conservative,no,3,1,3.8519274536,-,-
2019_Apr_10,3,001,1,source,46,OFFER,HF,target,left,aqua,imageability,liberal,no,3,1,1.21321319009,-,-
2019_Apr_10,3,001,1,source,47,BEAUTIFUL,HF,target,left,aqua,imageability,conservative,no,8,0,0.720156656929,-,-
2019_Apr_10,3,001,1,recog,0,UNION,HF,lure,-,-,-,conservative,no,z,0,1.27985984022,-3,117
2019_Apr_10,3,001,1,recog,1,FRUGAL,LF,lure,-,-,-,liberal,no,m,1,1.98630150043,1,118
2019_Apr_10,3,001,1,recog,2,ABOVE,HF,target,left,aqua,imageability,liberal,no,z,1,1.33313610075,3,121
2019_Apr_10,3,001,1,recog,3,EMULATION,LF,lure,-,-,-,liberal,no,m,1,1.69287403803,1,122
2019_Apr_10,3,001,1,recog,4,ROOFED,LF,target,left,aqua,imageability,conservative,no,z,1,1.093263884,1,123
2019_Apr_10,3,001,1,recog,5,SHALL,HF,lure,-,-,-,conservative,no,m,1,1.02670045283,3,126
2019_Apr_10,3,001,1,recog,6,RUSSET,LF,lure,-,-,-,conservative,no,m,1,1.02639177283,3,129
2019_Apr_10,3,001,1,recog,7,SPEAK,HF,lure,-,-,-,liberal,no,m,1,1.21265485324,1,130
2019_Apr_10,3,001,1,recog,8,MAKES,HF,lure,-,-,-,conservative,no,m,1,1.10664160566,3,133
2019_Apr_10,3,001,1,recog,9,HERSELF,HF,target,left,aqua,imageability,conservative,no,z,1,0.959998445602,1,134
2019_Apr_10,3,001,1,recog,10,ITSELF,HF,target,left,aqua,imageability,liberal,no,z,1,1.1999755109,3,137
2019_Apr_10,3,001,1,recog,11,KIPPERS,LF,target,left,aqua,imageability,conservative,no,z,1,1.17336890852,1,138
2019_Apr_10,3,001,1,recog,12,FUSELAGE,LF,lure,-,-,-,conservative,no,m,1,1.29319943514,3,141
2019_Apr_10,3,001,1,recog,13,GIMMICKS,LF,lure,-,-,-,liberal,no,z,0,1.15990650149,-1,140
2019_Apr_10,3,001,1,recog,14,COVER,HF,lure,-,-,-,conservative,no,m,1,1.4797777944,3,143
2019_Apr_10,3,001,1,recog,15,LANGUAGE,HF,target,right,yellow,pleasantness,conservative,no,z,1,1.31984159804,1,144
2019_Apr_10,3,001,1,recog,16,RUNNING,HF,target,right,yellow,pleasantness,conservative,no,z,1,1.04004884623,1,145
2019_Apr_10,3,001,1,recog,17,LABOUR,HF,lure,-,-,-,conservative,no,m,1,1.0400686428,3,148
2019_Apr_10,3,001,1,recog,18,WRITE,HF,lure,-,-,-,liberal,no,m,1,1.30650273633,1,149
2019_Apr_10,3,001,1,recog,19,SIZZLING,LF,lure,-,-,-,conservative,no,m,1,1.10656681859,3,152
2019_Apr_10,3,001,1,recog,20,AGNOSTIC,LF,lure,-,-,-,liberal,no,m,1,1.35980502569,1,153
2019_Apr_10,3,001,1,recog,21,SUPPORT,HF,target,left,aqua,imageability,conservative,yes,m,0,1.11990714671,-1,152
2019_Apr_10,3,001,1,recog,22,SIESTA,LF,target,right,yellow,pleasantness,conservative,no,z,1,1.29319063666,1,153
2019_Apr_10,3,001,1,recog,23,COUNCIL,HF,target,left,aqua,imageability,liberal,no,z,1,0.999943543089,3,156
2019_Apr_10,3,001,1,recog,24,URBANE,LF,lure,-,-,-,conservative,no,m,1,1.17322483342,3,159
2019_Apr_10,3,001,1,recog,25,NEEDED,HF,lure,-,-,-,conservative,no,m,1,1.23990961029,3,162
2019_Apr_10,3,001,1,recog,26,INMATE,LF,lure,-,-,-,conservative,no,m,1,0.973343539569,3,165
2019_Apr_10,3,001,1,recog,27,LATER,HF,target,left,aqua,imageability,conservative,no,z,1,1.10655838671,1,166
2019_Apr_10,3,001,1,recog,28,LOPSIDED,LF,target,right,yellow,pleasantness,liberal,no,z,1,1.13323757655,3,169
2019_Apr_10,3,001,1,recog,29,ULCER,LF,lure,-,-,-,conservative,no,m,1,1.08003940252,3,172
2019_Apr_10,3,001,1,recog,30,LIZARD,LF,target,left,aqua,imageability,liberal,no,z,1,1.05328909165,3,175
2019_Apr_10,3,001,1,recog,31,ZEALOTS,LF,lure,-,-,-,conservative,no,m,1,0.999945742708,3,178
2019_Apr_10,3,001,1,recog,32,VACATED,LF,target,right,yellow,pleasantness,liberal,no,z,1,1.11988881655,3,181
2019_Apr_10,3,001,1,recog,33,CHURCH,HF,lure,-,-,-,conservative,no,m,1,1.10614449156,3,184
2019_Apr_10,3,001,1,recog,34,MAYBE,HF,target,right,yellow,pleasantness,conservative,no,z,1,0.919977827832,1,185
2019_Apr_10,3,001,1,recog,35,TUCKER,LF,target,left,aqua,imageability,conservative,no,z,1,1.02682656437,1,186
2019_Apr_10,3,001,1,recog,36,MAVIS,LF,target,left,aqua,imageability,liberal,no,z,1,0.959795347364,3,189
2019_Apr_10,3,001,1,recog,37,USING,HF,lure,-,-,-,conservative,no,m,1,1.33308074365,3,192
2019_Apr_10,3,001,1,recog,38,PIGLETS,LF,lure,-,-,-,conservative,no,z,0,1.05305703175,-3,189
2019_Apr_10,3,001,1,recog,39,TETHER,LF,target,right,yellow,pleasantness,conservative,no,z,1,1.18661135356,1,190
2019_Apr_10,3,001,1,recog,40,RAYON,LF,target,right,yellow,pleasantness,conservative,no,z,1,1.09324262101,1,191
2019_Apr_10,3,001,1,recog,41,FLOOR,HF,target,left,aqua,imageability,liberal,no,z,1,1.01337002299,3,194
2019_Apr_10,3,001,1,recog,42,BEAUTIFUL,HF,target,left,aqua,imageability,conservative,no,z,1,1.25256622322,1,195
2019_Apr_10,3,001,1,recog,43,DEGREE,HF,target,right,yellow,pleasantness,conservative,no,z,1,0.94666288332,1,196
2019_Apr_10,3,001,1,recog,44,OUTSIDE,HF,lure,-,-,-,conservative,no,z,0,0.99999560076,-3,193
2019_Apr_10,3,001,1,recog,45,HOSPITAL,HF,target,right,yellow,pleasantness,liberal,no,z,1,2.0528755631,3,196
2019_Apr_10,3,001,1,recog,46,LETTER,HF,lure,-,-,-,liberal,no,m,1,1.26624272659,1,197
2019_Apr_10,3,001,1,recog,47,ALTHOUGH,HF,lure,-,-,-,liberal,no,m,1,0.999727247132,1,198
2019_Apr_10,3,001,1,recog,48,ROUND,HF,target,left,aqua,imageability,liberal,no,z,1,1.33309247495,3,201
2019_Apr_10,3,001,1,recog,49,REPORT,HF,target,right,yellow,pleasantness,liberal,no,z,1,0.986632543229,3,204
2019_Apr_10,3,001,1,recog,50,TAKEN,HF,lure,-,-,-,liberal,no,z,0,1.2665312434,-1,203
2019_Apr_10,3,001,1,recog,51,DAWDLING,LF,target,right,yellow,pleasantness,conservative,no,z,1,1.23989384634,1,204
2019_Apr_10,3,001,1,recog,52,FRIEND,HF,target,right,yellow,pleasantness,liberal,no,z,1,0.973440689449,3,207
2019_Apr_10,3,001,1,recog,53,CALLED,HF,lure,-,-,-,liberal,no,m,1,1.08006543136,1,208
2019_Apr_10,3,001,1,recog,54,WETTER,LF,lure,-,-,-,conservative,no,m,1,1.15991969921,3,211
2019_Apr_10,3,001,1,recog,55,CLICKS,LF,lure,-,-,-,conservative,no,m,1,0.9730817848,3,214
2019_Apr_10,3,001,1,recog,56,JINGLE,LF,target,left,aqua,imageability,liberal,no,z,1,1.05333271744,3,217
2019_Apr_10,3,001,1,recog,57,WOMAN,HF,target,right,yellow,pleasantness,liberal,no,z,1,0.946411393445,3,220
2019_Apr_10,3,001,1,recog,58,PRIVATE,HF,lure,-,-,-,liberal,no,m,1,1.23990814387,1,221
2019_Apr_10,3,001,1,recog,59,MOISTENED,LF,lure,-,-,-,liberal,no,m,1,0.959981215246,1,222
2019_Apr_10,3,001,1,recog,60,HOTEL,HF,target,right,yellow,pleasantness,liberal,no,z,1,0.973304679618,3,225
2019_Apr_10,3,001,1,recog,61,LICENSING,LF,lure,-,-,-,liberal,no,m,1,1.34646983001,1,226
2019_Apr_10,3,001,1,recog,62,MERELY,HF,lure,-,-,-,conservative,no,m,1,0.973331075057,3,229
2019_Apr_10,3,001,1,recog,63,UNLESS,HF,lure,-,-,-,liberal,no,m,1,1.00000586565,1,230
2019_Apr_10,3,001,1,recog,64,BEYOND,HF,lure,-,-,-,liberal,no,z,0,1.03975153094,-1,229
2019_Apr_10,3,001,1,recog,65,GULLIBLE,LF,lure,-,-,-,liberal,no,m,1,1.19988092724,1,230
2019_Apr_10,3,001,1,recog,66,DRUDGERY,LF,lure,-,-,-,liberal,no,m,1,1.06666021445,1,231
2019_Apr_10,3,001,1,recog,67,MOSAICS,LF,target,right,yellow,pleasantness,liberal,no,z,1,1.00002052979,3,234
2019_Apr_10,3,001,1,recog,68,FURTHER,HF,target,left,aqua,imageability,conservative,no,z,1,1.37316515039,1,235
2019_Apr_10,3,001,1,recog,69,ANYONE,HF,target,left,aqua,imageability,conservative,no,z,1,0.959952986791,1,236
2019_Apr_10,3,001,1,recog,70,DAFFODILS,LF,target,right,yellow,pleasantness,liberal,no,z,1,1.02638297436,3,239
2019_Apr_10,3,001,1,recog,71,BIOLOGIST,LF,target,right,yellow,pleasantness,conservative,no,z,1,1.10665113735,1,240
2019_Apr_10,3,001,1,recog,72,JOTTED,LF,target,right,yellow,pleasantness,conservative,yes,z,1,0.999973971165,1,241
2019_Apr_10,3,001,1,recog,73,OFFER,HF,target,left,aqua,imageability,liberal,no,z,1,1.27963107975,3,244
2019_Apr_10,3,001,1,recog,74,ASPIRED,LF,lure,-,-,-,liberal,no,m,1,1.04003638171,1,245
2019_Apr_10,3,001,1,recog,75,ADMIRALS,LF,target,left,aqua,imageability,liberal,no,z,1,0.959937589451,3,248
2019_Apr_10,3,001,1,recog,76,APART,HF,target,right,yellow,pleasantness,conservative,no,z,1,1.02663556404,1,249
2019_Apr_10,3,001,1,recog,77,COGENT,LF,lure,-,-,-,conservative,no,m,1,1.0798594003,3,252
2019_Apr_10,3,001,1,recog,78,RINSING,LF,target,left,aqua,imageability,conservative,yes,m,0,0.879815701181,-1,251
2019_Apr_10,3,001,1,recog,79,KENNEL,LF,target,right,yellow,pleasantness,liberal,no,z,1,0.919790860139,3,254
2019_Apr_10,3,001,1,recog,80,TAMING,LF,lure,-,-,-,liberal,no,m,1,0.973368468595,1,255
2019_Apr_10,3,001,1,recog,81,AGELESS,LF,target,left,aqua,imageability,conservative,no,z,1,1.43982243202,1,256
2019_Apr_10,3,001,1,recog,82,SMIRK,LF,target,left,aqua,imageability,conservative,no,z,1,1.06662758675,1,257
2019_Apr_10,3,001,1,recog,83,LARGE,HF,lure,-,-,-,liberal,no,m,1,0.999956007601,1,258
2019_Apr_10,3,001,1,recog,84,TREES,HF,target,right,yellow,pleasantness,liberal,no,z,1,0.879963442318,3,261
2019_Apr_10,3,001,1,recog,85,FASCINATE,LF,lure,-,-,-,conservative,no,m,1,1.54638741759,3,264
2019_Apr_10,3,001,1,recog,86,MICROCOSM,LF,target,left,aqua,imageability,liberal,no,z,1,1.19966426468,3,267
2019_Apr_10,3,001,1,recog,87,TEXTURES,LF,lure,-,-,-,liberal,yes,z,0,0.866715498229,-1,266
2019_Apr_10,3,001,1,recog,88,BETTER,HF,lure,-,-,-,liberal,no,m,1,1.19968259485,1,267
2019_Apr_10,3,001,1,recog,89,FIELD,HF,lure,-,-,-,conservative,no,m,1,0.999991568124,3,270
2019_Apr_10,3,001,1,recog,90,REEDY,LF,lure,-,-,-,liberal,no,m,1,1.03997185953,1,271
2019_Apr_10,3,001,1,recog,91,SLIGHTLY,HF,lure,-,-,-,liberal,no,m,1,1.14658926937,1,272
2019_Apr_10,3,001,1,recog,92,DERANGED,LF,target,right,yellow,pleasantness,liberal,no,z,1,1.14658670315,3,275
2019_Apr_10,3,001,1,recog,93,CAPITAL,HF,target,right,yellow,pleasantness,conservative,no,z,1,1.1732453632,1,276
2019_Apr_10,3,001,1,recog,94,BASIC,HF,lure,-,-,-,conservative,no,m,1,0.946452086413,3,279
2019_Apr_10,3,001,1,recog,95,CUDDLE,LF,target,left,aqua,imageability,liberal,no,z,1,1.01331393269,3,282
2019_Apr_10,3,001,2,source,0,JOWLS,LF,target,left,aqua,imageability,liberal,no,7,0,1.7730505502,-,-
2019_Apr_10,3,001,2,source,1,HUNDRED,HF,target,left,aqua,imageability,liberal,no,7,0,1.90624596736,-,-
2019_Apr_10,3,001,2,source,2,THUDDING,LF,target,right,yellow,pleasantness,liberal,no,8,1,1.47982032038,-,-
2019_Apr_10,3,001,2,source,3,AREAS,HF,target,left,aqua,imageability,conservative,no,2,1,1.37248656765,-,-
2019_Apr_10,3,001,2,source,4,SUMMER,HF,target,right,yellow,pleasantness,conservative,no,9,1,1.02666122627,-,-
2019_Apr_10,3,001,2,source,5,TOGETHER,HF,target,right,yellow,pleasantness,conservative,yes,8,1,0.893426949156,-,-
2019_Apr_10,3,001,2,source,6,BUDDIES,LF,target,left,aqua,imageability,conservative,no,8,0,1.62634470097,-,-
2019_Apr_10,3,001,2,source,7,UNTIL,HF,target,left,aqua,imageability,liberal,no,3,1,0.920182392482,-,-
2019_Apr_10,3,001,2,source,8,ACCORDING,HF,target,right,yellow,pleasantness,liberal,no,3,0,0.90640580641,-,-
2019_Apr_10,3,001,2,source,9,SITTING,HF,target,right,yellow,pleasantness,liberal,no,9,1,1.51976578447,-,-
2019_Apr_10,3,001,2,source,10,APOSTLE,LF,target,right,yellow,pleasantness,conservative,no,9,1,1.03965034842,-,-
2019_Apr_10,3,001,2,source,11,SORRY,HF,target,right,yellow,pleasantness,liberal,no,1,0,1.26655837205,-,-
2019_Apr_10,3,001,2,source,12,DYEING,LF,target,left,aqua,imageability,liberal,no,3,1,1.43953941426,-,-
2019_Apr_10,3,001,2,source,13,ADVERSELY,LF,target,left,aqua,imageability,liberal,no,3,1,1.0132820382,-,-
2019_Apr_10,3,001,2,source,14,RAGES,LF,target,right,yellow,pleasantness,liberal,no,3,0,1.49310199198,-,-
2019_Apr_10,3,001,2,source,15,NUANCE,LF,target,left,aqua,imageability,liberal,no,3,1,0.933138886934,-,-
2019_Apr_10,3,001,2,source,16,HORDE,LF,target,right,yellow,pleasantness,liberal,no,8,1,0.906660595715,-,-
2019_Apr_10,3,001,2,source,17,CUFFED,LF,target,left,aqua,imageability,liberal,no,8,0,0.813325590671,-,-
2019_Apr_10,3,001,2,source,18,SOUND,HF,target,left,aqua,imageability,liberal,yes,7,0,0.800194959645,-,-
2019_Apr_10,3,001,2,source,19,COBALT,LF,target,right,yellow,pleasantness,conservative,no,7,1,1.27983087856,-,-
2019_Apr_10,3,001,2,source,20,BEQUEST,LF,target,right,yellow,pleasantness,conservative,no,3,0,1.08004930081,-,-
2019_Apr_10,3,001,2,source,21,LEVEL,HF,target,left,aqua,imageability,conservative,no,3,1,1.02657287487,-,-
2019_Apr_10,3,001,2,source,22,IGNOBLE,LF,target,right,yellow,pleasantness,liberal,no,7,1,1.20000153973,-,-
2019_Apr_10,3,001,2,source,23,STAFF,HF,target,right,yellow,pleasantness,conservative,no,7,1,0.786740984491,-,-
2019_Apr_10,3,001,2,source,24,MUMBLES,LF,target,left,aqua,imageability,conservative,no,2,1,1.05341813601,-,-
2019_Apr_10,3,001,2,source,25,EVIDENCE,HF,target,right,yellow,pleasantness,liberal,no,2,0,0.66651782572,-,-
2019_Apr_10,3,001,2,source,26,PASSED,HF,target,left,aqua,imageability,conservative,no,8,0,1.10660421212,-,-
2019_Apr_10,3,001,2,source,27,CERTAIN,HF,target,left,aqua,imageability,liberal,no,7,0,0.92000862251,-,-
2019_Apr_10,3,001,2,source,28,HEDGED,LF,target,left,aqua,imageability,conservative,yes,7,0,0.586814965041,-,-
2019_Apr_10,3,001,2,source,29,PELTED,LF,target,right,yellow,pleasantness,conservative,no,3,0,0.919995791393,-,-
2019_Apr_10,3,001,2,source,30,TRIED,HF,target,right,yellow,pleasantness,conservative,no,3,0,0.933313756716,-,-
2019_Apr_10,3,001,2,source,31,REDDENED,LF,target,right,yellow,pleasantness,conservative,no,3,0,1.18633383485,-,-
2019_Apr_10,3,001,2,source,32,NUMBER,HF,target,left,aqua,imageability,liberal,no,3,1,0.973506678046,-,-
2019_Apr_10,3,001,2,source,33,PRACTICE,HF,target,right,yellow,pleasantness,conservative,no,7,1,0.986701831257,-,-
2019_Apr_10,3,001,2,source,34,WHOLE,HF,target,left,aqua,imageability,liberal,no,2,1,1.11988881655,-,-
2019_Apr_10,3,001,2,source,35,SEEMED,HF,target,left,aqua,imageability,conservative,no,2,1,0.880091753478,-,-
2019_Apr_10,3,001,2,source,36,SALAMI,LF,target,left,aqua,imageability,liberal,no,1,1,0.999978003802,-,-
2019_Apr_10,3,001,2,source,37,MODERN,HF,target,left,aqua,imageability,conservative,no,9,0,1.5464222449,-,-
2019_Apr_10,3,001,2,source,38,OPENED,HF,target,right,yellow,pleasantness,conservative,no,9,1,0.946413593065,-,-
2019_Apr_10,3,001,2,source,39,TRADE,HF,target,right,yellow,pleasantness,liberal,no,8,1,0.773388191854,-,-
2019_Apr_10,3,001,2,source,40,SAMENESS,LF,target,left,aqua,imageability,conservative,no,2,1,1.74636549471,-,-
2019_Apr_10,3,001,2,source,41,IDIOCY,LF,target,right,yellow,pleasantness,liberal,no,8,1,1.54642371132,-,-
2019_Apr_10,3,001,2,source,42,MADDENED,LF,target,left,aqua,imageability,conservative,no,3,1,1.31984929671,-,-
2019_Apr_10,3,001,2,source,43,MOLARS,LF,target,right,yellow,pleasantness,liberal,no,3,0,1.493082562,-,-
2019_Apr_10,3,001,2,source,44,DECIDED,HF,target,left,aqua,imageability,conservative,yes,3,1,0.586797368082,-,-
2019_Apr_10,3,001,2,source,45,RAFTERS,LF,target,right,yellow,pleasantness,conservative,no,9,1,1.13324967446,-,-
2019_Apr_10,3,001,2,source,46,MOBILIZE,LF,target,left,aqua,imageability,conservative,no,2,1,1.13298132083,-,-
2019_Apr_10,3,001,2,source,47,IMPORTANT,HF,target,right,yellow,pleasantness,liberal,no,2,0,1.13332849417,-,-
2019_Apr_10,3,001,2,recog,0,TERMS,HF,lure,-,-,-,liberal,yes,m,1,0.999735679008,1,283
2019_Apr_10,3,001,2,recog,1,TRIED,HF,target,right,yellow,pleasantness,conservative,no,z,1,1.66666226743,1,284
2019_Apr_10,3,001,2,recog,2,IDIOCY,LF,target,right,yellow,pleasantness,liberal,no,z,1,1.06668624328,3,287
2019_Apr_10,3,001,2,recog,3,HOURS,HF,lure,-,-,-,liberal,no,m,1,0.986680934868,1,288
2019_Apr_10,3,001,2,recog,4,HOWEVER,HF,lure,-,-,-,conservative,no,m,1,1.38624555677,3,291
2019_Apr_10,3,001,2,recog,5,PRACTICE,HF,target,right,yellow,pleasantness,conservative,no,z,1,1.10665260376,1,292
2019_Apr_10,3,001,2,recog,6,MUMBLES,LF,target,left,aqua,imageability,conservative,no,z,1,0.933320355576,1,293
2019_Apr_10,3,001,2,recog,7,APOSTLE,LF,target,right,yellow,pleasantness,conservative,no,z,1,0.946383898196,1,294
2019_Apr_10,3,001,2,recog,8,CUSTODIAN,LF,lure,-,-,-,conservative,no,m,1,1.02662566575,3,297
2019_Apr_10,3,001,2,recog,9,TOGETHER,HF,target,right,yellow,pleasantness,conservative,yes,m,0,0.866823646207,-1,296
2019_Apr_10,3,001,2,recog,10,DECIDED,HF,target,left,aqua,imageability,conservative,no,z,1,1.11993794139,1,297
2019_Apr_10,3,001,2,recog,11,NUANCE,LF,target,left,aqua,imageability,liberal,no,z,1,0.973121011356,3,300
2019_Apr_10,3,001,2,recog,12,OBSCURELY,LF,lure,-,-,-,conservative,no,m,1,1.02662456594,3,303
2019_Apr_10,3,001,2,recog,13,MODERN,HF,target,left,aqua,imageability,conservative,no,z,1,1.01327983858,1,304
2019_Apr_10,3,001,2,recog,14,RAKING,LF,lure,-,-,-,liberal,no,z,0,1.22657148178,-1,303
2019_Apr_10,3,001,2,recog,15,SERIOUS,HF,lure,-,-,-,conservative,no,m,1,1.74640655428,3,306
2019_Apr_10,3,001,2,recog,16,VILLAGE,HF,lure,-,-,-,conservative,no,m,1,0.89344161329,3,309
2019_Apr_10,3,001,2,recog,17,EVENING,HF,lure,-,-,-,liberal,no,m,1,0.973458653012,1,310
2019_Apr_10,3,001,2,recog,18,MONEY,HF,lure,-,-,-,liberal,no,m,1,0.906423769972,1,311
2019_Apr_10,3,001,2,recog,19,SOUND,HF,target,left,aqua,imageability,liberal,no,z,1,0.973306879238,3,314
2019_Apr_10,3,001,2,recog,20,SUMMER,HF,target,right,yellow,pleasantness,conservative,no,z,1,1.29321336606,1,315
2019_Apr_10,3,001,2,recog,21,LOBBIES,LF,lure,-,-,-,liberal,no,z,0,1.07997488034,-1,314
2019_Apr_10,3,001,2,recog,22,TRADE,HF,target,right,yellow,pleasantness,liberal,no,z,1,0.774262174163,3,317
2019_Apr_10,3,001,2,recog,23,PASSED,HF,target,left,aqua,imageability,conservative,no,z,1,1.29318513761,1,318
2019_Apr_10,3,001,2,recog,24,MADDENED,LF,target,left,aqua,imageability,conservative,no,z,1,0.853395333286,1,319
2019_Apr_10,3,001,2,recog,25,LOGGED,LF,lure,-,-,-,liberal,no,m,1,1.0263771087,1,320
2019_Apr_10,3,001,2,recog,26,EAVES,LF,lure,-,-,-,liberal,no,m,1,0.973317877338,1,321
2019_Apr_10,3,001,2,recog,27,TRYING,HF,lure,-,-,-,liberal,no,z,0,1.03997075972,-1,320
2019_Apr_10,3,001,2,recog,28,EXCEPT,HF,lure,-,-,-,conservative,no,m,1,1.41322829415,3,323
2019_Apr_10,3,001,2,recog,29,TALKING,HF,lure,-,-,-,conservative,no,m,1,1.07998331222,3,326
2019_Apr_10,3,001,2,recog,30,SEEMED,HF,target,left,aqua,imageability,conservative,no,m,0,0.893374524882,-1,325
2019_Apr_10,3,001,2,recog,31,SIGNPOST,LF,lure,-,-,-,conservative,no,m,1,1.22641677518,3,328
2019_Apr_10,3,001,2,recog,32,ACCORDING,HF,target,right,yellow,pleasantness,liberal,no,z,1,1.10661337721,3,331
2019_Apr_10,3,001,2,recog,33,AREAS,HF,target,left,aqua,imageability,conservative,no,z,1,1.23985058715,1,332
2019_Apr_10,3,001,2,recog,34,LOOKED,HF,lure,-,-,-,liberal,no,z,0,0.973301013584,-1,331
2019_Apr_10,3,001,2,recog,35,JOWLS,LF,target,left,aqua,imageability,liberal,no,z,1,0.773462612327,3,334
2019_Apr_10,3,001,2,recog,36,SAMENESS,LF,target,left,aqua,imageability,conservative,no,z,1,1.42646633995,1,335
2019_Apr_10,3,001,2,recog,37,KILOWATT,LF,lure,-,-,-,liberal,no,m,1,1.02670998452,1,336
2019_Apr_10,3,001,2,recog,38,HEDGED,LF,target,left,aqua,imageability,conservative,no,z,1,1.0664002927,1,337
2019_Apr_10,3,001,2,recog,39,ADVERSELY,LF,target,left,aqua,imageability,liberal,no,z,1,1.0265974373,3,340
2019_Apr_10,3,001,2,recog,40,MALIGNED,LF,lure,-,-,-,liberal,no,m,1,1.23984325509,1,341
2019_Apr_10,3,001,2,recog,41,THUDDING,LF,target,right,yellow,pleasantness,liberal,no,z,1,1.00007662009,3,344
2019_Apr_10,3,001,2,recog,42,ICONS,LF,lure,-,-,-,conservative,no,m,1,1.3596407874,3,347
2019_Apr_10,3,001,2,recog,43,ORCHARDS,LF,lure,-,-,-,liberal,no,m,1,1.57361761221,1,348
2019_Apr_10,3,001,2,recog,44,DEJECTED,LF,lure,-,-,-,conservative,no,m,1,1.06626721569,3,351
2019_Apr_10,3,001,2,recog,45,CERTAIN,HF,target,left,aqua,imageability,liberal,no,z,1,1.01342941273,3,354
2019_Apr_10,3,001,2,recog,46,IMPORTANT,HF,target,right,yellow,pleasantness,liberal,no,z,1,0.920067645645,3,357
2019_Apr_10,3,001,2,recog,47,MOVED,HF,lure,-,-,-,liberal,no,m,1,1.1465925688,1,358
2019_Apr_10,3,001,2,recog,48,MOLARS,LF,target,right,yellow,pleasantness,liberal,no,z,1,0.933302392014,3,361
2019_Apr_10,3,001,2,recog,49,PELTED,LF,target,right,yellow,pleasantness,conservative,no,z,1,1.07992245607,1,362
2019_Apr_10,3,001,2,recog,50,DYEING,LF,target,left,aqua,imageability,liberal,yes,z,1,1.01329523592,3,365
2019_Apr_10,3,001,2,recog,51,COMES,HF,lure,-,-,-,conservative,no,m,1,1.35995350003,3,368
2019_Apr_10,3,001,2,recog,52,EMBATTLED,LF,lure,-,-,-,conservative,no,m,1,1.09334673635,3,371
2019_Apr_10,3,001,2,recog,53,GODMOTHER,LF,lure,-,-,-,liberal,no,m,1,1.05304163441,1,372
2019_Apr_10,3,001,2,recog,54,SOAPY,LF,lure,-,-,-,conservative,no,m,1,0.959972050163,3,375
2019_Apr_10,3,001,2,recog,55,BEQUEST,LF,target,right,yellow,pleasantness,conservative,no,z,1,0.946437788883,1,376
2019_Apr_10,3,001,2,recog,56,NUTSHELL,LF,lure,-,-,-,liberal,no,m,1,1.05323520096,1,377
2019_Apr_10,3,001,2,recog,57,SEVEN,HF,lure,-,-,-,liberal,no,m,1,0.946420558527,1,378
2019_Apr_10,3,001,2,recog,58,DESERTER,LF,lure,-,-,-,liberal,no,m,1,0.946764799042,1,379
2019_Apr_10,3,001,2,recog,59,COBALT,LF,target,right,yellow,pleasantness,conservative,no,z,1,1.03973063455,1,380
2019_Apr_10,3,001,2,recog,60,WHOLE,HF,target,left,aqua,imageability,liberal,no,z,1,0.945282621829,3,383
2019_Apr_10,3,001,2,recog,61,CUFFED,LF,target,left,aqua,imageability,liberal,no,z,1,0.933332820088,3,386
2019_Apr_10,3,001,2,recog,62,SALAMI,LF,target,left,aqua,imageability,liberal,no,z,1,0.986669936769,3,389
2019_Apr_10,3,001,2,recog,63,AVAILABLE,HF,lure,-,-,-,conservative,no,m,1,1.19964006886,3,392
2019_Apr_10,3,001,2,recog,64,SITTING,HF,target,right,yellow,pleasantness,liberal,no,z,1,1.07969736163,3,395
2019_Apr_10,3,001,2,recog,65,OUGHT,HF,lure,-,-,-,liberal,no,m,1,0.893433548016,1,396
2019_Apr_10,3,001,2,recog,66,SORRY,HF,target,right,yellow,pleasantness,liberal,no,z,1,0.893332365501,3,399
2019_Apr_10,3,001,2,recog,67,NUMBER,HF,target,left,aqua,imageability,liberal,no,z,1,1.15993436334,3,402
2019_Apr_10,3,001,2,recog,68,HUNDRED,HF,target,left,aqua,imageability,liberal,no,z,1,1.19987982743,3,405
2019_Apr_10,3,001,2,recog,69,LEVEL,HF,target,left,aqua,imageability,conservative,no,m,0,1.14662263028,-1,404
2019_Apr_10,3,001,2,recog,70,BUDDIES,LF,target,left,aqua,imageability,conservative,no,z,1,1.01328020518,1,405
2019_Apr_10,3,001,2,recog,71,FORCE,HF,lure,-,-,-,conservative,no,m,1,1.21329714225,3,408
2019_Apr_10,3,001,2,recog,72,REDDENED,LF,target,right,yellow,pleasantness,conservative,no,z,1,1.13328413517,1,409
2019_Apr_10,3,001,2,recog,73,RAFTERS,LF,target,right,yellow,pleasantness,conservative,no,z,1,1.04002465041,1,410
2019_Apr_10,3,001,2,recog,74,THANK,HF,lure,-,-,-,liberal,yes,z,0,0.999970671734,-1,409
2019_Apr_10,3,001,2,recog,75,BIBLES,LF,lure,-,-,-,conservative,no,m,1,1.05325279792,3,412
2019_Apr_10,3,001,2,recog,76,BATCHES,LF,lure,-,-,-,liberal,no,m,1,1.13302421342,1,413
2019_Apr_10,3,001,2,recog,77,UNTIL,HF,target,left,aqua,imageability,liberal,no,z,1,1.1733443461,3,416
2019_Apr_10,3,001,2,recog,78,APPEARED,HF,lure,-,-,-,liberal,no,m,1,0.99991494803,1,417
2019_Apr_10,3,001,2,recog,79,MOBILIZE,LF,target,left,aqua,imageability,conservative,no,z,1,1.13320604866,1,418
2019_Apr_10,3,001,2,recog,80,GETTING,HF,lure,-,-,-,conservative,no,m,1,1.41314397539,3,421
2019_Apr_10,3,001,2,recog,81,BEREAVED,LF,lure,-,-,-,conservative,no,m,1,1.01329963516,3,424
2019_Apr_10,3,001,2,recog,82,EVIDENCE,HF,target,right,yellow,pleasantness,liberal,no,z,1,1.013304401,3,427
2019_Apr_10,3,001,2,recog,83,HORDE,LF,target,right,yellow,pleasantness,liberal,no,z,1,1.10635162244,3,430
2019_Apr_10,3,001,2,recog,84,SAYING,HF,lure,-,-,-,conservative,no,m,1,0.946619257526,3,433
2019_Apr_10,3,001,2,recog,85,BLEACH,LF,lure,-,-,-,liberal,no,m,1,0.973320810164,1,434
2019_Apr_10,3,001,2,recog,86,SHORT,HF,lure,-,-,-,conservative,no,m,1,0.906413871683,3,437
2019_Apr_10,3,001,2,recog,87,SNIGGERED,LF,lure,-,-,-,conservative,no,m,1,1.04007230884,3,440
2019_Apr_10,3,001,2,recog,88,GROUND,HF,lure,-,-,-,liberal,no,z,0,0.920028785692,-1,439
2019_Apr_10,3,001,2,recog,89,GIBBERISH,LF,lure,-,-,-,conservative,no,m,1,1.06653007027,3,442
2019_Apr_10,3,001,2,recog,90,OPENED,HF,target,right,yellow,pleasantness,conservative,no,z,1,1.13335195678,1,443
2019_Apr_10,3,001,2,recog,91,STAFF,HF,target,right,yellow,pleasantness,conservative,no,m,0,0.946665816147,-1,442
2019_Apr_10,3,001,2,recog,92,UNSAVOURY,LF,lure,-,-,-,conservative,no,m,1,1.03974639849,3,445
2019_Apr_10,3,001,2,recog,93,RAGES,LF,target,right,yellow,pleasantness,liberal,no,z,1,1.11980449778,3,448
2019_Apr_10,3,001,2,recog,94,IGNOBLE,LF,target,right,yellow,pleasantness,liberal,no,z,1,1.00000073321,3,451
2019_Apr_10,3,001,2,recog,95,HARDLY,HF,lure,-,-,-,conservative,no,m,1,0.96003803876,3,454
2019_Apr_10,3,001,3,source,0,BUBBLED,LF,target,left,aqua,imageability,conservative,no,2,1,1.78639014512,-,-
2019_Apr_10,3,001,3,source,1,SEWED,LF,target,left,aqua,imageability,liberal,no,1,1,1.62635606567,-,-
2019_Apr_10,3,001,3,source,2,DUSTER,LF,target,right,yellow,pleasantness,liberal,no,8,1,1.18661685261,-,-
2019_Apr_10,3,001,3,source,3,MUSIC,HF,target,right,yellow,pleasantness,liberal,no,9,1,1.41311721335,-,-
2019_Apr_10,3,001,3,source,4,AFTERNOON,HF,target,left,aqua,imageability,liberal,no,3,1,1.11997570153,-,-
2019_Apr_10,3,001,3,source,5,THING,HF,target,right,yellow,pleasantness,liberal,no,3,0,0.840017978227,-,-
2019_Apr_10,3,001,3,source,6,BUTCHERED,LF,target,right,yellow,pleasantness,conservative,no,7,1,1.47973270219,-,-
2019_Apr_10,3,001,3,source,7,POINT,HF,target,left,aqua,imageability,conservative,no,7,0,1.0000777199,-,-
2019_Apr_10,3,001,3,source,8,MOMENT,HF,target,right,yellow,pleasantness,conservative,no,8,1,0.893237048638,-,-
2019_Apr_10,3,001,3,source,9,DULLED,LF,target,right,yellow,pleasantness,liberal,no,2,0,0.839829544121,-,-
2019_Apr_10,3,001,3,source,10,DIFFERENT,HF,target,left,aqua,imageability,conservative,no,2,1,0.839980218085,-,-
2019_Apr_10,3,001,3,source,11,EARLIER,HF,target,right,yellow,pleasantness,conservative,no,3,0,1.10667459996,-,-
2019_Apr_10,3,001,3,source,12,CLOSE,HF,target,left,aqua,imageability,conservative,no,7,0,0.893350329064,-,-
2019_Apr_10,3,001,3,source,13,CORNER,HF,target,left,aqua,imageability,liberal,no,3,1,1.07993602039,-,-
2019_Apr_10,3,001,3,source,14,KITCHEN,HF,target,left,aqua,imageability,liberal,yes,3,1,0.826458054715,-,-
2019_Apr_10,3,001,3,source,15,FAMILY,HF,target,right,yellow,pleasantness,liberal,no,8,1,1.03986041212,-,-
2019_Apr_10,3,001,3,source,16,LASER,LF,target,left,aqua,imageability,conservative,no,2,1,1.11995993759,-,-
2019_Apr_10,3,001,3,source,17,GATEHOUSE,LF,target,left,aqua,imageability,conservative,no,2,1,0.906456397667,-,-
2019_Apr_10,3,001,3,source,18,BAYING,LF,target,left,aqua,imageability,liberal,no,2,1,0.919768130733,-,-
2019_Apr_10,3,001,3,source,19,INUNDATED,LF,target,right,yellow,pleasantness,liberal,no,2,0,0.906482793107,-,-
2019_Apr_10,3,001,3,source,20,EITHER,HF,target,right,yellow,pleasantness,liberal,no,2,0,0.933334286502,-,-
2019_Apr_10,3,001,3,source,21,QUESTION,HF,target,right,yellow,pleasantness,conservative,no,7,1,1.03997442575,-,-
2019_Apr_10,3,001,3,source,22,UTTERANCE,LF,target,left,aqua,imageability,liberal,no,3,1,0.813435205064,-,-
2019_Apr_10,3,001,3,source,23,ATONEMENT,LF,target,right,yellow,pleasantness,conservative,no,7,1,0.760062894465,-,-
2019_Apr_10,3,001,3,source,24,OLDER,HF,target,left,aqua,imageability,liberal,no,8,0,0.853315780367,-,-
2019_Apr_10,3,001,3,source,25,EDUCATION,HF,target,right,yellow,pleasantness,conservative,no,7,1,0.70654504235,-,-
2019_Apr_10,3,001,3,source,26,PINAFORE,LF,target,left,aqua,imageability,conservative,no,8,0,0.466813234673,-,-
2019_Apr_10,3,001,3,source,27,POTASH,LF,target,right,yellow,pleasantness,liberal,yes,3,0,0.763092137679,-,-
2019_Apr_10,3,001,3,source,28,CITES,LF,target,left,aqua,imageability,conservative,no,3,1,0.826640623167,-,-
2019_Apr_10,3,001,3,source,29,HAVING,HF,target,right,yellow,pleasantness,liberal,no,2,0,0.653226622439,-,-
2019_Apr_10,3,001,3,source,30,NECESSARY,HF,target,right,yellow,pleasantness,conservative,no,2,0,1.30631283581,-,-
2019_Apr_10,3,001,3,source,31,SWAGGER,LF,target,right,yellow,pleasantness,liberal,no,9,1,1.07974575327,-,-
2019_Apr_10,3,001,3,source,32,GAMBITS,LF,target,right,yellow,pleasantness,conservative,no,9,1,1.01331356608,-,-
2019_Apr_10,3,001,3,source,33,FOAMING,LF,target,right,yellow,pleasantness,conservative,no,9,1,0.853372970484,-,-
2019_Apr_10,3,001,3,source,34,WIPERS,LF,target,right,yellow,pleasantness,liberal,no,3,0,1.1599185994,-,-
2019_Apr_10,3,001,3,source,35,INROADS,LF,target,right,yellow,pleasantness,conservative,no,3,0,1.29315287652,-,-
2019_Apr_10,3,001,3,source,36,FEELING,HF,target,right,yellow,pleasantness,liberal,no,3,0,0.800238218836,-,-
2019_Apr_10,3,001,3,source,37,TOUSLED,LF,target,left,aqua,imageability,liberal,yes,2,1,0.693187850473,-,-
2019_Apr_10,3,001,3,source,38,THEORY,HF,target,left,aqua,imageability,conservative,no,2,1,0.960058568546,-,-
2019_Apr_10,3,001,3,source,39,CASES,HF,target,right,yellow,pleasantness,conservative,no,8,1,0.959726792544,-,-
2019_Apr_10,3,001,3,source,40,DROLL,LF,target,right,yellow,pleasantness,conservative,no,8,1,0.893339330963,-,-
2019_Apr_10,3,001,3,source,41,EASILY,HF,target,left,aqua,imageability,liberal,no,8,0,1.14665269175,-,-
2019_Apr_10,3,001,3,source,42,GIPSY,LF,target,left,aqua,imageability,conservative,no,8,0,1.42621668309,-,-
2019_Apr_10,3,001,3,source,43,ALLOWED,HF,target,left,aqua,imageability,conservative,no,2,1,0.933111758289,-,-
2019_Apr_10,3,001,3,source,44,ORDER,HF,target,left,aqua,imageability,conservative,no,3,1,0.906458230685,-,-
2019_Apr_10,3,001,3,source,45,STICKER,LF,target,left,aqua,imageability,liberal,no,3,1,0.866717331245,-,-
2019_Apr_10,3,001,3,source,46,DOCTOR,HF,target,left,aqua,imageability,liberal,no,7,0,0.826784331667,-,-
2019_Apr_10,3,001,3,source,47,AUBURN,LF,target,left,aqua,imageability,liberal,yes,7,0,0.600224581192,-,-
2019_Apr_10,3,001,3,recog,0,NIPPED,LF,lure,-,-,-,conservative,no,z,0,1.45052944851,-3,451
2019_Apr_10,3,001,3,recog,1,ENSCONCED,LF,lure,-,-,-,conservative,yes,z,0,0.933475062177,-3,448
2019_Apr_10,3,001,3,recog,2,FEELING,HF,target,right,yellow,pleasantness,liberal,no,m,0,1.38650474531,-3,445
2019_Apr_10,3,001,3,recog,3,OBVIOUSLY,HF,lure,-,-,-,liberal,no,m,1,1.09325215269,1,446
2019_Apr_10,3,001,3,recog,4,KITCHEN,HF,target,left,aqua,imageability,liberal,no,m,0,0.986672502991,-3,443
2019_Apr_10,3,001,3,recog,5,CIVILITY,LF,lure,-,-,-,conservative,no,m,1,0.933348584032,3,446
2019_Apr_10,3,001,3,recog,6,GAMBITS,LF,target,right,yellow,pleasantness,conservative,no,z,1,1.10637215223,1,447
2019_Apr_10,3,001,3,recog,7,POTASH,LF,target,right,yellow,pleasantness,liberal,no,z,1,1.11994454025,3,450
2019_Apr_10,3,001,3,recog,8,DREADING,LF,lure,-,-,-,liberal,no,m,1,1.07995545036,1,451
2019_Apr_10,3,001,3,recog,9,TWENTY,HF,lure,-,-,-,liberal,no,m,1,0.88005106051,1,452
2019_Apr_10,3,001,3,recog,10,POINT,HF,target,left,aqua,imageability,conservative,no,m,0,0.853392400461,-1,451
2019_Apr_10,3,001,3,recog,11,THEORY,HF,target,left,aqua,imageability,conservative,no,z,1,1.06664261749,1,452
2019_Apr_10,3,001,3,recog,12,GATEHOUSE,LF,target,left,aqua,imageability,conservative,no,z,1,0.92000862251,1,453
2019_Apr_10,3,001,3,recog,13,ARGUABLE,LF,lure,-,-,-,liberal,no,z,0,1.46620467317,-1,452
2019_Apr_10,3,001,3,recog,14,BEHIND,HF,lure,-,-,-,liberal,no,m,1,1.50673926879,1,453
2019_Apr_10,3,001,3,recog,15,VAULTED,LF,lure,-,-,-,liberal,no,m,1,0.933336486121,1,454
2019_Apr_10,3,001,3,recog,16,CITES,LF,target,left,aqua,imageability,conservative,no,z,1,1.34627699667,1,455
2019_Apr_10,3,001,3,recog,17,QUESTION,HF,target,right,yellow,pleasantness,conservative,no,z,1,0.933421171489,1,456
2019_Apr_10,3,001,3,recog,18,NOBLEMAN,LF,lure,-,-,-,liberal,no,z,0,1.20001510406,-1,455
2019_Apr_10,3,001,3,recog,19,BRACES,LF,lure,-,-,-,liberal,no,z,0,1.0930761831,-1,454
2019_Apr_10,3,001,3,recog,20,DUSTER,LF,target,right,yellow,pleasantness,liberal,no,z,1,1.18655489665,3,457
2019_Apr_10,3,001,3,recog,21,TUSKS,LF,lure,-,-,-,conservative,no,m,1,1.10656205274,3,460
2019_Apr_10,3,001,3,recog,22,HIPPY,LF,lure,-,-,-,conservative,no,m,1,1.05324509925,3,463
2019_Apr_10,3,001,3,recog,23,LOLLED,LF,lure,-,-,-,liberal,no,m,1,0.999944642899,1,464
2019_Apr_10,3,001,3,recog,24,GIPSY,LF,target,left,aqua,imageability,conservative,no,z,1,1.03973979963,1,465
2019_Apr_10,3,001,3,recog,25,INROADS,LF,target,right,yellow,pleasantness,conservative,no,z,1,1.19987176216,1,466
2019_Apr_10,3,001,3,recog,26,DULLED,LF,target,right,yellow,pleasantness,liberal,no,m,0,1.11994893949,-3,463
2019_Apr_10,3,001,3,recog,27,PINAFORE,LF,target,left,aqua,imageability,conservative,no,z,1,1.35988897785,1,464
2019_Apr_10,3,001,3,recog,28,LEARN,HF,lure,-,-,-,conservative,no,z,0,2.13264954483,-3,461
2019_Apr_10,3,001,3,recog,29,AGONIZED,LF,lure,-,-,-,conservative,no,z,0,1.0265530783,-3,458
2019_Apr_10,3,001,3,recog,30,DIFFERENT,HF,target,left,aqua,imageability,conservative,no,z,1,1.41313700992,1,459
2019_Apr_10,3,001,3,recog,31,ECLECTIC,LF,lure,-,-,-,conservative,no,m,1,1.27984297647,3,462
2019_Apr_10,3,001,3,recog,32,GARDEN,HF,lure,-,-,-,conservative,no,m,1,1.4131344437,3,465
2019_Apr_10,3,001,3,recog,33,BREAK,HF,lure,-,-,-,conservative,no,m,1,1.01333996152,3,468
2019_Apr_10,3,001,3,recog,34,PEACEABLY,LF,lure,-,-,-,liberal,no,m,1,1.71969327034,1,469
2019_Apr_10,3,001,3,recog,35,INUNDATED,LF,target,right,yellow,pleasantness,liberal,no,z,1,1.02638993982,3,472
2019_Apr_10,3,001,3,recog,36,HAVING,HF,target,right,yellow,pleasantness,liberal,no,z,1,0.813404410384,3,475
2019_Apr_10,3,001,3,recog,37,OLDER,HF,target,left,aqua,imageability,liberal,no,z,1,0.920053348115,3,478
2019_Apr_10,3,001,3,recog,38,ORDER,HF,target,left,aqua,imageability,conservative,no,m,0,1.05336864457,-1,477
2019_Apr_10,3,001,3,recog,39,MOMENT,HF,target,right,yellow,pleasantness,conservative,no,m,0,1.13331639626,-1,476
2019_Apr_10,3,001,3,recog,40,FIDDLED,LF,lure,-,-,-,liberal,no,m,1,1.25320521281,1,477
2019_Apr_10,3,001,3,recog,41,THING,HF,target,right,yellow,pleasantness,liberal,no,z,1,1.05302220443,3,480
2019_Apr_10,3,001,3,recog,42,ATONEMENT,LF,target,right,yellow,pleasantness,conservative,no,z,1,1.15988193907,1,481
2019_Apr_10,3,001,3,recog,43,MOUTH,HF,lure,-,-,-,liberal,no,z,0,0.906457864081,-1,480
2019_Apr_10,3,001,3,recog,44,MUSIC,HF,target,right,yellow,pleasantness,liberal,no,z,1,1.23967718378,3,483
2019_Apr_10,3,001,3,recog,45,ALLOWED,HF,target,left,aqua,imageability,conservative,no,z,1,1.42648943596,1,484
2019_Apr_10,3,001,3,recog,46,COPIOUSLY,LF,lure,-,-,-,conservative,no,m,1,1.39982454365,3,487
2019_Apr_10,3,001,3,recog,47,INDEED,HF,lure,-,-,-,conservative,no,m,1,0.973266552873,3,490
2019_Apr_10,3,001,3,recog,48,INVOLVED,HF,lure,-,-,-,liberal,no,m,1,1.16001611588,1,491
2019_Apr_10,3,001,3,recog,49,SEWED,LF,target,left,aqua,imageability,liberal,no,z,1,1.01331136646,3,494
2019_Apr_10,3,001,3,recog,50,INCLUDING,HF,lure,-,-,-,conservative,no,z,0,1.33316762863,-3,491
2019_Apr_10,3,001,3,recog,51,FINAL,HF,lure,-,-,-,conservative,no,m,1,1.4798338847,3,494
2019_Apr_10,3,001,3,recog,52,OBTAINS,LF,lure,-,-,-,liberal,no,m,1,0.999957474015,1,495
2019_Apr_10,3,001,3,recog,53,ELATION,LF,lure,-,-,-,liberal,no,m,1,1.27986020682,1,496
2019_Apr_10,3,001,3,recog,54,SWAGGER,LF,target,right,yellow,pleasantness,liberal,no,z,1,1.09330494357,3,499
2019_Apr_10,3,001,3,recog,55,PREPARED,HF,lure,-,-,-,conservative,no,m,1,1.31985552896,3,502
2019_Apr_10,3,001,3,recog,56,GERANIUMS,LF,lure,-,-,-,conservative,no,m,1,1.06667891122,3,505
2019_Apr_10,3,001,3,recog,57,CORNER,HF,target,left,aqua,imageability,liberal,no,z,1,0.999955274395,3,508
2019_Apr_10,3,001,3,recog,58,SUBJECT,HF,lure,-,-,-,liberal,no,m,1,1.1601282965,1,509
2019_Apr_10,3,001,3,recog,59,PENALIZED,LF,lure,-,-,-,liberal,no,m,1,0.906728783933,1,510
2019_Apr_10,3,001,3,recog,60,BUBBLED,LF,target,left,aqua,imageability,conservative,no,z,1,1.09322209122,1,511
2019_Apr_10,3,001,3,recog,61,FAMILY,HF,target,right,yellow,pleasantness,liberal,no,z,1,0.986692666174,3,514
2019_Apr_10,3,001,3,recog,62,BAYING,LF,target,left,aqua,imageability,liberal,no,z,1,1.07998991108,3,517
2019_Apr_10,3,001,3,recog,63,WIPERS,LF,target,right,yellow,pleasantness,liberal,yes,z,1,0.81334978649,3,520
2019_Apr_10,3,001,3,recog,64,NERVY,LF,lure,-,-,-,liberal,no,m,1,0.933290294103,1,521
2019_Apr_10,3,001,3,recog,65,EARLIER,HF,target,right,yellow,pleasantness,conservative,no,z,1,1.35969064546,1,522
2019_Apr_10,3,001,3,recog,66,PLEASE,HF,lure,-,-,-,liberal,no,m,1,1.11992621008,1,523
2019_Apr_10,3,001,3,recog,67,POWER,HF,lure,-,-,-,liberal,no,m,1,0.80012823784,1,524
2019_Apr_10,3,001,3,recog,68,AUBURN,LF,target,left,aqua,imageability,liberal,no,z,1,0.933322188592,3,527
2019_Apr_10,3,001,3,recog,69,LASER,LF,target,left,aqua,imageability,conservative,no,z,1,1.34649109301,1,528
2019_Apr_10,3,001,3,recog,70,USUAL,HF,lure,-,-,-,liberal,no,m,1,0.946440355106,1,529
2019_Apr_10,3,001,3,recog,71,TOUSLED,LF,target,left,aqua,imageability,liberal,no,m,0,0.919762631684,-3,526
2019_Apr_10,3,001,3,recog,72,CANNOT,HF,lure,-,-,-,conservative,no,m,1,1.03995426257,3,529
2019_Apr_10,3,001,3,recog,73,CLOSE,HF,target,left,aqua,imageability,conservative,no,z,1,0.946486547125,1,530
2019_Apr_10,3,001,3,recog,74,EDUCATION,HF,target,right,yellow,pleasantness,conservative,no,z,1,1.19984060088,1,531
2019_Apr_10,3,001,3,recog,75,DROLL,LF,target,right,yellow,pleasantness,conservative,no,m,0,1.7063848367,-1,530
2019_Apr_10,3,001,3,recog,76,EITHER,HF,target,right,yellow,pleasantness,liberal,no,z,1,1.30648000692,3,533
2019_Apr_10,3,001,3,recog,77,ECONOMIC,HF,lure,-,-,-,conservative,no,m,1,1.35985415054,3,536
2019_Apr_10,3,001,3,recog,78,EASILY,HF,target,left,aqua,imageability,liberal,no,z,1,1.13328926761,3,539
2019_Apr_10,3,001,3,recog,79,STICKER,LF,target,left,aqua,imageability,liberal,no,z,1,0.893121568593,3,542
2019_Apr_10,3,001,3,recog,80,KNOWLEDGE,HF,lure,-,-,-,conservative,no,m,1,0.880029064311,3,545
2019_Apr_10,3,001,3,recog,81,BUTCHERED,LF,target,right,yellow,pleasantness,conservative,yes,m,0,0.800025222308,-1,544
2019_Apr_10,3,001,3,recog,82,DRINK,HF,lure,-,-,-,conservative,no,m,1,1.07993638699,3,547
2019_Apr_10,3,001,3,recog,83,AFTERNOON,HF,target,left,aqua,imageability,liberal,no,z,1,1.01329193649,3,550
2019_Apr_10,3,001,3,recog,84,CASES,HF,target,right,yellow,pleasantness,conservative,no,z,1,1.14693094367,1,551
2019_Apr_10,3,001,3,recog,85,MUGGING,LF,lure,-,-,-,conservative,no,m,1,1.13301724795,3,554
2019_Apr_10,3,001,3,recog,86,DOCTOR,HF,target,left,aqua,imageability,liberal,no,z,1,0.946949567115,3,557
2019_Apr_10,3,001,3,recog,87,ADHERE,LF,lure,-,-,-,conservative,no,m,1,1.25326496915,3,560
2019_Apr_10,3,001,3,recog,88,POSITION,HF,lure,-,-,-,liberal,no,m,1,1.03972660191,1,561
2019_Apr_10,3,001,3,recog,89,NECESSARY,HF,target,right,yellow,pleasantness,conservative,no,m,0,1.0399799248,-1,560
2019_Apr_10,3,001,3,recog,90,YOUNG,HF,lure,-,-,-,conservative,no,m,1,0.986645374346,3,563
2019_Apr_10,3,001,3,recog,91,FOAMING,LF,target,right,yellow,pleasantness,conservative,yes,m,0,0.639841568711,-1,562
2019_Apr_10,3,001,3,recog,92,UTTERANCE,LF,target,left,aqua,imageability,liberal,no,m,0,1.19007282208,-3,559
2019_Apr_10,3,001,3,recog,93,RIPEN,LF,lure,-,-,-,conservative,no,m,1,1.17325306187,3,562
2019_Apr_10,3,001,3,recog,94,WHITE,HF,lure,-,-,-,liberal,no,m,1,0.879994236996,1,563
2019_Apr_10,3,001,3,recog,95,RETURN,HF,lure,-,-,-,liberal,no,m,1,0.92000092384,1,564
2019_Apr_10,3,001,4,source,0,DYNAMISM,LF,target,left,aqua,imageability,liberal,no,3,1,1.07991952324,-,-
2019_Apr_10,3,001,4,source,1,EFFECT,HF,target,left,aqua,imageability,liberal,no,3,1,0.746818983013,-,-
2019_Apr_10,3,001,4,source,2,PAPER,HF,target,right,yellow,pleasantness,liberal,no,7,1,0.71984504411,-,-
2019_Apr_10,3,001,4,source,3,TAGGED,LF,target,left,aqua,imageability,conservative,no,8,0,0.800038053424,-,-
2019_Apr_10,3,001,4,source,4,FUTURE,HF,target,left,aqua,imageability,conservative,no,2,1,0.853340709392,-,-
2019_Apr_10,3,001,4,source,5,HEALTH,HF,target,right,yellow,pleasantness,conservative,no,2,0,0.706515714085,-,-
2019_Apr_10,3,001,4,source,6,GUARDSMEN,LF,target,right,yellow,pleasantness,liberal,no,7,1,0.733387004059,-,-
2019_Apr_10,3,001,4,source,7,LODGERS,LF,target,right,yellow,pleasantness,conservative,no,3,0,0.653516605664,-,-
2019_Apr_10,3,001,4,source,8,THOUSAND,HF,target,right,yellow,pleasantness,conservative,no,8,1,0.533360901903,-,-
2019_Apr_10,3,001,4,source,9,UNZIPPED,LF,target,right,yellow,pleasantness,liberal,no,9,1,0.653451350274,-,-
2019_Apr_10,3,001,4,source,10,DUBIOUSLY,LF,target,left,aqua,imageability,conservative,no,8,0,0.840039974425,-,-
2019_Apr_10,3,001,4,source,11,WEIRDLY,LF,target,right,yellow,pleasantness,liberal,no,7,1,0.840043640459,-,-
2019_Apr_10,3,001,4,source,12,ROLLERS,LF,target,right,yellow,pleasantness,conservative,no,8,1,0.520160982848,-,-
2019_Apr_10,3,001,4,source,13,SLEEP,HF,target,left,aqua,imageability,conservative,no,3,1,0.760045664109,-,-
2019_Apr_10,3,001,4,source,14,ELLIPSE,LF,target,left,aqua,imageability,liberal,no,2,1,0.760228599165,-,-
2019_Apr_10,3,001,4,source,15,LAXATIVE,LF,target,left,aqua,imageability,conservative,no,1,1,0.853414763262,-,-
2019_Apr_10,3,001,4,source,16,PHYSICAL,HF,target,right,yellow,pleasantness,liberal,no,9,1,0.813404043781,-,-
2019_Apr_10,3,001,4,source,17,HANDS,HF,target,left,aqua,imageability,conservative,no,7,0,0.946661416908,-,-
2019_Apr_10,3,001,4,source,18,SUFFERER,LF,target,right,yellow,pleasantness,conservative,no,7,1,0.813475164825,-,-
2019_Apr_10,3,001,4,source,19,CARRIED,HF,target,right,yellow,pleasantness,liberal,no,3,0,0.760051163159,-,-
2019_Apr_10,3,001,4,source,20,GIVEN,HF,target,left,aqua,imageability,liberal,no,3,1,0.680082148472,-,-
2019_Apr_10,3,001,4,source,21,SCHOOL,HF,target,left,aqua,imageability,conservative,no,8,0,0.79982432369,-,-
2019_Apr_10,3,001,4,source,22,PIQUE,LF,target,right,yellow,pleasantness,liberal,no,8,1,0.693415877737,-,-
2019_Apr_10,3,001,4,source,23,VEHEMENCE,LF,target,left,aqua,imageability,conservative,no,1,1,0.760081224631,-,-
2019_Apr_10,3,001,4,source,24,TAUNTED,LF,target,left,aqua,imageability,conservative,no,1,1,0.840037408202,-,-
2019_Apr_10,3,001,4,source,25,PALATABLE,LF,target,left,aqua,imageability,conservative,no,8,0,0.626943364186,-,-
2019_Apr_10,3,001,4,source,26,YORKER,LF,target,left,aqua,imageability,liberal,no,7,0,1.10637728467,-,-
2019_Apr_10,3,001,4,source,27,RELAXES,LF,target,left,aqua,imageability,liberal,no,2,1,1.13334205849,-,-
2019_Apr_10,3,001,4,source,28,SUING,LF,target,right,yellow,pleasantness,liberal,no,3,0,1.1063585879,-,-
2019_Apr_10,3,001,4,source,29,EXPECT,HF,target,right,yellow,pleasantness,liberal,no,7,1,0.666520758547,-,-
2019_Apr_10,3,001,4,source,30,ALREADY,HF,target,left,aqua,imageability,liberal,no,2,1,1.34647166303,-,-
2019_Apr_10,3,001,4,source,31,NEITHER,HF,target,left,aqua,imageability,liberal,no,2,1,1.09460345252,-,-
2019_Apr_10,3,001,4,source,32,BRING,HF,target,left,aqua,imageability,liberal,no,2,1,0.719856775416,-,-
2019_Apr_10,3,001,4,source,33,WHATEVER,HF,target,right,yellow,pleasantness,conservative,no,3,0,0.759871527534,-,-
2019_Apr_10,3,001,4,source,34,LAPELS,LF,target,left,aqua,imageability,liberal,no,7,0,0.986414047653,-,-
2019_Apr_10,3,001,4,source,35,SOVIET,HF,target,right,yellow,pleasantness,liberal,yes,7,1,0.640147315878,-,-
2019_Apr_10,3,001,4,source,36,QUALITY,HF,target,left,aqua,imageability,conservative,no,8,0,0.693445572605,-,-
2019_Apr_10,3,001,4,source,37,POUNDS,HF,target,right,yellow,pleasantness,conservative,no,8,1,1.11994014101,-,-
2019_Apr_10,3,001,4,source,38,ANEMONES,LF,target,right,yellow,pleasantness,conservative,no,8,1,1.026653161,-,-
2019_Apr_10,3,001,4,source,39,FOUND,HF,target,right,yellow,pleasantness,conservative,no,3,0,0.747004484292,-,-
2019_Apr_10,3,001,4,source,40,HATCHES,LF,target,right,yellow,pleasantness,liberal,no,9,1,1.22643290573,-,-
2019_Apr_10,3,001,4,source,41,TABLE,HF,target,left,aqua,imageability,liberal,no,3,1,0.893117169353,-,-
2019_Apr_10,3,001,4,source,42,CONCERNED,HF,target,left,aqua,imageability,conservative,yes,3,1,0.613200872222,-,-
2019_Apr_10,3,001,4,source,43,LUMBER,LF,target,right,yellow,pleasantness,conservative,no,7,1,0.948212882147,-,-
2019_Apr_10,3,001,4,source,44,MOODILY,LF,target,right,yellow,pleasantness,conservative,no,7,1,0.706499950142,-,-
2019_Apr_10,3,001,4,source,45,JEALOUSLY,LF,target,left,aqua,imageability,liberal,yes,7,0,0.533257886371,-,-
2019_Apr_10,3,001,4,source,46,WAITING,HF,target,right,yellow,pleasantness,liberal,no,3,0,0.600088571361,-,-
2019_Apr_10,3,001,4,source,47,BLOOD,HF,target,right,yellow,pleasantness,conservative,yes,3,0,0.533476015345,-,-
2019_Apr_10,3,001,4,recog,0,DEVELOPED,HF,lure,-,-,-,conservative,no,m,1,1.30633079937,3,567
2019_Apr_10,3,001,4,recog,1,TABLE,HF,target,left,aqua,imageability,liberal,no,z,1,0.999725780718,3,570
2019_Apr_10,3,001,4,recog,2,MIDDLE,HF,lure,-,-,-,conservative,no,m,1,0.919762265081,3,573
2019_Apr_10,3,001,4,recog,3,CARRIED,HF,target,right,yellow,pleasantness,liberal,no,m,0,1.01317535663,-3,570
2019_Apr_10,3,001,4,recog,4,TAUNTED,LF,target,left,aqua,imageability,conservative,no,z,1,0.986662238099,1,571
2019_Apr_10,3,001,4,recog,5,DAMASK,LF,lure,-,-,-,liberal,yes,z,0,0.720114864152,-1,570
2019_Apr_10,3,001,4,recog,6,ENOUGH,HF,lure,-,-,-,liberal,no,m,1,1.23998659698,1,571
2019_Apr_10,3,001,4,recog,7,EFFECT,HF,target,left,aqua,imageability,liberal,no,z,1,1.22652785599,3,574
2019_Apr_10,3,001,4,recog,8,GLUTINOUS,LF,lure,-,-,-,conservative,no,m,1,1.07995581697,3,577
2019_Apr_10,3,001,4,recog,9,RECENT,HF,lure,-,-,-,conservative,no,m,1,0.840062703831,3,580
2019_Apr_10,3,001,4,recog,10,WAITING,HF,target,right,yellow,pleasantness,liberal,no,z,1,0.946409927032,3,583
2019_Apr_10,3,001,4,recog,11,RUFFLES,LF,lure,-,-,-,liberal,no,m,1,0.81324933718,1,584
2019_Apr_10,3,001,4,recog,12,SUING,LF,target,right,yellow,pleasantness,liberal,no,z,1,0.945768371225,3,587
2019_Apr_10,3,001,4,recog,13,RELAXES,LF,target,left,aqua,imageability,liberal,no,z,1,1.01334509397,3,590
2019_Apr_10,3,001,4,recog,14,HEALTH,HF,target,right,yellow,pleasantness,conservative,no,z,1,1.41317953591,1,591
2019_Apr_10,3,001,4,recog,15,SCHOOL,HF,target,left,aqua,imageability,conservative,no,z,1,1.23985791922,1,592
2019_Apr_10,3,001,4,recog,16,ELLIPSE,LF,target,left,aqua,imageability,liberal,no,z,1,0.960032906314,3,595
2019_Apr_10,3,001,4,recog,17,SEDAN,LF,lure,-,-,-,conservative,no,m,1,0.960050869877,3,598
2019_Apr_10,3,001,4,recog,18,DELEGATED,LF,lure,-,-,-,conservative,no,m,1,0.959940888882,3,601
2019_Apr_10,3,001,4,recog,19,EXPECT,HF,target,right,yellow,pleasantness,liberal,no,z,1,1.55976293963,3,604
2019_Apr_10,3,001,4,recog,20,LOCAL,HF,lure,-,-,-,conservative,no,m,1,0.960025207644,3,607
2019_Apr_10,3,001,4,recog,21,DUMMIES,LF,lure,-,-,-,liberal,no,m,1,0.880031997138,1,608
2019_Apr_10,3,001,4,recog,22,LAXATIVE,LF,target,left,aqua,imageability,conservative,no,z,1,0.919975994815,1,609
2019_Apr_10,3,001,4,recog,23,DUBIOUSLY,LF,target,left,aqua,imageability,conservative,no,z,1,0.999986069074,1,610
2019_Apr_10,3,001,4,recog,24,GUARDSMEN,LF,target,right,yellow,pleasantness,liberal,no,z,1,0.906752979752,3,613
2019_Apr_10,3,001,4,recog,25,POUNDS,HF,target,right,yellow,pleasantness,conservative,no,z,1,0.880052893526,1,614
2019_Apr_10,3,001,4,recog,26,CLASS,HF,lure,-,-,-,conservative,yes,z,0,0.813386446822,-3,611
2019_Apr_10,3,001,4,recog,27,PIQUE,LF,target,right,yellow,pleasantness,liberal,no,z,1,1.33316616222,3,614
2019_Apr_10,3,001,4,recog,28,WRONG,HF,lure,-,-,-,liberal,no,m,1,0.813386446822,1,615
2019_Apr_10,3,001,4,recog,29,TURNED,HF,lure,-,-,-,liberal,no,m,1,0.920001290444,1,616
2019_Apr_10,3,001,4,recog,30,ANEMONES,LF,target,right,yellow,pleasantness,conservative,no,z,1,0.986711362943,1,617
2019_Apr_10,3,001,4,recog,31,NIGHT,HF,lure,-,-,-,liberal,no,m,1,1.22661987342,1,618
2019_Apr_10,3,001,4,recog,32,QUICKLY,HF,lure,-,-,-,liberal,no,m,1,1.10661044438,1,619
2019_Apr_10,3,001,4,recog,33,NADIR,LF,lure,-,-,-,conservative,no,z,0,1.17319807137,-3,616
2019_Apr_10,3,001,4,recog,34,SOVIET,HF,target,right,yellow,pleasantness,liberal,no,z,1,1.51972069226,3,619
2019_Apr_10,3,001,4,recog,35,HATCHES,LF,target,right,yellow,pleasantness,liberal,no,z,1,1.15996222519,3,622
2019_Apr_10,3,001,4,recog,36,LODGERS,LF,target,right,yellow,pleasantness,conservative,no,z,1,1.23987075033,1,623
2019_Apr_10,3,001,4,recog,37,MATERIAL,HF,lure,-,-,-,liberal,no,m,1,1.11974510805,1,624
2019_Apr_10,3,001,4,recog,38,BELIEVE,HF,lure,-,-,-,conservative,no,m,1,0.866706699749,3,627
2019_Apr_10,3,001,4,recog,39,FUTURE,HF,target,left,aqua,imageability,conservative,no,z,1,1.03998872328,1,628
2019_Apr_10,3,001,4,recog,40,ALREADY,HF,target,left,aqua,imageability,liberal,no,z,1,0.906715952817,3,631
2019_Apr_10,3,001,4,recog,41,MOODILY,LF,target,right,yellow,pleasantness,conservative,no,z,1,1.05327626053,1,632
2019_Apr_10,3,001,4,recog,42,JEALOUSLY,LF,target,left,aqua,imageability,liberal,no,z,1,2.39959285036,3,635
2019_Apr_10,3,001,4,recog,43,KNUCKLE,LF,lure,-,-,-,conservative,no,m,1,0.933047602708,3,638
2019_Apr_10,3,001,4,recog,44,MYRIADS,LF,lure,-,-,-,conservative,no,m,1,0.999736412215,3,641
2019_Apr_10,3,001,4,recog,45,DYNAMISM,LF,target,left,aqua,imageability,liberal,no,z,1,1.11995077251,3,644
2019_Apr_10,3,001,4,recog,46,MEANS,HF,lure,-,-,-,liberal,no,m,1,1.05338587492,1,645
2019_Apr_10,3,001,4,recog,47,GIVEN,HF,target,left,aqua,imageability,liberal,no,m,0,0.893083808452,-3,642
2019_Apr_10,3,001,4,recog,48,TAGGED,LF,target,left,aqua,imageability,conservative,no,m,0,1.73301050245,-1,641
2019_Apr_10,3,001,4,recog,49,SCYTHE,LF,lure,-,-,-,liberal,no,m,1,0.933417872058,1,642
2019_Apr_10,3,001,4,recog,50,HANDS,HF,target,left,aqua,imageability,conservative,no,z,1,1.08001960595,1,643
2019_Apr_10,3,001,4,recog,51,PHYSICAL,HF,target,right,yellow,pleasantness,liberal,no,z,1,0.906737949015,3,646
2019_Apr_10,3,001,4,recog,52,LOVELIEST,LF,lure,-,-,-,conservative,no,z,0,1.05307242908,-3,643
2019_Apr_10,3,001,4,recog,53,EMPATHY,LF,lure,-,-,-,conservative,no,m,1,0.95997938223,3,646
2019_Apr_10,3,001,4,recog,54,CONCERNED,HF,target,left,aqua,imageability,conservative,no,z,1,1.23990851048,1,647
2019_Apr_10,3,001,4,recog,55,YORKER,LF,target,left,aqua,imageability,liberal,no,z,1,0.986701464654,3,650
2019_Apr_10,3,001,4,recog,56,ALMOST,HF,lure,-,-,-,liberal,no,z,0,0.893396521082,-1,649
2019_Apr_10,3,001,4,recog,57,LUMBER,LF,target,right,yellow,pleasantness,conservative,yes,m,0,0.933163449356,-1,648
2019_Apr_10,3,001,4,recog,58,SIFTED,LF,lure,-,-,-,conservative,no,m,1,1.14658743636,3,651
2019_Apr_10,3,001,4,recog,59,BLOOD,HF,target,right,yellow,pleasantness,conservative,no,z,1,1.09322649046,1,652
2019_Apr_10,3,001,4,recog,60,PAPER,HF,target,right,yellow,pleasantness,liberal,no,z,1,0.799860617419,3,655
2019_Apr_10,3,001,4,recog,61,PALATABLE,LF,target,left,aqua,imageability,conservative,no,z,1,1.71945864421,1,656
2019_Apr_10,3,001,4,recog,62,SUFFERER,LF,target,right,yellow,pleasantness,conservative,no,z,1,1.02658790561,1,657
2019_Apr_10,3,001,4,recog,63,VALUE,HF,lure,-,-,-,conservative,no,m,1,0.813152553905,3,660
2019_Apr_10,3,001,4,recog,64,NOTHING,HF,lure,-,-,-,liberal,yes,m,1,0.92002401985,1,661
2019_Apr_10,3,001,4,recog,65,WEIRDLY,LF,target,right,yellow,pleasantness,liberal,no,z,1,1.18662528448,3,664
2019_Apr_10,3,001,4,recog,66,HOLED,LF,lure,-,-,-,liberal,no,m,1,0.999024835175,1,665
2019_Apr_10,3,001,4,recog,67,GREATER,HF,lure,-,-,-,liberal,no,m,1,1.0534936563,1,666
2019_Apr_10,3,001,4,recog,68,FERRET,LF,lure,-,-,-,liberal,no,m,1,0.853353540508,1,667
2019_Apr_10,3,001,4,recog,69,SNOBBISH,LF,lure,-,-,-,liberal,no,m,1,1.45316312674,1,668
2019_Apr_10,3,001,4,recog,70,BUILDING,HF,lure,-,-,-,conservative,no,m,1,1.10659541365,3,671
2019_Apr_10,3,001,4,recog,71,BRING,HF,target,left,aqua,imageability,liberal,no,m,0,0.986658572066,-3,668
2019_Apr_10,3,001,4,recog,72,BUCKED,LF,lure,-,-,-,conservative,no,m,1,0.986653439619,3,671
2019_Apr_10,3,001,4,recog,73,HAPPEN,HF,lure,-,-,-,liberal,no,m,1,0.920010088924,1,672
2019_Apr_10,3,001,4,recog,74,FOUND,HF,target,right,yellow,pleasantness,conservative,no,z,1,0.906659129302,1,673
2019_Apr_10,3,001,4,recog,75,VEHEMENCE,LF,target,left,aqua,imageability,conservative,no,z,1,0.919999457427,1,674
2019_Apr_10,3,001,4,recog,76,NEITHER,HF,target,left,aqua,imageability,liberal,no,z,1,0.920010088923,3,677
2019_Apr_10,3,001,4,recog,77,MARKET,HF,lure,-,-,-,conservative,no,m,1,0.866688736187,3,680
2019_Apr_10,3,001,4,recog,78,PICTURE,HF,lure,-,-,-,conservative,no,m,1,1.14657680486,3,683
2019_Apr_10,3,001,4,recog,79,LIGHT,HF,lure,-,-,-,liberal,no,m,1,0.840042174046,1,684
2019_Apr_10,3,001,4,recog,80,SLEEP,HF,target,left,aqua,imageability,conservative,no,z,1,0.973323376387,1,685
2019_Apr_10,3,001,4,recog,81,HYACINTHS,LF,lure,-,-,-,liberal,no,m,1,1.6796653205,1,686
2019_Apr_10,3,001,4,recog,82,DALES,LF,lure,-,-,-,liberal,no,m,1,0.933080963609,1,687
2019_Apr_10,3,001,4,recog,83,BLACK,HF,lure,-,-,-,conservative,no,m,1,0.853340342788,3,690
2019_Apr_10,3,001,4,recog,84,ORBITAL,LF,lure,-,-,-,conservative,no,m,1,0.866780020413,3,693
2019_Apr_10,3,001,4,recog,85,LAPELS,LF,target,left,aqua,imageability,liberal,no,z,1,0.973309812065,3,696
2019_Apr_10,3,001,4,recog,86,HILLSIDES,LF,lure,-,-,-,conservative,no,m,1,1.06642375531,3,699
2019_Apr_10,3,001,4,recog,87,QUALITY,HF,target,left,aqua,imageability,conservative,no,z,1,1.03993153316,1,700
2019_Apr_10,3,001,4,recog,88,UNZIPPED,LF,target,right,yellow,pleasantness,liberal,no,z,1,0.999978370404,3,703
2019_Apr_10,3,001,4,recog,89,THOUSAND,HF,target,right,yellow,pleasantness,conservative,no,m,0,0.893312202318,-1,702
2019_Apr_10,3,001,4,recog,90,ROLLERS,LF,target,right,yellow,pleasantness,conservative,no,z,1,1.45262458647,1,703
2019_Apr_10,3,001,4,recog,91,DETACH,LF,lure,-,-,-,liberal,no,m,1,1.39984030759,1,704
2019_Apr_10,3,001,4,recog,92,WHATEVER,HF,target,right,yellow,pleasantness,conservative,no,z,1,1.07991035816,1,705
2019_Apr_10,3,001,4,recog,93,OTHERS,HF,lure,-,-,-,conservative,no,z,0,1.70609045424,-3,702
2019_Apr_10,3,001,4,recog,94,CUISINE,LF,lure,-,-,-,liberal,no,m,1,1.37329749419,1,703
2019_Apr_10,3,001,4,recog,95,DINER,LF,lure,-,-,-,liberal,no,m,1,1.13324234239,1,704
