date,subj,session,cycle,task,trial,item,wf,type,source,colour,encoding,bias,null,response,corr,rt,points,total
2019_Nov_04,30,001,0,source,0,PUBLIC,HF,target,right,aqua,imageability,conservative,no,8,1,3.217999629,-,-
2019_Nov_04,30,001,0,source,1,BETTER,HF,target,left,yellow,pleasantness,conservative,no,2,1,3.03464010787,-,-
2019_Nov_04,30,001,0,source,2,SLOWLY,HF,target,right,aqua,imageability,liberal,yes,3,0,1.93442615739,-,-
2019_Nov_04,30,001,0,source,3,SUPPORT,HF,target,right,aqua,imageability,conservative,no,8,1,3.61844336728,-,-
2019_Nov_04,30,001,0,source,4,SECOND,HF,target,right,aqua,imageability,conservative,no,8,1,1.25098158398,-,-
2019_Nov_04,30,001,0,source,5,SULKED,LF,target,left,yellow,pleasantness,conservative,no,2,1,2.3680358862,-,-
2019_Nov_04,30,001,0,source,6,GLASS,HF,target,right,aqua,imageability,liberal,no,9,1,2.73464934631,-,-
2019_Nov_04,30,001,0,source,7,EXPECT,HF,target,left,yellow,pleasantness,liberal,no,3,1,2.98476904273,-,-
2019_Nov_04,30,001,0,source,8,DRINK,HF,target,left,yellow,pleasantness,liberal,no,1,1,3.43492877238,-,-
2019_Nov_04,30,001,0,source,9,UPTIGHT,LF,target,left,yellow,pleasantness,conservative,no,1,1,2.23457492556,-,-
2019_Nov_04,30,001,0,source,10,BACHELORS,LF,target,right,aqua,imageability,liberal,no,9,1,1.73407927606,-,-
2019_Nov_04,30,001,0,source,11,ATTACK,HF,target,left,yellow,pleasantness,conservative,no,1,1,3.30157999277,-,-
2019_Nov_04,30,001,0,source,12,APPEARED,HF,target,right,aqua,imageability,liberal,no,7,1,2.60110186697,-,-
2019_Nov_04,30,001,0,source,13,OMELETTE,LF,target,left,yellow,pleasantness,liberal,no,1,1,1.2507388917,-,-
2019_Nov_04,30,001,0,source,14,TAMING,LF,target,left,yellow,pleasantness,liberal,no,2,1,2.5512128382,-,-
2019_Nov_04,30,001,0,source,15,DEVELOPED,HF,target,right,aqua,imageability,conservative,no,9,1,1.98436687742,-,-
2019_Nov_04,30,001,0,source,16,USING,HF,target,right,aqua,imageability,liberal,no,7,1,2.10112313004,-,-
2019_Nov_04,30,001,0,source,17,FINAL,HF,target,right,aqua,imageability,conservative,no,9,1,1.22181305069,-,-
2019_Nov_04,30,001,0,source,18,BEGAN,HF,target,right,aqua,imageability,liberal,no,9,1,1.54675895817,-,-
2019_Nov_04,30,001,0,source,19,COMES,HF,target,left,yellow,pleasantness,liberal,no,2,1,2.45137172466,-,-
2019_Nov_04,30,001,0,source,20,FAILINGS,LF,target,left,yellow,pleasantness,liberal,no,2,1,4.2853188764,-,-
2019_Nov_04,30,001,0,source,21,HUNDRED,HF,target,left,yellow,pleasantness,conservative,no,1,1,1.21751827708,-,-
2019_Nov_04,30,001,0,source,22,AFRAID,HF,target,left,yellow,pleasantness,conservative,no,1,1,1.78426232177,-,-
2019_Nov_04,30,001,0,source,23,SPOKE,HF,target,left,yellow,pleasantness,conservative,no,3,1,2.33456927985,-,-
2019_Nov_04,30,001,0,source,24,EJECTED,LF,target,right,aqua,imageability,liberal,yes,7,1,1.55095071587,-,-
2019_Nov_04,30,001,0,source,25,RIPEN,LF,target,right,aqua,imageability,liberal,no,9,1,3.10146407238,-,-
2019_Nov_04,30,001,0,source,26,FACILE,LF,target,right,aqua,imageability,conservative,no,3,0,2.45125551098,-,-
2019_Nov_04,30,001,0,source,27,AIRBED,LF,target,right,aqua,imageability,liberal,no,9,1,2.38456352416,-,-
2019_Nov_04,30,001,0,source,28,LARGE,HF,target,left,yellow,pleasantness,liberal,no,1,1,2.08448404427,-,-
2019_Nov_04,30,001,0,source,29,BODICE,LF,target,left,yellow,pleasantness,liberal,yes,8,0,1.33415061733,-,-
2019_Nov_04,30,001,0,source,30,SOYBEAN,LF,target,left,yellow,pleasantness,conservative,no,1,1,1.26754038334,-,-
2019_Nov_04,30,001,0,source,31,ESTRANGED,LF,target,left,yellow,pleasantness,conservative,no,1,1,3.851992533,-,-
2019_Nov_04,30,001,0,source,32,SEWED,LF,target,left,yellow,pleasantness,liberal,no,1,1,2.21777233411,-,-
2019_Nov_04,30,001,0,source,33,SOUND,HF,target,left,yellow,pleasantness,liberal,no,1,1,2.16784994431,-,-
2019_Nov_04,30,001,0,source,34,VOYAGES,LF,target,right,aqua,imageability,liberal,no,9,1,2.9805512561,-,-
2019_Nov_04,30,001,0,source,35,PRACTICE,HF,target,right,aqua,imageability,conservative,no,9,1,1.08409874277,-,-
2019_Nov_04,30,001,0,source,36,BECAME,HF,target,left,yellow,pleasantness,liberal,no,8,0,3.06815473943,-,-
2019_Nov_04,30,001,0,source,37,MORNING,HF,target,right,aqua,imageability,liberal,no,8,1,2.91787945599,-,-
2019_Nov_04,30,001,0,source,38,GOVERNS,LF,target,left,yellow,pleasantness,conservative,no,3,1,1.53420348172,-,-
2019_Nov_04,30,001,0,source,39,REBATE,LF,target,right,aqua,imageability,conservative,yes,2,0,1.06740026703,-,-
2019_Nov_04,30,001,0,source,40,SIMILAR,HF,target,left,yellow,pleasantness,conservative,no,2,1,3.43490787591,-,-
2019_Nov_04,30,001,0,source,41,RIOTERS,LF,target,right,aqua,imageability,liberal,no,9,1,1.95081741841,-,-
2019_Nov_04,30,001,0,source,42,DIETING,LF,target,right,aqua,imageability,conservative,no,9,1,1.48423050048,-,-
2019_Nov_04,30,001,0,source,43,DOWDY,LF,target,left,yellow,pleasantness,liberal,no,7,0,3.43499842727,-,-
2019_Nov_04,30,001,0,source,44,LOITERING,LF,target,right,aqua,imageability,conservative,no,9,1,2.0011559045,-,-
2019_Nov_04,30,001,0,source,45,AVENGE,LF,target,right,aqua,imageability,conservative,no,2,0,4.2686383643,-,-
2019_Nov_04,30,001,0,source,46,ORBITAL,LF,target,right,aqua,imageability,conservative,no,9,1,1.93409731301,-,-
2019_Nov_04,30,001,0,source,47,INUNDATED,LF,target,left,yellow,pleasantness,conservative,no,3,1,2.66784811129,-,-
2019_Nov_04,30,001,0,recog,0,WAFER,LF,lure,-,-,-,conservative,no,z,0,2.11779117759,-3,-3
2019_Nov_04,30,001,0,recog,1,JEWELLED,LF,lure,-,-,-,liberal,no,z,0,2.88480621644,-1,-4
2019_Nov_04,30,001,0,recog,2,CAUGHT,HF,lure,-,-,-,liberal,no,z,0,3.38923370094,-1,-5
2019_Nov_04,30,001,0,recog,3,PHANTOMS,LF,lure,-,-,-,conservative,no,z,0,1.95101465172,-3,-8
2019_Nov_04,30,001,0,recog,4,DRINK,HF,target,left,yellow,pleasantness,liberal,no,z,1,5.21907341405,3,-5
2019_Nov_04,30,001,0,recog,5,RALLIED,LF,lure,-,-,-,conservative,no,m,1,1.95101428512,3,-2
2019_Nov_04,30,001,0,recog,6,HANDS,HF,lure,-,-,-,conservative,no,m,1,0.850615199283,3,1
2019_Nov_04,30,001,0,recog,7,DOWDY,LF,target,left,yellow,pleasantness,liberal,no,z,1,1.85101919762,3,4
2019_Nov_04,30,001,0,recog,8,GLEANED,LF,lure,-,-,-,conservative,no,m,1,2.96814022188,3,7
2019_Nov_04,30,001,0,recog,9,SOYBEAN,LF,target,left,yellow,pleasantness,conservative,no,z,1,1.16750460272,1,8
2019_Nov_04,30,001,0,recog,10,EXPECT,HF,target,left,yellow,pleasantness,liberal,no,m,0,4.45205434254,-3,5
2019_Nov_04,30,001,0,recog,11,HISTORY,HF,lure,-,-,-,conservative,no,m,1,1.61747553097,3,8
2019_Nov_04,30,001,0,recog,12,FACILE,LF,target,right,aqua,imageability,conservative,no,z,1,1.15070897676,1,9
2019_Nov_04,30,001,0,recog,13,OMELETTE,LF,target,left,yellow,pleasantness,liberal,no,z,1,0.883896670276,3,12
2019_Nov_04,30,001,0,recog,14,DIETING,LF,target,right,aqua,imageability,conservative,no,z,1,1.00071267946,1,13
2019_Nov_04,30,001,0,recog,15,BEGAN,HF,target,right,aqua,imageability,liberal,no,z,1,0.817305133125,3,16
2019_Nov_04,30,001,0,recog,16,HUNDRED,HF,target,left,yellow,pleasantness,conservative,no,z,1,0.650498179075,1,17
2019_Nov_04,30,001,0,recog,17,SOUND,HF,target,left,yellow,pleasantness,liberal,no,z,1,1.9510601107,3,20
2019_Nov_04,30,001,0,recog,18,AVENGE,LF,target,right,aqua,imageability,conservative,no,z,1,1.40087046611,1,21
2019_Nov_04,30,001,0,recog,19,BIJOU,LF,lure,-,-,-,liberal,no,m,1,1.21741672758,1,22
2019_Nov_04,30,001,0,recog,20,SIMILAR,HF,target,left,yellow,pleasantness,conservative,no,z,1,1.55114904899,1,23
2019_Nov_04,30,001,0,recog,21,GUMMED,LF,lure,-,-,-,conservative,no,m,1,1.0838894115,3,26
2019_Nov_04,30,001,0,recog,22,FAILINGS,LF,target,left,yellow,pleasantness,liberal,yes,m,0,1.04626294206,-3,23
2019_Nov_04,30,001,0,recog,23,COMES,HF,target,left,yellow,pleasantness,liberal,no,z,1,3.35171281364,3,26
2019_Nov_04,30,001,0,recog,24,VEGAN,LF,lure,-,-,-,liberal,no,m,1,1.85099903436,1,27
2019_Nov_04,30,001,0,recog,25,DURING,HF,lure,-,-,-,conservative,no,m,1,1.36742988869,3,30
2019_Nov_04,30,001,0,recog,26,OPENED,HF,lure,-,-,-,conservative,no,m,1,0.883884205718,3,33
2019_Nov_04,30,001,0,recog,27,ESTRANGED,LF,target,left,yellow,pleasantness,conservative,no,z,1,1.23414856434,1,34
2019_Nov_04,30,001,0,recog,28,PUBLIC,HF,target,right,aqua,imageability,conservative,no,z,1,0.850676055656,1,35
2019_Nov_04,30,001,0,recog,29,TOGETHER,HF,lure,-,-,-,liberal,no,m,1,0.833922955831,1,36
2019_Nov_04,30,001,0,recog,30,AMONG,HF,lure,-,-,-,conservative,no,m,1,1.48430932048,3,39
2019_Nov_04,30,001,0,recog,31,FINAL,HF,target,right,aqua,imageability,conservative,no,z,1,0.900646837265,1,40
2019_Nov_04,30,001,0,recog,32,EQUALLED,LF,lure,-,-,-,liberal,no,m,1,1.2340671781,1,41
2019_Nov_04,30,001,0,recog,33,BECAME,HF,target,left,yellow,pleasantness,liberal,no,z,1,1.30074560056,3,44
2019_Nov_04,30,001,0,recog,34,SPOKE,HF,target,left,yellow,pleasantness,conservative,yes,z,1,1.18403224068,1,45
2019_Nov_04,30,001,0,recog,35,BETTER,HF,target,left,yellow,pleasantness,conservative,no,m,0,4.00179489642,-1,44
2019_Nov_04,30,001,0,recog,36,NOMAD,LF,lure,-,-,-,liberal,no,m,1,1.08401955616,1,45
2019_Nov_04,30,001,0,recog,37,NECESSARY,HF,lure,-,-,-,conservative,no,m,1,0.917249629179,3,48
2019_Nov_04,30,001,0,recog,38,RINSING,LF,lure,-,-,-,conservative,no,m,1,1.16734146365,3,51
2019_Nov_04,30,001,0,recog,39,UPTIGHT,LF,target,left,yellow,pleasantness,conservative,no,m,0,0.667151195828,-1,50
2019_Nov_04,30,001,0,recog,40,MESSED,LF,lure,-,-,-,liberal,no,m,1,1.61761227451,1,51
2019_Nov_04,30,001,0,recog,41,CUTLER,LF,lure,-,-,-,conservative,no,m,1,0.650509910424,3,54
2019_Nov_04,30,001,0,recog,42,SAFARI,LF,lure,-,-,-,liberal,no,m,1,0.650539605402,1,55
2019_Nov_04,30,001,0,recog,43,JUMBO,LF,lure,-,-,-,conservative,no,m,1,0.967064237202,3,58
2019_Nov_04,30,001,0,recog,44,ENDEARING,LF,lure,-,-,-,liberal,no,m,1,1.33408756132,1,59
2019_Nov_04,30,001,0,recog,45,TAMING,LF,target,left,yellow,pleasantness,liberal,no,m,0,1.28415783944,-3,56
2019_Nov_04,30,001,0,recog,46,SULKED,LF,target,left,yellow,pleasantness,conservative,no,z,1,1.40084150434,1,57
2019_Nov_04,30,001,0,recog,47,USING,HF,target,right,aqua,imageability,liberal,no,z,1,2.23455146286,3,60
2019_Nov_04,30,001,0,recog,48,QUALITY,HF,lure,-,-,-,liberal,no,m,1,0.800542868183,1,61
2019_Nov_04,30,001,0,recog,49,GLASS,HF,target,right,aqua,imageability,liberal,yes,z,1,1.00075813844,3,64
2019_Nov_04,30,001,0,recog,50,HOTEL,HF,lure,-,-,-,conservative,no,m,1,1.70088542358,3,67
2019_Nov_04,30,001,0,recog,51,RIOTERS,LF,target,right,aqua,imageability,liberal,no,z,1,3.51837715848,3,70
2019_Nov_04,30,001,0,recog,52,AFRAID,HF,target,left,yellow,pleasantness,conservative,no,z,1,0.75052296155,1,71
2019_Nov_04,30,001,0,recog,53,SPEAK,HF,lure,-,-,-,liberal,no,m,1,0.817313931637,1,72
2019_Nov_04,30,001,0,recog,54,SNEAKED,LF,lure,-,-,-,liberal,no,m,1,3.43499622764,1,73
2019_Nov_04,30,001,0,recog,55,AIRBED,LF,target,right,aqua,imageability,liberal,no,z,1,0.883967058371,3,76
2019_Nov_04,30,001,0,recog,56,LIVED,HF,lure,-,-,-,conservative,no,m,1,0.850750109798,3,79
2019_Nov_04,30,001,0,recog,57,SUBJECT,HF,lure,-,-,-,liberal,yes,z,0,1.06737350489,-1,78
2019_Nov_04,30,001,0,recog,58,TOWARDS,HF,lure,-,-,-,conservative,no,m,1,1.90121800733,3,81
2019_Nov_04,30,001,0,recog,59,INUNDATED,LF,target,left,yellow,pleasantness,conservative,no,m,0,1.00065878858,-1,80
2019_Nov_04,30,001,0,recog,60,SKATES,LF,lure,-,-,-,liberal,no,m,1,0.783885818778,1,81
2019_Nov_04,30,001,0,recog,61,MORNING,HF,target,right,aqua,imageability,liberal,no,z,1,2.73474246389,3,84
2019_Nov_04,30,001,0,recog,62,SEWED,LF,target,left,yellow,pleasantness,liberal,no,m,0,1.03392999464,-3,81
2019_Nov_04,30,001,0,recog,63,LARGE,HF,target,left,yellow,pleasantness,liberal,no,z,1,0.750539825364,3,84
2019_Nov_04,30,001,0,recog,64,DEVELOPED,HF,target,right,aqua,imageability,conservative,no,z,1,0.817289369125,1,85
2019_Nov_04,30,001,0,recog,65,SOVIET,HF,lure,-,-,-,conservative,no,m,1,0.750396116337,3,88
2019_Nov_04,30,001,0,recog,66,EDUCATION,HF,lure,-,-,-,liberal,no,m,1,0.833738920291,1,89
2019_Nov_04,30,001,0,recog,67,HAPPEN,HF,lure,-,-,-,liberal,no,m,1,2.13451054978,1,90
2019_Nov_04,30,001,0,recog,68,CANNOT,HF,lure,-,-,-,conservative,no,m,1,0.667181990619,3,93
2019_Nov_04,30,001,0,recog,69,APPEARED,HF,target,right,aqua,imageability,liberal,no,m,0,1.35501885448,-3,90
2019_Nov_04,30,001,0,recog,70,BEAUTIFUL,HF,lure,-,-,-,liberal,no,m,1,1.63400426874,1,91
2019_Nov_04,30,001,0,recog,71,BACHELORS,LF,target,right,aqua,imageability,liberal,no,z,1,0.950614319432,3,94
2019_Nov_04,30,001,0,recog,72,WHOLE,HF,lure,-,-,-,conservative,no,m,1,0.850709783285,3,97
2019_Nov_04,30,001,0,recog,73,ASHEN,LF,lure,-,-,-,conservative,no,m,1,0.767417937379,3,100
2019_Nov_04,30,001,0,recog,74,BODICE,LF,target,left,yellow,pleasantness,liberal,no,m,0,0.683852604396,-3,97
2019_Nov_04,30,001,0,recog,75,REBATE,LF,target,right,aqua,imageability,conservative,no,m,0,0.884083272049,-1,96
2019_Nov_04,30,001,0,recog,76,EJECTED,LF,target,right,aqua,imageability,liberal,no,m,0,1.28414867432,-3,93
2019_Nov_04,30,001,0,recog,77,REEDY,LF,lure,-,-,-,liberal,no,m,1,0.967440373585,1,94
2019_Nov_04,30,001,0,recog,78,RIPEN,LF,target,right,aqua,imageability,liberal,no,z,1,1.28414977413,3,97
2019_Nov_04,30,001,0,recog,79,VOYAGES,LF,target,right,aqua,imageability,liberal,no,z,1,0.8005835613,3,100
2019_Nov_04,30,001,0,recog,80,LOOKED,HF,lure,-,-,-,liberal,no,m,1,1.55094411699,1,101
2019_Nov_04,30,001,0,recog,81,SEEMED,HF,lure,-,-,-,liberal,no,m,1,2.28450721368,1,102
2019_Nov_04,30,001,0,recog,82,ATTACK,HF,target,left,yellow,pleasantness,conservative,no,z,1,0.767279360818,1,103
2019_Nov_04,30,001,0,recog,83,SUPPORT,HF,target,right,aqua,imageability,conservative,no,z,1,0.950657578781,1,104
2019_Nov_04,30,001,0,recog,84,LOITERING,LF,target,right,aqua,imageability,conservative,no,z,1,0.583810591502,1,105
2019_Nov_04,30,001,0,recog,85,TODAY,HF,lure,-,-,-,liberal,no,m,1,1.13405742642,1,106
2019_Nov_04,30,001,0,recog,86,PRACTICE,HF,target,right,aqua,imageability,conservative,no,z,1,3.45146227601,1,107
2019_Nov_04,30,001,0,recog,87,TELEPHONE,HF,lure,-,-,-,liberal,no,m,1,0.684056069983,1,108
2019_Nov_04,30,001,0,recog,88,FLYWHEEL,LF,lure,-,-,-,conservative,no,m,1,1.38414779447,3,111
2019_Nov_04,30,001,0,recog,89,SLOWLY,HF,target,right,aqua,imageability,liberal,no,z,1,2.61801370662,3,114
2019_Nov_04,30,001,0,recog,90,TUBERS,LF,lure,-,-,-,liberal,no,m,1,0.700296656492,1,115
2019_Nov_04,30,001,0,recog,91,VEHEMENCE,LF,lure,-,-,-,conservative,no,m,1,1.03402237901,3,118
2019_Nov_04,30,001,0,recog,92,GOVERNS,LF,target,left,yellow,pleasantness,conservative,no,z,1,1.16735099537,1,119
2019_Nov_04,30,001,0,recog,93,TWINE,LF,lure,-,-,-,conservative,no,m,1,1.15072437415,3,122
2019_Nov_04,30,001,0,recog,94,ORBITAL,LF,target,right,aqua,imageability,conservative,no,z,1,0.867283613431,1,123
2019_Nov_04,30,001,0,recog,95,SECOND,HF,target,right,aqua,imageability,conservative,no,z,1,0.854802191123,1,124
2019_Nov_04,30,001,1,source,0,GREATER,HF,target,left,yellow,pleasantness,conservative,no,1,1,6.4864341611,-,-
2019_Nov_04,30,001,1,source,1,RODENTS,LF,target,right,aqua,imageability,conservative,no,9,1,2.6180045415,-,-
2019_Nov_04,30,001,1,source,2,MEMBERS,HF,target,right,aqua,imageability,liberal,no,9,1,0.75053395969,-,-
2019_Nov_04,30,001,1,source,3,AROUND,HF,target,left,yellow,pleasantness,conservative,no,2,1,5.63581199633,-,-
2019_Nov_04,30,001,1,source,4,LATER,HF,target,right,aqua,imageability,liberal,no,8,1,2.86807108024,-,-
2019_Nov_04,30,001,1,source,5,DEDICATE,LF,target,left,yellow,pleasantness,conservative,no,2,1,1.55070252451,-,-
2019_Nov_04,30,001,1,source,6,MEANS,HF,target,right,aqua,imageability,conservative,no,8,1,2.55135141476,-,-
2019_Nov_04,30,001,1,source,7,KIBBUTZIM,LF,target,left,yellow,pleasantness,liberal,no,1,1,1.5009121124,-,-
2019_Nov_04,30,001,1,source,8,LEARN,HF,target,right,aqua,imageability,conservative,no,9,1,1.43410097905,-,-
2019_Nov_04,30,001,1,source,9,SYNDICATE,LF,target,right,aqua,imageability,liberal,no,3,0,1.7176143275,-,-
2019_Nov_04,30,001,1,source,10,ADJOURNED,LF,target,left,yellow,pleasantness,liberal,no,1,1,1.7841391426,-,-
2019_Nov_04,30,001,1,source,11,DELEGATED,LF,target,left,yellow,pleasantness,conservative,no,1,1,1.20075014646,-,-
2019_Nov_04,30,001,1,source,12,SOCIAL,HF,target,left,yellow,pleasantness,liberal,no,1,1,1.65093223899,-,-
2019_Nov_04,30,001,1,source,13,LONGER,HF,target,right,aqua,imageability,conservative,no,9,1,3.10151099777,-,-
2019_Nov_04,30,001,1,source,14,EVENING,HF,target,left,yellow,pleasantness,conservative,no,2,1,2.83455901492,-,-
2019_Nov_04,30,001,1,source,15,DAWDLING,LF,target,right,aqua,imageability,conservative,no,9,1,1.90125833384,-,-
2019_Nov_04,30,001,1,source,16,GENERAL,HF,target,left,yellow,pleasantness,liberal,no,2,1,4.06863389172,-,-
2019_Nov_04,30,001,1,source,17,GIVEN,HF,target,right,aqua,imageability,conservative,no,2,0,1.5173799938,-,-
2019_Nov_04,30,001,1,source,18,IMPORTANT,HF,target,left,yellow,pleasantness,liberal,no,2,1,2.86836693021,-,-
2019_Nov_04,30,001,1,source,19,DEGREE,HF,target,left,yellow,pleasantness,liberal,no,8,0,2.20087369223,-,-
2019_Nov_04,30,001,1,source,20,HOIST,LF,target,right,aqua,imageability,conservative,no,8,1,1.11742164009,-,-
2019_Nov_04,30,001,1,source,21,CUCKOO,LF,target,right,aqua,imageability,liberal,no,8,1,1.56734600954,-,-
2019_Nov_04,30,001,1,source,22,ASCEND,LF,target,right,aqua,imageability,liberal,no,8,1,1.16742175007,-,-
2019_Nov_04,30,001,1,source,23,THANK,HF,target,right,aqua,imageability,conservative,no,8,1,2.15094323713,-,-
2019_Nov_04,30,001,1,source,24,ENOUGH,HF,target,left,yellow,pleasantness,liberal,no,2,1,2.43427878232,-,-
2019_Nov_04,30,001,1,source,25,WIRING,LF,target,right,aqua,imageability,conservative,no,9,1,2.75144277265,-,-
2019_Nov_04,30,001,1,source,26,DERANGED,LF,target,left,yellow,pleasantness,conservative,yes,7,0,1.33396878141,-,-
2019_Nov_04,30,001,1,source,27,HYDRAULIC,LF,target,right,aqua,imageability,liberal,no,9,1,1.58426408147,-,-
2019_Nov_04,30,001,1,source,28,WHETHER,HF,target,left,yellow,pleasantness,conservative,no,3,1,2.38454446071,-,-
2019_Nov_04,30,001,1,source,29,GIRLS,HF,target,right,aqua,imageability,liberal,no,9,1,1.46748693238,-,-
2019_Nov_04,30,001,1,source,30,ALREADY,HF,target,left,yellow,pleasantness,conservative,no,1,1,2.53466063773,-,-
2019_Nov_04,30,001,1,source,31,FECKLESS,LF,target,left,yellow,pleasantness,liberal,yes,3,1,1.33424336831,-,-
2019_Nov_04,30,001,1,source,32,OTHERS,HF,target,right,aqua,imageability,liberal,yes,3,0,0.850656259005,-,-
2019_Nov_04,30,001,1,source,33,SPACE,HF,target,right,aqua,imageability,liberal,no,9,1,1.03406967102,-,-
2019_Nov_04,30,001,1,source,34,NUMBER,HF,target,right,aqua,imageability,liberal,no,9,1,0.983914853868,-,-
2019_Nov_04,30,001,1,source,35,GANGWAY,LF,target,right,aqua,imageability,conservative,no,9,1,1.56760703206,-,-
2019_Nov_04,30,001,1,source,36,RAFTERS,LF,target,right,aqua,imageability,liberal,no,9,1,0.750508663968,-,-
2019_Nov_04,30,001,1,source,37,TROUBLE,HF,target,left,yellow,pleasantness,conservative,no,1,1,1.68434312143,-,-
2019_Nov_04,30,001,1,source,38,AEGIS,LF,target,left,yellow,pleasantness,conservative,no,1,1,1.95082291748,-,-
2019_Nov_04,30,001,1,source,39,UNTIL,HF,target,left,yellow,pleasantness,liberal,no,3,1,1.71764512229,-,-
2019_Nov_04,30,001,1,source,40,BALDING,LF,target,right,aqua,imageability,conservative,no,9,1,1.43429381311,-,-
2019_Nov_04,30,001,1,source,41,LESSENED,LF,target,left,yellow,pleasantness,liberal,no,2,1,1.93864284421,-,-
2019_Nov_04,30,001,1,source,42,WHATEVER,HF,target,right,aqua,imageability,conservative,no,8,1,1.93017354331,-,-
2019_Nov_04,30,001,1,source,43,DAILIES,LF,target,left,yellow,pleasantness,conservative,no,8,0,1.28406215562,-,-
2019_Nov_04,30,001,1,source,44,AGATE,LF,target,left,yellow,pleasantness,liberal,yes,7,0,0.683894397328,-,-
2019_Nov_04,30,001,1,source,45,SQUADRONS,LF,target,left,yellow,pleasantness,conservative,no,9,0,2.81809406636,-,-
2019_Nov_04,30,001,1,source,46,KRAALS,LF,target,left,yellow,pleasantness,liberal,no,1,1,1.35094551008,-,-
2019_Nov_04,30,001,1,source,47,UNMADE,LF,target,right,aqua,imageability,liberal,no,8,1,2.15107558142,-,-
2019_Nov_04,30,001,1,recog,0,KIBBUTZIM,LF,target,left,yellow,pleasantness,liberal,no,z,1,1.53421667949,3,127
2019_Nov_04,30,001,1,recog,1,DELEGATED,LF,target,left,yellow,pleasantness,conservative,no,z,1,1.41764996147,1,128
2019_Nov_04,30,001,1,recog,2,MEMBERS,HF,target,right,aqua,imageability,liberal,no,z,1,0.867292045339,3,131
2019_Nov_04,30,001,1,recog,3,HOIST,LF,target,right,aqua,imageability,conservative,no,z,1,0.583755234198,1,132
2019_Nov_04,30,001,1,recog,4,CUCKOO,LF,target,right,aqua,imageability,liberal,no,z,1,0.583666882475,3,135
2019_Nov_04,30,001,1,recog,5,STOOD,HF,lure,-,-,-,conservative,no,m,1,0.734111170664,3,138
2019_Nov_04,30,001,1,recog,6,GIRLS,HF,target,right,aqua,imageability,liberal,no,z,1,0.783649358772,3,141
2019_Nov_04,30,001,1,recog,7,YELLOWED,LF,lure,-,-,-,conservative,no,m,1,0.817349125685,3,144
2019_Nov_04,30,001,1,recog,8,RAFTERS,LF,target,right,aqua,imageability,liberal,no,z,1,0.884002985628,3,147
2019_Nov_04,30,001,1,recog,9,LEDGES,LF,lure,-,-,-,conservative,no,m,1,0.850730313146,3,150
2019_Nov_04,30,001,1,recog,10,EVENING,HF,target,left,yellow,pleasantness,conservative,no,z,1,0.700708353527,1,151
2019_Nov_04,30,001,1,recog,11,UNTIL,HF,target,left,yellow,pleasantness,liberal,no,z,1,1.5508982914,3,154
2019_Nov_04,30,001,1,recog,12,ADJOURNED,LF,target,left,yellow,pleasantness,liberal,no,z,1,0.700511853428,3,157
2019_Nov_04,30,001,1,recog,13,LEARN,HF,target,right,aqua,imageability,conservative,no,z,1,0.833744785965,1,158
2019_Nov_04,30,001,1,recog,14,TAKEN,HF,lure,-,-,-,liberal,no,m,1,1.90117988044,1,159
2019_Nov_04,30,001,1,recog,15,NUMBER,HF,target,right,aqua,imageability,liberal,no,z,1,0.833882995923,3,162
2019_Nov_04,30,001,1,recog,16,SPACE,HF,target,right,aqua,imageability,liberal,no,z,1,1.15071190959,3,165
2019_Nov_04,30,001,1,recog,17,MEANS,HF,target,right,aqua,imageability,conservative,no,z,1,1.40087119932,1,166
2019_Nov_04,30,001,1,recog,18,DEGREE,HF,target,left,yellow,pleasantness,liberal,no,z,1,4.55203769869,3,169
2019_Nov_04,30,001,1,recog,19,SQUADRONS,LF,target,left,yellow,pleasantness,conservative,no,z,1,1.03387427073,1,170
2019_Nov_04,30,001,1,recog,20,BAFFLING,LF,lure,-,-,-,conservative,no,m,1,0.950641081572,3,173
2019_Nov_04,30,001,1,recog,21,AGATE,LF,target,left,yellow,pleasantness,liberal,no,m,0,2.46798698114,-3,170
2019_Nov_04,30,001,1,recog,22,WEAKENS,LF,lure,-,-,-,liberal,no,m,1,1.95107147544,1,171
2019_Nov_04,30,001,1,recog,23,JASMINE,LF,lure,-,-,-,conservative,no,m,1,1.21765098796,3,174
2019_Nov_04,30,001,1,recog,24,THANK,HF,target,right,aqua,imageability,conservative,no,z,1,1.06750438276,1,175
2019_Nov_04,30,001,1,recog,25,SLEEP,HF,lure,-,-,-,liberal,no,m,1,1.48416854429,1,176
2019_Nov_04,30,001,1,recog,26,SNOBBISH,LF,lure,-,-,-,liberal,no,m,1,0.78418166874,1,177
2019_Nov_04,30,001,1,recog,27,SIZZLING,LF,lure,-,-,-,liberal,no,m,1,0.534037409806,1,178
2019_Nov_04,30,001,1,recog,28,CARRIED,HF,lure,-,-,-,conservative,no,m,1,0.700540081988,3,181
2019_Nov_04,30,001,1,recog,29,FURTHER,HF,lure,-,-,-,liberal,no,m,1,0.667150096014,1,182
2019_Nov_04,30,001,1,recog,30,TROUBLE,HF,target,left,yellow,pleasantness,conservative,no,z,1,0.884051377443,1,183
2019_Nov_04,30,001,1,recog,31,GREATER,HF,target,left,yellow,pleasantness,conservative,no,m,0,1.0838182902,-1,182
2019_Nov_04,30,001,1,recog,32,PROBABLY,HF,lure,-,-,-,conservative,no,m,1,2.96821060998,3,185
2019_Nov_04,30,001,1,recog,33,ENOUGH,HF,target,left,yellow,pleasantness,liberal,no,z,1,0.900742521082,3,188
2019_Nov_04,30,001,1,recog,34,LENGTHEN,LF,lure,-,-,-,liberal,no,m,1,0.800641118232,1,189
2019_Nov_04,30,001,1,recog,35,GANGWAY,LF,target,right,aqua,imageability,conservative,no,z,1,1.11732705608,1,190
2019_Nov_04,30,001,1,recog,36,INJECT,LF,lure,-,-,-,conservative,no,m,1,0.884110034189,3,193
2019_Nov_04,30,001,1,recog,37,SONAR,LF,lure,-,-,-,liberal,no,m,1,0.884140095772,1,194
2019_Nov_04,30,001,1,recog,38,UNSAVOURY,LF,lure,-,-,-,liberal,no,m,1,0.60470522419,1,195
2019_Nov_04,30,001,1,recog,39,WHETHER,HF,target,left,yellow,pleasantness,conservative,no,z,1,0.662919844824,1,196
2019_Nov_04,30,001,1,recog,40,VARIOUS,HF,lure,-,-,-,liberal,no,m,1,0.833871997783,1,197
2019_Nov_04,30,001,1,recog,41,ASCEND,LF,target,right,aqua,imageability,liberal,no,z,1,1.21741599437,3,200
2019_Nov_04,30,001,1,recog,42,OTHERS,HF,target,right,aqua,imageability,liberal,no,m,0,1.65098283044,-3,197
2019_Nov_04,30,001,1,recog,43,IMPORTANT,HF,target,left,yellow,pleasantness,liberal,no,m,0,3.35165232387,-3,194
2019_Nov_04,30,001,1,recog,44,ACORNS,LF,lure,-,-,-,conservative,no,m,1,1.36745518441,3,197
2019_Nov_04,30,001,1,recog,45,FECKLESS,LF,target,left,yellow,pleasantness,liberal,no,z,1,1.2506135129,3,200
2019_Nov_04,30,001,1,recog,46,UNMADE,LF,target,right,aqua,imageability,liberal,no,z,1,0.983963245683,3,203
2019_Nov_04,30,001,1,recog,47,ALLOWED,HF,lure,-,-,-,liberal,no,z,0,0.75057171997,-1,202
2019_Nov_04,30,001,1,recog,48,STUDENT,HF,lure,-,-,-,liberal,no,m,1,1.10073416249,1,203
2019_Nov_04,30,001,1,recog,49,OLDER,HF,lure,-,-,-,conservative,no,m,1,2.43452184121,3,206
2019_Nov_04,30,001,1,recog,50,BASIC,HF,lure,-,-,-,liberal,no,m,1,2.38450193457,1,207
2019_Nov_04,30,001,1,recog,51,USUAL,HF,lure,-,-,-,conservative,no,m,1,2.28458163443,3,210
2019_Nov_04,30,001,1,recog,52,MEDDLE,LF,lure,-,-,-,liberal,no,m,1,0.683985315284,1,211
2019_Nov_04,30,001,1,recog,53,WIRING,LF,target,right,aqua,imageability,conservative,no,z,1,1.05069042656,1,212
2019_Nov_04,30,001,1,recog,54,TAWNY,LF,lure,-,-,-,liberal,no,m,1,0.717260920603,1,213
2019_Nov_04,30,001,1,recog,55,TIMES,HF,lure,-,-,-,conservative,no,m,1,0.750544957829,3,216
2019_Nov_04,30,001,1,recog,56,UMBILICAL,LF,lure,-,-,-,conservative,no,m,1,0.800567064091,3,219
2019_Nov_04,30,001,1,recog,57,LONGER,HF,target,right,aqua,imageability,conservative,no,z,1,0.733941066101,1,220
2019_Nov_04,30,001,1,recog,58,AVAILABLE,HF,lure,-,-,-,conservative,no,m,1,3.70168095569,3,223
2019_Nov_04,30,001,1,recog,59,KRAALS,LF,target,left,yellow,pleasantness,liberal,no,z,1,1.21738849903,3,226
2019_Nov_04,30,001,1,recog,60,BALDING,LF,target,right,aqua,imageability,conservative,no,z,1,0.950932165673,1,227
2019_Nov_04,30,001,1,recog,61,AEGIS,LF,target,left,yellow,pleasantness,conservative,yes,z,1,0.967415444468,1,228
2019_Nov_04,30,001,1,recog,62,KEENER,LF,lure,-,-,-,liberal,no,m,1,1.08833009377,1,229
2019_Nov_04,30,001,1,recog,63,CIPHER,LF,lure,-,-,-,liberal,no,m,1,1.11734575292,1,230
2019_Nov_04,30,001,1,recog,64,WHATEVER,HF,target,right,aqua,imageability,conservative,no,z,1,0.633889154881,1,231
2019_Nov_04,30,001,1,recog,65,DEDICATE,LF,target,left,yellow,pleasantness,conservative,no,z,1,0.85066689054,1,232
2019_Nov_04,30,001,1,recog,66,SOCIAL,HF,target,left,yellow,pleasantness,liberal,no,z,1,0.667198487829,3,235
2019_Nov_04,30,001,1,recog,67,RATHER,HF,lure,-,-,-,conservative,no,m,1,1.48414324857,3,238
2019_Nov_04,30,001,1,recog,68,DAILIES,LF,target,left,yellow,pleasantness,conservative,no,z,1,0.983958846427,1,239
2019_Nov_04,30,001,1,recog,69,BOGEY,LF,lure,-,-,-,conservative,no,m,1,0.73384428247,3,242
2019_Nov_04,30,001,1,recog,70,DAWDLING,LF,target,right,aqua,imageability,conservative,no,z,1,0.717158271298,1,243
2019_Nov_04,30,001,1,recog,71,HUSBAND,HF,lure,-,-,-,liberal,no,m,1,1.05074028479,1,244
2019_Nov_04,30,001,1,recog,72,SYNDICATE,LF,target,right,aqua,imageability,liberal,no,z,1,1.68428886394,3,247
2019_Nov_04,30,001,1,recog,73,HOWEVER,HF,lure,-,-,-,liberal,no,m,1,0.917371708531,1,248
2019_Nov_04,30,001,1,recog,74,RODENTS,LF,target,right,aqua,imageability,conservative,yes,z,1,0.633840763066,1,249
2019_Nov_04,30,001,1,recog,75,SERIOUS,HF,lure,-,-,-,liberal,yes,m,1,0.850592469793,1,250
2019_Nov_04,30,001,1,recog,76,LESSENED,LF,target,left,yellow,pleasantness,liberal,no,z,1,1.13399876967,3,253
2019_Nov_04,30,001,1,recog,77,GENERAL,HF,target,left,yellow,pleasantness,liberal,no,z,1,0.900624840986,3,256
2019_Nov_04,30,001,1,recog,78,LATER,HF,target,right,aqua,imageability,liberal,no,z,1,0.70060790385,3,259
2019_Nov_04,30,001,1,recog,79,YARDSTICK,LF,lure,-,-,-,liberal,no,m,1,1.20070395427,1,260
2019_Nov_04,30,001,1,recog,80,GIVEN,HF,target,right,aqua,imageability,conservative,no,z,1,0.900686430568,1,261
2019_Nov_04,30,001,1,recog,81,BATCHES,LF,lure,-,-,-,conservative,no,m,1,1.01726048068,3,264
2019_Nov_04,30,001,1,recog,82,DERANGED,LF,target,left,yellow,pleasantness,conservative,no,z,1,0.650456386143,1,265
2019_Nov_04,30,001,1,recog,83,TOTAL,HF,lure,-,-,-,liberal,no,m,1,0.933972667423,1,266
2019_Nov_04,30,001,1,recog,84,DITTO,LF,lure,-,-,-,conservative,no,m,1,0.600440512161,3,269
2019_Nov_04,30,001,1,recog,85,SHORT,HF,lure,-,-,-,conservative,no,m,1,1.58429194342,3,272
2019_Nov_04,30,001,1,recog,86,ALREADY,HF,target,left,yellow,pleasantness,conservative,no,m,0,0.750601414948,-1,271
2019_Nov_04,30,001,1,recog,87,UNION,HF,lure,-,-,-,conservative,no,m,1,1.70094957939,3,274
2019_Nov_04,30,001,1,recog,88,DIMMED,LF,lure,-,-,-,conservative,no,m,1,0.734015486847,3,277
2019_Nov_04,30,001,1,recog,89,SAPLINGS,LF,lure,-,-,-,conservative,yes,m,1,0.750520028712,3,280
2019_Nov_04,30,001,1,recog,90,UNDER,HF,lure,-,-,-,conservative,no,m,1,0.783999099619,3,283
2019_Nov_04,30,001,1,recog,91,HYDRAULIC,LF,target,right,aqua,imageability,liberal,no,z,1,0.883961559301,3,286
2019_Nov_04,30,001,1,recog,92,TRIED,HF,lure,-,-,-,liberal,no,m,1,3.10151649684,1,287
2019_Nov_04,30,001,1,recog,93,SCENARIOS,LF,lure,-,-,-,liberal,no,m,1,0.93402985775,1,288
2019_Nov_04,30,001,1,recog,94,ALTHOUGH,HF,lure,-,-,-,conservative,no,z,0,1.26738860901,-3,285
2019_Nov_04,30,001,1,recog,95,AROUND,HF,target,left,yellow,pleasantness,conservative,no,z,1,2.95147620699,1,286
2019_Nov_04,30,001,2,source,0,LOANED,LF,target,left,yellow,pleasantness,conservative,no,2,1,2.86812313811,-,-
2019_Nov_04,30,001,2,source,1,MAJOR,HF,target,right,aqua,imageability,liberal,no,9,1,2.46802144197,-,-
2019_Nov_04,30,001,2,source,2,ODOURS,LF,target,left,yellow,pleasantness,conservative,no,1,1,2.58464645013,-,-
2019_Nov_04,30,001,2,source,3,NOURISH,LF,target,left,yellow,pleasantness,liberal,no,1,1,1.58401039104,-,-
2019_Nov_04,30,001,2,source,4,NEARLY,HF,target,left,yellow,pleasantness,liberal,yes,7,0,1.68422764097,-,-
2019_Nov_04,30,001,2,source,5,SUDDENLY,HF,target,right,aqua,imageability,conservative,no,8,1,1.96767170113,-,-
2019_Nov_04,30,001,2,source,6,HIVES,LF,target,right,aqua,imageability,conservative,no,8,1,1.10075909161,-,-
2019_Nov_04,30,001,2,source,7,VIVACIOUS,LF,target,left,yellow,pleasantness,conservative,no,1,1,1.20050378813,-,-
2019_Nov_04,30,001,2,source,8,SABLE,LF,target,right,aqua,imageability,liberal,no,2,0,2.317798583,-,-
2019_Nov_04,30,001,2,source,9,ROLLERS,LF,target,right,aqua,imageability,liberal,no,9,1,1.95083794827,-,-
2019_Nov_04,30,001,2,source,10,LEVEL,HF,target,right,aqua,imageability,liberal,no,9,1,1.46733405823,-,-
2019_Nov_04,30,001,2,source,11,TINGLING,LF,target,left,yellow,pleasantness,liberal,yes,9,0,0.700600938361,-,-
2019_Nov_04,30,001,2,source,12,MYSELF,HF,target,right,aqua,imageability,conservative,no,9,1,1.03421667949,-,-
2019_Nov_04,30,001,2,source,13,MOODILY,LF,target,left,yellow,pleasantness,conservative,no,1,1,1.90097568165,-,-
2019_Nov_04,30,001,2,source,14,TAILED,LF,target,right,aqua,imageability,liberal,no,7,1,2.1179260881,-,-
2019_Nov_04,30,001,2,source,15,MYTHIC,LF,target,left,yellow,pleasantness,liberal,no,2,1,2.36788264545,-,-
2019_Nov_04,30,001,2,source,16,VEXED,LF,target,right,aqua,imageability,liberal,yes,3,0,1.05485982138,-,-
2019_Nov_04,30,001,2,source,17,CHURCH,HF,target,left,yellow,pleasantness,liberal,no,1,1,3.24731553737,-,-
2019_Nov_04,30,001,2,source,18,KANGAROO,LF,target,right,aqua,imageability,conservative,no,9,1,2.15090547685,-,-
2019_Nov_04,30,001,2,source,19,AGONIZED,LF,target,right,aqua,imageability,liberal,no,9,1,2.0344142794,-,-
2019_Nov_04,30,001,2,source,20,AFIELD,LF,target,left,yellow,pleasantness,liberal,no,1,1,1.18404397203,-,-
2019_Nov_04,30,001,2,source,21,UMPIRE,LF,target,left,yellow,pleasantness,liberal,no,3,1,3.55166449514,-,-
2019_Nov_04,30,001,2,source,22,OFTEN,HF,target,right,aqua,imageability,conservative,no,9,1,1.61768009637,-,-
2019_Nov_04,30,001,2,source,23,OBNOXIOUS,LF,target,left,yellow,pleasantness,liberal,yes,7,0,1.03386510561,-,-
2019_Nov_04,30,001,2,source,24,ABOVE,HF,target,left,yellow,pleasantness,liberal,no,1,1,2.68462430721,-,-
2019_Nov_04,30,001,2,source,25,WASHBASIN,LF,target,right,aqua,imageability,conservative,no,9,1,1.43411087738,-,-
2019_Nov_04,30,001,2,source,26,EUPHEMISM,LF,target,right,aqua,imageability,liberal,no,2,0,2.51792733456,-,-
2019_Nov_04,30,001,2,source,27,EVIDENCE,HF,target,left,yellow,pleasantness,liberal,no,2,1,1.73426514462,-,-
2019_Nov_04,30,001,2,source,28,REQUIRED,HF,target,right,aqua,imageability,liberal,no,8,1,1.93432167506,-,-
2019_Nov_04,30,001,2,source,29,MAYBE,HF,target,left,yellow,pleasantness,conservative,no,7,0,4.10172032904,-,-
2019_Nov_04,30,001,2,source,30,EITHER,HF,target,left,yellow,pleasantness,conservative,no,3,1,2.60118618604,-,-
2019_Nov_04,30,001,2,source,31,KIDNAP,LF,target,right,aqua,imageability,conservative,no,9,1,1.23403821634,-,-
2019_Nov_04,30,001,2,source,32,BURGH,LF,target,right,aqua,imageability,conservative,no,9,1,1.48398634178,-,-
2019_Nov_04,30,001,2,source,33,LEECH,LF,target,right,aqua,imageability,conservative,no,9,1,0.933970467795,-,-
2019_Nov_04,30,001,2,source,34,PRIVATE,HF,target,left,yellow,pleasantness,conservative,no,1,1,2.46373693329,-,-
2019_Nov_04,30,001,2,source,35,NOTHING,HF,target,right,aqua,imageability,conservative,no,1,0,1.10073929496,-,-
2019_Nov_04,30,001,2,source,36,SLIGHTLY,HF,target,right,aqua,imageability,liberal,no,8,1,1.71777233411,-,-
2019_Nov_04,30,001,2,source,37,OBVIOUSLY,HF,target,left,yellow,pleasantness,liberal,no,1,1,1.05080737345,-,-
2019_Nov_04,30,001,2,source,38,EIGHT,HF,target,right,aqua,imageability,liberal,no,9,1,1.21724882265,-,-
2019_Nov_04,30,001,2,source,39,JARRED,LF,target,left,yellow,pleasantness,conservative,no,2,1,1.51752700227,-,-
2019_Nov_04,30,001,2,source,40,PUMPKIN,LF,target,left,yellow,pleasantness,conservative,no,1,1,0.833979046344,-,-
2019_Nov_04,30,001,2,source,41,SYSTEM,HF,target,right,aqua,imageability,conservative,no,9,1,1.63420040224,-,-
2019_Nov_04,30,001,2,source,42,STAFF,HF,target,left,yellow,pleasantness,conservative,no,1,1,2.18422580794,-,-
2019_Nov_04,30,001,2,source,43,GETTING,HF,target,right,aqua,imageability,conservative,no,2,0,3.63480676635,-,-
2019_Nov_04,30,001,2,source,44,LIKELY,HF,target,right,aqua,imageability,liberal,no,8,1,1.35088502031,-,-
2019_Nov_04,30,001,2,source,45,RECENT,HF,target,left,yellow,pleasantness,conservative,no,3,1,3.81842987623,-,-
2019_Nov_04,30,001,2,source,46,TRADE,HF,target,left,yellow,pleasantness,liberal,no,2,1,3.83515914675,-,-
2019_Nov_04,30,001,2,source,47,THOUSAND,HF,target,left,yellow,pleasantness,conservative,no,1,1,0.88396302572,-,-
2019_Nov_04,30,001,2,recog,0,TERMS,HF,lure,-,-,-,liberal,yes,z,0,1.13407209061,-1,285
2019_Nov_04,30,001,2,recog,1,AFIELD,LF,target,left,yellow,pleasantness,liberal,no,z,1,1.01710833974,3,288
2019_Nov_04,30,001,2,recog,2,SEVEN,HF,lure,-,-,-,conservative,no,z,0,1.45068030827,-3,285
2019_Nov_04,30,001,2,recog,3,ALMOST,HF,lure,-,-,-,liberal,no,z,0,5.00207094973,-1,284
2019_Nov_04,30,001,2,recog,4,BOOKS,HF,lure,-,-,-,conservative,no,m,1,2.40121140844,3,287
2019_Nov_04,30,001,2,recog,5,ROBBERIES,LF,lure,-,-,-,liberal,no,m,1,0.800546534229,1,288
2019_Nov_04,30,001,2,recog,6,SNAGS,LF,lure,-,-,-,liberal,no,m,1,0.767303556725,1,289
2019_Nov_04,30,001,2,recog,7,THOUSAND,HF,target,left,yellow,pleasantness,conservative,no,z,1,0.817306232939,1,290
2019_Nov_04,30,001,2,recog,8,TINGLING,LF,target,left,yellow,pleasantness,liberal,no,z,1,1.01733160198,3,293
2019_Nov_04,30,001,2,recog,9,ABOVE,HF,target,left,yellow,pleasantness,liberal,no,z,1,0.600447844255,3,296
2019_Nov_04,30,001,2,recog,10,SUDDENLY,HF,target,right,aqua,imageability,conservative,no,m,0,3.40160587506,-1,295
2019_Nov_04,30,001,2,recog,11,KIDNAP,LF,target,right,aqua,imageability,conservative,no,z,1,1.38388163949,1,296
2019_Nov_04,30,001,2,recog,12,OFTEN,HF,target,right,aqua,imageability,conservative,no,z,1,1.30082405396,1,297
2019_Nov_04,30,001,2,recog,13,BOILERS,LF,lure,-,-,-,conservative,no,m,1,0.71745888712,3,300
2019_Nov_04,30,001,2,recog,14,OBVIOUSLY,HF,target,left,yellow,pleasantness,liberal,no,z,1,0.750573919598,3,303
2019_Nov_04,30,001,2,recog,15,NEARLY,HF,target,left,yellow,pleasantness,liberal,no,z,1,0.917311951972,3,306
2019_Nov_04,30,001,2,recog,16,SYSTEM,HF,target,right,aqua,imageability,conservative,no,z,1,1.05066513084,1,307
2019_Nov_04,30,001,2,recog,17,VIVACIOUS,LF,target,left,yellow,pleasantness,conservative,no,z,1,0.617133488823,1,308
2019_Nov_04,30,001,2,recog,18,MAJOR,HF,target,right,aqua,imageability,liberal,no,z,1,0.600274073645,3,311
2019_Nov_04,30,001,2,recog,19,KANGAROO,LF,target,right,aqua,imageability,conservative,no,z,1,0.933978899702,1,312
2019_Nov_04,30,001,2,recog,20,SABLE,LF,target,right,aqua,imageability,liberal,no,z,1,0.817243543542,3,315
2019_Nov_04,30,001,2,recog,21,AXIOM,LF,lure,-,-,-,liberal,no,m,1,0.867238154453,1,316
2019_Nov_04,30,001,2,recog,22,PRIVATE,HF,target,left,yellow,pleasantness,conservative,no,z,1,0.800556432555,1,317
2019_Nov_04,30,001,2,recog,23,AGONIZED,LF,target,right,aqua,imageability,liberal,no,z,1,0.833910491272,3,320
2019_Nov_04,30,001,2,recog,24,LINEAGE,LF,lure,-,-,-,conservative,no,m,1,1.13401893293,3,323
2019_Nov_04,30,001,2,recog,25,LETTER,HF,lure,-,-,-,conservative,yes,m,1,0.683883765792,3,326
2019_Nov_04,30,001,2,recog,26,RECENT,HF,target,left,yellow,pleasantness,conservative,no,m,0,1.06741749745,-1,325
2019_Nov_04,30,001,2,recog,27,LOANED,LF,target,left,yellow,pleasantness,conservative,no,z,1,1.11741834064,1,326
2019_Nov_04,30,001,2,recog,28,MYSELF,HF,target,right,aqua,imageability,conservative,no,z,1,0.550450300506,1,327
2019_Nov_04,30,001,2,recog,29,BURGH,LF,target,right,aqua,imageability,conservative,no,z,1,0.534061239109,1,328
2019_Nov_04,30,001,2,recog,30,STAFF,HF,target,left,yellow,pleasantness,conservative,no,z,1,0.500428560849,1,329
2019_Nov_04,30,001,2,recog,31,LEVEL,HF,target,right,aqua,imageability,liberal,no,z,1,0.783904149012,3,332
2019_Nov_04,30,001,2,recog,32,MYTHIC,LF,target,left,yellow,pleasantness,liberal,no,z,1,0.671531754929,3,335
2019_Nov_04,30,001,2,recog,33,HUBBUB,LF,lure,-,-,-,liberal,no,m,1,0.683874600676,1,336
2019_Nov_04,30,001,2,recog,34,CERTAIN,HF,lure,-,-,-,conservative,no,m,1,2.03433729242,3,339
2019_Nov_04,30,001,2,recog,35,HIVES,LF,target,right,aqua,imageability,conservative,no,z,1,0.783905248826,1,340
2019_Nov_04,30,001,2,recog,36,JARRED,LF,target,left,yellow,pleasantness,conservative,no,z,1,1.40077881494,1,341
2019_Nov_04,30,001,2,recog,37,PUMPKIN,LF,target,left,yellow,pleasantness,conservative,no,z,1,0.817252342054,1,342
2019_Nov_04,30,001,2,recog,38,KRONOR,LF,lure,-,-,-,liberal,no,m,1,1.01727221203,1,343
2019_Nov_04,30,001,2,recog,39,TRADE,HF,target,left,yellow,pleasantness,liberal,no,z,1,1.55095511512,3,346
2019_Nov_04,30,001,2,recog,40,MARKET,HF,lure,-,-,-,conservative,yes,z,0,0.683834274163,-3,343
2019_Nov_04,30,001,2,recog,41,EITHER,HF,target,left,yellow,pleasantness,conservative,no,z,1,3.36828077811,1,344
2019_Nov_04,30,001,2,recog,42,PISTONS,LF,lure,-,-,-,conservative,no,m,1,1.35083222924,3,347
2019_Nov_04,30,001,2,recog,43,ROUND,HF,lure,-,-,-,liberal,no,m,1,1.21749041512,1,348
2019_Nov_04,30,001,2,recog,44,OBNOXIOUS,LF,target,left,yellow,pleasantness,liberal,no,z,1,0.767180744163,3,351
2019_Nov_04,30,001,2,recog,45,MOODILY,LF,target,left,yellow,pleasantness,conservative,no,z,1,0.833958883087,1,352
2019_Nov_04,30,001,2,recog,46,EUPHEMISM,LF,target,right,aqua,imageability,liberal,no,z,1,0.700609370268,3,355
2019_Nov_04,30,001,2,recog,47,CHURCH,HF,target,left,yellow,pleasantness,liberal,no,z,1,0.483851064657,3,358
2019_Nov_04,30,001,2,recog,48,IRONICAL,LF,lure,-,-,-,liberal,no,m,1,0.883940662836,1,359
2019_Nov_04,30,001,2,recog,49,GETTING,HF,target,right,aqua,imageability,conservative,no,m,0,1.33385843341,-1,358
2019_Nov_04,30,001,2,recog,50,WASHBASIN,LF,target,right,aqua,imageability,conservative,no,z,1,0.983982309126,1,359
2019_Nov_04,30,001,2,recog,51,CORNER,HF,lure,-,-,-,liberal,no,m,1,1.2340668115,1,360
2019_Nov_04,30,001,2,recog,52,COUNCIL,HF,lure,-,-,-,conservative,no,m,1,0.683958186539,3,363
2019_Nov_04,30,001,2,recog,53,LEECH,LF,target,right,aqua,imageability,conservative,no,z,1,0.83394495211,1,364
2019_Nov_04,30,001,2,recog,54,NOTHING,HF,target,right,aqua,imageability,conservative,no,z,1,0.733691774931,1,365
2019_Nov_04,30,001,2,recog,55,EVIDENCE,HF,target,left,yellow,pleasantness,liberal,no,z,1,0.933938573189,3,368
2019_Nov_04,30,001,2,recog,56,FAUCET,LF,lure,-,-,-,liberal,no,m,1,0.733880576332,1,369
2019_Nov_04,30,001,2,recog,57,UMPIRE,LF,target,left,yellow,pleasantness,liberal,no,z,1,0.933929774677,3,372
2019_Nov_04,30,001,2,recog,58,NOURISH,LF,target,left,yellow,pleasantness,liberal,no,z,1,0.900646837265,3,375
2019_Nov_04,30,001,2,recog,59,ENERGY,HF,lure,-,-,-,liberal,no,m,1,0.817319064102,1,376
2019_Nov_04,30,001,2,recog,60,MAKES,HF,lure,-,-,-,conservative,no,m,1,1.47175604366,3,379
2019_Nov_04,30,001,2,recog,61,MOMENT,HF,lure,-,-,-,conservative,no,m,1,1.95100108735,3,382
2019_Nov_04,30,001,2,recog,62,LOCAL,HF,lure,-,-,-,liberal,no,z,0,1.51749877371,-1,381
2019_Nov_04,30,001,2,recog,63,EIGHT,HF,target,right,aqua,imageability,liberal,no,z,1,1.85099610153,3,384
2019_Nov_04,30,001,2,recog,64,TAILED,LF,target,right,aqua,imageability,liberal,no,z,1,1.01740968877,3,387
2019_Nov_04,30,001,2,recog,65,GADGET,LF,lure,-,-,-,conservative,no,m,1,0.933896047049,3,390
2019_Nov_04,30,001,2,recog,66,REQUIRED,HF,target,right,aqua,imageability,liberal,no,z,1,0.700564277895,3,393
2019_Nov_04,30,001,2,recog,67,ATHEIST,LF,lure,-,-,-,conservative,no,m,1,0.900433106747,3,396
2019_Nov_04,30,001,2,recog,68,MIGHTILY,LF,lure,-,-,-,conservative,no,m,1,2.23455952817,3,399
2019_Nov_04,30,001,2,recog,69,CHAIR,HF,lure,-,-,-,liberal,no,m,1,1.25079901486,1,400
2019_Nov_04,30,001,2,recog,70,HASSLE,LF,lure,-,-,-,liberal,no,m,1,3.36823751876,1,401
2019_Nov_04,30,001,2,recog,71,AHEAD,HF,lure,-,-,-,conservative,no,m,1,0.700521385149,3,404
2019_Nov_04,30,001,2,recog,72,SHALL,HF,lure,-,-,-,conservative,no,m,1,0.550513723113,3,407
2019_Nov_04,30,001,2,recog,73,LAUNCHER,LF,lure,-,-,-,conservative,no,m,1,0.667136898246,3,410
2019_Nov_04,30,001,2,recog,74,ACCORDING,HF,lure,-,-,-,liberal,no,m,1,0.767272761934,1,411
2019_Nov_04,30,001,2,recog,75,CALLED,HF,lure,-,-,-,conservative,yes,z,0,1.05070839019,-3,408
2019_Nov_04,30,001,2,recog,76,MATERIAL,HF,lure,-,-,-,conservative,no,z,0,1.36748194655,-3,405
2019_Nov_04,30,001,2,recog,77,LANGUAGE,HF,lure,-,-,-,liberal,no,m,1,1.98441820207,1,406
2019_Nov_04,30,001,2,recog,78,ROLLERS,LF,target,right,aqua,imageability,liberal,no,z,1,0.683841972861,3,409
2019_Nov_04,30,001,2,recog,79,OPPOSES,LF,lure,-,-,-,liberal,no,m,1,0.650531906704,1,410
2019_Nov_04,30,001,2,recog,80,SHUNNED,LF,lure,-,-,-,liberal,no,m,1,0.667210952388,1,411
2019_Nov_04,30,001,2,recog,81,PURCHASER,LF,lure,-,-,-,liberal,no,m,1,0.700761877808,1,412
2019_Nov_04,30,001,2,recog,82,IDIOCY,LF,lure,-,-,-,conservative,no,m,1,0.650549503727,3,415
2019_Nov_04,30,001,2,recog,83,STRAIGHT,HF,lure,-,-,-,liberal,no,m,1,1.66745254486,1,416
2019_Nov_04,30,001,2,recog,84,NIBBLE,LF,lure,-,-,-,conservative,no,m,1,0.633865692183,3,419
2019_Nov_04,30,001,2,recog,85,SLIGHTLY,HF,target,right,aqua,imageability,liberal,no,z,1,0.933934173933,3,422
2019_Nov_04,30,001,2,recog,86,CACOPHONY,LF,lure,-,-,-,conservative,no,m,1,0.867235221616,3,425
2019_Nov_04,30,001,2,recog,87,VEXED,LF,target,right,aqua,imageability,liberal,no,m,0,0.683710361787,-3,422
2019_Nov_04,30,001,2,recog,88,ODOURS,LF,target,left,yellow,pleasantness,conservative,no,z,1,0.950677008829,1,423
2019_Nov_04,30,001,2,recog,89,FIDDLED,LF,lure,-,-,-,conservative,no,z,0,0.850617398911,-3,420
2019_Nov_04,30,001,2,recog,90,OBTAINS,LF,lure,-,-,-,conservative,no,m,1,0.900682397917,3,423
2019_Nov_04,30,001,2,recog,91,LIKELY,HF,target,right,aqua,imageability,liberal,no,z,1,0.833893994062,3,426
2019_Nov_04,30,001,2,recog,92,FEELING,HF,lure,-,-,-,liberal,no,z,0,0.450381892076,-1,425
2019_Nov_04,30,001,2,recog,93,MAYBE,HF,target,left,yellow,pleasantness,conservative,no,m,0,1.18401391045,-1,424
2019_Nov_04,30,001,2,recog,94,ANYONE,HF,lure,-,-,-,liberal,no,m,1,0.71727961744,1,425
2019_Nov_04,30,001,2,recog,95,PUNCTUAL,LF,lure,-,-,-,liberal,no,m,1,0.867418157342,1,426
2019_Nov_04,30,001,3,source,0,ENMESHED,LF,target,left,yellow,pleasantness,liberal,no,7,0,3.35154784154,-,-
2019_Nov_04,30,001,3,source,1,ACROSS,HF,target,right,aqua,imageability,conservative,no,8,1,3.08476523004,-,-
2019_Nov_04,30,001,3,source,2,RIDDLES,LF,target,right,aqua,imageability,conservative,no,8,1,1.15065618568,-,-
2019_Nov_04,30,001,3,source,3,DAMASK,LF,target,left,yellow,pleasantness,conservative,no,1,1,3.75177858252,-,-
2019_Nov_04,30,001,3,source,4,TOILED,LF,target,left,yellow,pleasantness,liberal,no,3,1,1.66732533304,-,-
2019_Nov_04,30,001,3,source,5,CIRCUSES,LF,target,left,yellow,pleasantness,liberal,yes,3,1,0.650439888934,-,-
2019_Nov_04,30,001,3,source,6,HEALTH,HF,target,left,yellow,pleasantness,conservative,no,1,1,2.56788895105,-,-
2019_Nov_04,30,001,3,source,7,AMBIENCE,LF,target,left,yellow,pleasantness,conservative,no,1,1,0.717205563299,-,-
2019_Nov_04,30,001,3,source,8,INTEREST,HF,target,left,yellow,pleasantness,conservative,no,1,1,3.80186337817,-,-
2019_Nov_04,30,001,3,source,9,INVOLVED,HF,target,right,aqua,imageability,liberal,no,8,1,2.48435734569,-,-
2019_Nov_04,30,001,3,source,10,REWRITE,LF,target,right,aqua,imageability,liberal,no,8,1,1.10069676882,-,-
2019_Nov_04,30,001,3,source,11,LABOUR,HF,target,left,yellow,pleasantness,conservative,no,1,1,1.23408880778,-,-
2019_Nov_04,30,001,3,source,12,EARLIER,HF,target,right,aqua,imageability,liberal,no,8,1,1.25061754555,-,-
2019_Nov_04,30,001,3,source,13,HECTOR,LF,target,left,yellow,pleasantness,liberal,no,1,1,3.13487422161,-,-
2019_Nov_04,30,001,3,source,14,DUPLICITY,LF,target,right,aqua,imageability,liberal,no,9,1,4.91895507407,-,-
2019_Nov_04,30,001,3,source,15,OUGHT,HF,target,right,aqua,imageability,conservative,no,9,1,0.967319027442,-,-
2019_Nov_04,30,001,3,source,16,TALKING,HF,target,right,aqua,imageability,conservative,no,2,0,2.01782908451,-,-
2019_Nov_04,30,001,3,source,17,NEMESIS,LF,target,right,aqua,imageability,conservative,no,9,1,1.33390535881,-,-
2019_Nov_04,30,001,3,source,18,LIGHT,HF,target,left,yellow,pleasantness,liberal,no,3,1,4.15187881223,-,-
2019_Nov_04,30,001,3,source,19,FREEDOM,HF,target,left,yellow,pleasantness,conservative,yes,8,0,1.31715922447,-,-
2019_Nov_04,30,001,3,source,20,VOICE,HF,target,right,aqua,imageability,liberal,no,3,0,1.88441504927,-,-
2019_Nov_04,30,001,3,source,21,CLOSE,HF,target,right,aqua,imageability,conservative,no,8,1,1.85108665288,-,-
2019_Nov_04,30,001,3,source,22,LOBBIES,LF,target,right,aqua,imageability,conservative,no,9,1,1.96755805368,-,-
2019_Nov_04,30,001,3,source,23,BAWLED,LF,target,right,aqua,imageability,liberal,no,9,1,1.23410237215,-,-
2019_Nov_04,30,001,3,source,24,GLUTINOUS,LF,target,right,aqua,imageability,conservative,no,9,1,1.01729090886,-,-
2019_Nov_04,30,001,3,source,25,CHLORIDE,LF,target,left,yellow,pleasantness,liberal,no,1,1,1.6509641336,-,-
2019_Nov_04,30,001,3,source,26,ZENITH,LF,target,right,aqua,imageability,liberal,no,3,0,1.88437178992,-,-
2019_Nov_04,30,001,3,source,27,ANOINTED,LF,target,right,aqua,imageability,liberal,no,3,0,1.80102495331,-,-
2019_Nov_04,30,001,3,source,28,WRONG,HF,target,right,aqua,imageability,liberal,no,8,1,2.450973592,-,-
2019_Nov_04,30,001,3,source,29,FRONT,HF,target,left,yellow,pleasantness,liberal,no,8,0,1.10046617449,-,-
2019_Nov_04,30,001,3,source,30,YEOMAN,LF,target,left,yellow,pleasantness,conservative,yes,8,0,0.650301678976,-,-
2019_Nov_04,30,001,3,source,31,REACHED,HF,target,right,aqua,imageability,conservative,no,8,1,3.38468890295,-,-
2019_Nov_04,30,001,3,source,32,AUGMENT,LF,target,left,yellow,pleasantness,conservative,no,8,0,1.80093440196,-,-
2019_Nov_04,30,001,3,source,33,MYRIADS,LF,target,left,yellow,pleasantness,liberal,no,2,1,1.25084374063,-,-
2019_Nov_04,30,001,3,source,34,MACARONI,LF,target,right,aqua,imageability,conservative,no,9,1,1.28410358195,-,-
2019_Nov_04,30,001,3,source,35,THEORY,HF,target,left,yellow,pleasantness,liberal,no,3,1,2.15117273165,-,-
2019_Nov_04,30,001,3,source,36,KNEAD,LF,target,right,aqua,imageability,liberal,no,8,1,1.23426477802,-,-
2019_Nov_04,30,001,3,source,37,AREAS,HF,target,left,yellow,pleasantness,liberal,no,1,1,1.22165247784,-,-
2019_Nov_04,30,001,3,source,38,EMPATHY,LF,target,right,aqua,imageability,conservative,yes,9,1,1.14652345133,-,-
2019_Nov_04,30,001,3,source,39,INDEED,HF,target,right,aqua,imageability,conservative,no,3,0,1.45088120763,-,-
2019_Nov_04,30,001,3,source,40,RESEARCH,HF,target,left,yellow,pleasantness,liberal,no,2,1,2.40134118649,-,-
2019_Nov_04,30,001,3,source,41,ARRIVED,HF,target,left,yellow,pleasantness,liberal,no,8,0,3.61837774504,-,-
2019_Nov_04,30,001,3,source,42,MAUSOLEUM,LF,target,left,yellow,pleasantness,conservative,no,8,0,1.28417543646,-,-
2019_Nov_04,30,001,3,source,43,DEEPEN,LF,target,left,yellow,pleasantness,conservative,no,2,1,2.21787351699,-,-
2019_Nov_04,30,001,3,source,44,BUSINESS,HF,target,left,yellow,pleasantness,conservative,no,1,1,1.30073203619,-,-
2019_Nov_04,30,001,3,source,45,WALKED,HF,target,right,aqua,imageability,liberal,no,8,1,1.8009611641,-,-
2019_Nov_04,30,001,3,source,46,POSITION,HF,target,right,aqua,imageability,liberal,no,8,1,2.71782219234,-,-
2019_Nov_04,30,001,3,source,47,FAMILY,HF,target,left,yellow,pleasantness,conservative,no,1,1,1.48416561146,-,-
2019_Nov_04,30,001,3,recog,0,BUDDIES,LF,lure,-,-,-,liberal,no,m,1,1.21729391502,1,427
2019_Nov_04,30,001,3,recog,1,MOSAICS,LF,lure,-,-,-,liberal,no,m,1,0.633835997205,1,428
2019_Nov_04,30,001,3,recog,2,INVOLVED,HF,target,right,aqua,imageability,liberal,no,z,1,0.984012737313,3,431
2019_Nov_04,30,001,3,recog,3,FREEDOM,HF,target,left,yellow,pleasantness,conservative,no,m,0,1.80095419861,-1,430
2019_Nov_04,30,001,3,recog,4,MAUSOLEUM,LF,target,left,yellow,pleasantness,conservative,no,z,1,1.13403359712,1,431
2019_Nov_04,30,001,3,recog,5,RAVAGES,LF,lure,-,-,-,liberal,no,m,1,1.01731987063,1,432
2019_Nov_04,30,001,3,recog,6,FIELD,HF,lure,-,-,-,conservative,no,m,1,1.71775473708,3,435
2019_Nov_04,30,001,3,recog,7,ZENITH,LF,target,right,aqua,imageability,liberal,no,z,1,0.767181843978,3,438
2019_Nov_04,30,001,3,recog,8,THEORY,HF,target,left,yellow,pleasantness,liberal,no,z,1,0.550209441243,3,441
2019_Nov_04,30,001,3,recog,9,CAIRN,LF,lure,-,-,-,liberal,no,m,1,0.667200320852,1,442
2019_Nov_04,30,001,3,recog,10,BUILDING,HF,lure,-,-,-,liberal,no,m,1,2.28448265117,1,443
2019_Nov_04,30,001,3,recog,11,MONEY,HF,lure,-,-,-,conservative,no,m,1,2.20114131363,3,446
2019_Nov_04,30,001,3,recog,12,LOYALIST,LF,lure,-,-,-,conservative,no,m,1,0.683957819934,3,449
2019_Nov_04,30,001,3,recog,13,CLOSE,HF,target,right,aqua,imageability,conservative,no,z,1,0.783901582779,1,450
2019_Nov_04,30,001,3,recog,14,DAMASK,LF,target,left,yellow,pleasantness,conservative,no,m,0,2.13446582401,-1,449
2019_Nov_04,30,001,3,recog,15,TIRADE,LF,lure,-,-,-,conservative,no,z,0,1.41741166844,-3,446
2019_Nov_04,30,001,3,recog,16,HOURS,HF,lure,-,-,-,conservative,no,m,1,0.850740211473,3,449
2019_Nov_04,30,001,3,recog,17,EASILY,HF,lure,-,-,-,conservative,no,m,1,1.88428893726,3,452
2019_Nov_04,30,001,3,recog,18,HEALTH,HF,target,left,yellow,pleasantness,conservative,no,z,1,1.46750342959,1,453
2019_Nov_04,30,001,3,recog,19,MACARONI,LF,target,right,aqua,imageability,conservative,no,z,1,0.633833064368,1,454
2019_Nov_04,30,001,3,recog,20,NINETIES,LF,lure,-,-,-,conservative,yes,z,0,0.783920646221,-3,451
2019_Nov_04,30,001,3,recog,21,TREES,HF,lure,-,-,-,conservative,no,z,0,1.91775224417,-3,448
2019_Nov_04,30,001,3,recog,22,STEADFAST,LF,lure,-,-,-,conservative,no,m,1,1.08418269523,3,451
2019_Nov_04,30,001,3,recog,23,OUGHT,HF,target,right,aqua,imageability,conservative,no,z,1,0.750622311412,1,452
2019_Nov_04,30,001,3,recog,24,MUSIC,HF,lure,-,-,-,conservative,no,m,1,1.80071370596,3,455
2019_Nov_04,30,001,3,recog,25,INCLUDING,HF,lure,-,-,-,liberal,no,m,1,0.917251462202,1,456
2019_Nov_04,30,001,3,recog,26,LIGHT,HF,target,left,yellow,pleasantness,liberal,no,z,1,0.867281780408,3,459
2019_Nov_04,30,001,3,recog,27,EVOCATION,LF,lure,-,-,-,conservative,no,z,0,0.983867561867,-3,456
2019_Nov_04,30,001,3,recog,28,POLICE,HF,lure,-,-,-,liberal,no,z,0,2.48460113779,-1,455
2019_Nov_04,30,001,3,recog,29,INDEED,HF,target,right,aqua,imageability,conservative,no,z,1,4.96886903195,1,456
2019_Nov_04,30,001,3,recog,30,HADJI,LF,lure,-,-,-,conservative,no,m,1,0.800575862602,3,459
2019_Nov_04,30,001,3,recog,31,EMPATHY,LF,target,right,aqua,imageability,conservative,no,z,1,1.2174416567,1,460
2019_Nov_04,30,001,3,recog,32,LOBBIES,LF,target,right,aqua,imageability,conservative,yes,m,0,0.867282147013,-1,459
2019_Nov_04,30,001,3,recog,33,LABOUR,HF,target,left,yellow,pleasantness,conservative,no,z,1,1.01733160198,1,460
2019_Nov_04,30,001,3,recog,34,EFFECT,HF,lure,-,-,-,liberal,no,m,1,1.55115234843,1,461
2019_Nov_04,30,001,3,recog,35,AUGMENT,LF,target,left,yellow,pleasantness,conservative,no,z,1,1.40078578043,1,462
2019_Nov_04,30,001,3,recog,36,POSITION,HF,target,right,aqua,imageability,liberal,no,z,1,1.20069882181,3,465
2019_Nov_04,30,001,3,recog,37,BAWLED,LF,target,right,aqua,imageability,liberal,no,z,1,1.08402945449,3,468
2019_Nov_04,30,001,3,recog,38,INTEREST,HF,target,left,yellow,pleasantness,conservative,no,z,1,1.51755229799,1,469
2019_Nov_04,30,001,3,recog,39,BUCKED,LF,lure,-,-,-,liberal,no,m,1,1.00060049844,1,470
2019_Nov_04,30,001,3,recog,40,THYROID,LF,lure,-,-,-,liberal,no,m,1,0.85057487277,1,471
2019_Nov_04,30,001,3,recog,41,ACROSS,HF,target,right,aqua,imageability,conservative,no,z,1,0.83388666197,1,472
2019_Nov_04,30,001,3,recog,42,EARLIER,HF,target,right,aqua,imageability,liberal,no,z,1,2.0011877991,3,475
2019_Nov_04,30,001,3,recog,43,ARRIVED,HF,target,left,yellow,pleasantness,liberal,no,z,1,0.533781153148,3,478
2019_Nov_04,30,001,3,recog,44,ANOINTED,LF,target,right,aqua,imageability,liberal,no,z,1,0.617304326594,3,481
2019_Nov_04,30,001,3,recog,45,OUTSIDE,HF,lure,-,-,-,liberal,no,z,0,0.567209632611,-1,480
2019_Nov_04,30,001,3,recog,46,AREAS,HF,target,left,yellow,pleasantness,liberal,no,z,1,0.800666047349,3,483
2019_Nov_04,30,001,3,recog,47,KNUCKLE,LF,lure,-,-,-,liberal,no,m,1,4.35198153486,1,484
2019_Nov_04,30,001,3,recog,48,FORCE,HF,lure,-,-,-,conservative,no,m,1,4.9022936254,3,487
2019_Nov_04,30,001,3,recog,49,VOICE,HF,target,right,aqua,imageability,liberal,no,m,0,2.85140449912,-3,484
2019_Nov_04,30,001,3,recog,50,ENMESHED,LF,target,left,yellow,pleasantness,liberal,no,z,1,1.41758030658,3,487
2019_Nov_04,30,001,3,recog,51,COERCION,LF,lure,-,-,-,liberal,no,m,1,0.871469872062,1,488
2019_Nov_04,30,001,3,recog,52,FAMILY,HF,target,left,yellow,pleasantness,conservative,no,z,1,1.5299790962,1,489
2019_Nov_04,30,001,3,recog,53,CIRCUSES,LF,target,left,yellow,pleasantness,liberal,no,z,1,0.950884140462,3,492
2019_Nov_04,30,001,3,recog,54,WOMAN,HF,lure,-,-,-,conservative,no,z,0,1.06745562434,-3,489
2019_Nov_04,30,001,3,recog,55,BUTCHERED,LF,lure,-,-,-,conservative,no,m,1,0.96728346679,3,492
2019_Nov_04,30,001,3,recog,56,RESEARCH,HF,target,left,yellow,pleasantness,liberal,no,z,1,0.733942899124,3,495
2019_Nov_04,30,001,3,recog,57,PEACEABLY,LF,lure,-,-,-,liberal,no,m,1,1.05067099651,1,496
2019_Nov_04,30,001,3,recog,58,FRONT,HF,target,left,yellow,pleasantness,liberal,no,z,1,0.967274301674,3,499
2019_Nov_04,30,001,3,recog,59,REACHED,HF,target,right,aqua,imageability,conservative,no,z,1,1.06731778099,1,500
2019_Nov_04,30,001,3,recog,60,WRONG,HF,target,right,aqua,imageability,liberal,no,z,1,0.950644747619,3,503
2019_Nov_04,30,001,3,recog,61,HECTOR,LF,target,left,yellow,pleasantness,liberal,no,z,1,0.900574982751,3,506
2019_Nov_04,30,001,3,recog,62,PASSED,HF,lure,-,-,-,conservative,no,m,1,0.733889008239,3,509
2019_Nov_04,30,001,3,recog,63,RIDDLES,LF,target,right,aqua,imageability,conservative,no,z,1,0.733994956986,1,510
2019_Nov_04,30,001,3,recog,64,CASES,HF,lure,-,-,-,liberal,no,z,0,0.700482525056,-1,509
2019_Nov_04,30,001,3,recog,65,KNEAD,LF,target,right,aqua,imageability,liberal,no,z,1,4.53539421366,3,512
2019_Nov_04,30,001,3,recog,66,ALONE,HF,lure,-,-,-,conservative,no,m,1,3.80181388655,3,515
2019_Nov_04,30,001,3,recog,67,PICTURE,HF,lure,-,-,-,liberal,no,m,1,0.984164511642,1,516
2019_Nov_04,30,001,3,recog,68,DEEPEN,LF,target,left,yellow,pleasantness,conservative,no,z,1,0.733874344052,1,517
2019_Nov_04,30,001,3,recog,69,COVER,HF,lure,-,-,-,liberal,no,m,1,0.800543601393,1,518
2019_Nov_04,30,001,3,recog,70,CHLORIDE,LF,target,left,yellow,pleasantness,liberal,yes,z,1,0.900786147036,3,521
2019_Nov_04,30,001,3,recog,71,AMBIENCE,LF,target,left,yellow,pleasantness,conservative,no,z,1,0.967398214049,1,522
2019_Nov_04,30,001,3,recog,72,SITTING,HF,lure,-,-,-,liberal,no,m,1,0.867355467944,1,523
2019_Nov_04,30,001,3,recog,73,GLUTINOUS,LF,target,right,aqua,imageability,conservative,no,z,1,0.783870787988,1,524
2019_Nov_04,30,001,3,recog,74,POINT,HF,lure,-,-,-,conservative,no,m,1,0.583947335041,3,527
2019_Nov_04,30,001,3,recog,75,CENTRAL,HF,lure,-,-,-,conservative,no,m,1,0.500384934895,3,530
2019_Nov_04,30,001,3,recog,76,PERHAPS,HF,lure,-,-,-,liberal,no,m,1,0.683793214441,1,531
2019_Nov_04,30,001,3,recog,77,CABLED,LF,lure,-,-,-,liberal,no,m,1,0.533803882637,1,532
2019_Nov_04,30,001,3,recog,78,TALKING,HF,target,right,aqua,imageability,conservative,no,m,0,0.884011050931,-1,531
2019_Nov_04,30,001,3,recog,79,BUSINESS,HF,target,left,yellow,pleasantness,conservative,no,z,1,0.750507564154,1,532
2019_Nov_04,30,001,3,recog,80,PAYOFF,LF,lure,-,-,-,conservative,no,m,1,0.783737343891,3,535
2019_Nov_04,30,001,3,recog,81,NUCLEAR,HF,lure,-,-,-,liberal,no,m,1,0.867251718826,1,536
2019_Nov_04,30,001,3,recog,82,SUAVE,LF,lure,-,-,-,conservative,no,m,1,0.717435424422,3,539
2019_Nov_04,30,001,3,recog,83,ANEMONES,LF,lure,-,-,-,conservative,no,m,1,1.034209714,3,542
2019_Nov_04,30,001,3,recog,84,YEOMAN,LF,target,left,yellow,pleasantness,conservative,no,m,0,0.683930691189,-1,541
2019_Nov_04,30,001,3,recog,85,DUPLICITY,LF,target,right,aqua,imageability,liberal,no,z,1,1.01732683612,3,544
2019_Nov_04,30,001,3,recog,86,OXIDE,LF,lure,-,-,-,conservative,no,m,1,0.950722101202,3,547
2019_Nov_04,30,001,3,recog,87,TOILED,LF,target,left,yellow,pleasantness,liberal,no,z,1,1.46763614047,3,550
2019_Nov_04,30,001,3,recog,88,WALKED,HF,target,right,aqua,imageability,liberal,no,z,1,0.733898173356,3,553
2019_Nov_04,30,001,3,recog,89,TOUSLED,LF,lure,-,-,-,liberal,no,z,0,1.3007562321,-1,552
2019_Nov_04,30,001,3,recog,90,BOMBARDED,LF,lure,-,-,-,liberal,no,m,1,0.950691306411,1,553
2019_Nov_04,30,001,3,recog,91,NEMESIS,LF,target,right,aqua,imageability,conservative,no,z,1,0.900750219779,1,554
2019_Nov_04,30,001,3,recog,92,DIOCESE,LF,lure,-,-,-,conservative,no,m,1,0.667183090433,3,557
2019_Nov_04,30,001,3,recog,93,REWRITE,LF,target,right,aqua,imageability,liberal,no,z,1,0.767080294487,3,560
2019_Nov_04,30,001,3,recog,94,MOUTH,HF,lure,-,-,-,liberal,no,m,1,1.06719753466,1,561
2019_Nov_04,30,001,3,recog,95,MYRIADS,LF,target,left,yellow,pleasantness,liberal,yes,m,0,0.6336310652,-3,558
2019_Nov_04,30,001,4,source,0,WHITE,HF,target,right,aqua,imageability,conservative,no,9,1,2.80132190309,-,-
2019_Nov_04,30,001,4,source,1,UNCANNILY,LF,target,left,yellow,pleasantness,conservative,no,8,0,2.08420725775,-,-
2019_Nov_04,30,001,4,source,2,PSEUDONYM,LF,target,right,aqua,imageability,conservative,no,8,1,1.75094748975,-,-
2019_Nov_04,30,001,4,source,3,EMULATION,LF,target,right,aqua,imageability,liberal,no,3,0,2.9847668431,-,-
2019_Nov_04,30,001,4,source,4,POWER,HF,target,right,aqua,imageability,conservative,no,2,0,3.73506104334,-,-
2019_Nov_04,30,001,4,source,5,FUTURE,HF,target,right,aqua,imageability,liberal,no,8,1,1.73440922025,-,-
2019_Nov_04,30,001,4,source,6,TIDILY,LF,target,left,yellow,pleasantness,conservative,no,2,1,1.60086174092,-,-
2019_Nov_04,30,001,4,source,7,WATCH,HF,target,left,yellow,pleasantness,conservative,no,1,1,2.26788095907,-,-
2019_Nov_04,30,001,4,source,8,REREAD,LF,target,right,aqua,imageability,liberal,yes,7,1,2.25538927183,-,-
2019_Nov_04,30,001,4,source,9,CLEAR,HF,target,right,aqua,imageability,conservative,no,9,1,2.23451883505,-,-
2019_Nov_04,30,001,4,source,10,DECIDED,HF,target,right,aqua,imageability,liberal,no,8,1,4.21861882427,-,-
2019_Nov_04,30,001,4,source,11,UNGAINLY,LF,target,right,aqua,imageability,liberal,yes,8,1,0.717275218185,-,-
2019_Nov_04,30,001,4,source,12,ADDED,HF,target,right,aqua,imageability,liberal,no,2,0,2.56813750901,-,-
2019_Nov_04,30,001,4,source,13,HARDLY,HF,target,left,yellow,pleasantness,conservative,no,3,1,5.43581632227,-,-
2019_Nov_04,30,001,4,source,14,BUZZARD,LF,target,right,aqua,imageability,liberal,no,7,1,4.03526773505,-,-
2019_Nov_04,30,001,4,source,15,TICKLE,LF,target,right,aqua,imageability,liberal,no,9,1,1.78406618827,-,-
2019_Nov_04,30,001,4,source,16,JEOPARDY,LF,target,right,aqua,imageability,conservative,no,9,1,2.13437453945,-,-
2019_Nov_04,30,001,4,source,17,PYJAMA,LF,target,right,aqua,imageability,conservative,no,9,1,0.767045467043,-,-
2019_Nov_04,30,001,4,source,18,CHIEF,HF,target,left,yellow,pleasantness,conservative,no,1,1,1.56758723541,-,-
2019_Nov_04,30,001,4,source,19,PIECE,HF,target,left,yellow,pleasantness,conservative,no,8,0,3.16818905362,-,-
2019_Nov_04,30,001,4,source,20,BINDINGS,LF,target,left,yellow,pleasantness,liberal,no,1,1,1.76745166501,-,-
2019_Nov_04,30,001,4,source,21,ORDER,HF,target,right,aqua,imageability,liberal,no,9,1,1.61757708046,-,-
2019_Nov_04,30,001,4,source,22,BAGGY,LF,target,left,yellow,pleasantness,liberal,no,1,1,1.13413184717,-,-
2019_Nov_04,30,001,4,source,23,SWOOPING,LF,target,left,yellow,pleasantness,liberal,no,1,1,1.21743909047,-,-
2019_Nov_04,30,001,4,source,24,DIDACTIC,LF,target,left,yellow,pleasantness,conservative,no,2,1,1.35076257436,-,-
2019_Nov_04,30,001,4,source,25,SILENCER,LF,target,left,yellow,pleasantness,liberal,no,8,0,1.81351004167,-,-
2019_Nov_04,30,001,4,source,26,RETURN,HF,target,right,aqua,imageability,liberal,no,8,1,2.03434462451,-,-
2019_Nov_04,30,001,4,source,27,BREAK,HF,target,left,yellow,pleasantness,conservative,no,8,0,1.45087020949,-,-
2019_Nov_04,30,001,4,source,28,CELLO,LF,target,left,yellow,pleasantness,liberal,no,1,1,1.45088817311,-,-
2019_Nov_04,30,001,4,source,29,EXCEPT,HF,target,right,aqua,imageability,conservative,yes,3,0,1.20076517725,-,-
2019_Nov_04,30,001,4,source,30,CAMPANILE,LF,target,left,yellow,pleasantness,conservative,no,8,0,2.71811181002,-,-
2019_Nov_04,30,001,4,source,31,TUSKS,LF,target,right,aqua,imageability,conservative,no,9,1,1.2340429822,-,-
2019_Nov_04,30,001,4,source,32,DOUBT,HF,target,right,aqua,imageability,liberal,no,9,1,2.56796447161,-,-
2019_Nov_04,30,001,4,source,33,GARDEN,HF,target,left,yellow,pleasantness,liberal,no,1,1,1.16744557937,-,-
2019_Nov_04,30,001,4,source,34,IRATE,LF,target,right,aqua,imageability,liberal,no,9,1,1.30060079172,-,-
2019_Nov_04,30,001,4,source,35,OFFER,HF,target,left,yellow,pleasantness,conservative,no,1,1,1.65093370541,-,-
2019_Nov_04,30,001,4,source,36,DOCTOR,HF,target,right,aqua,imageability,conservative,no,9,1,1.58421678947,-,-
2019_Nov_04,30,001,4,source,37,HUMAN,HF,target,left,yellow,pleasantness,liberal,no,1,1,1.01737082868,-,-
2019_Nov_04,30,001,4,source,38,HAGGLING,LF,target,left,yellow,pleasantness,liberal,no,2,1,2.13437380624,-,-
2019_Nov_04,30,001,4,source,39,SAMENESS,LF,target,right,aqua,imageability,conservative,yes,8,1,1.60070923338,-,-
2019_Nov_04,30,001,4,source,40,RANGE,HF,target,left,yellow,pleasantness,liberal,no,9,0,1.90095808462,-,-
2019_Nov_04,30,001,4,source,41,HIMSELF,HF,target,right,aqua,imageability,conservative,no,9,1,1.217292082,-,-
2019_Nov_04,30,001,4,source,42,NIGHT,HF,target,left,yellow,pleasantness,liberal,no,1,1,1.1506807482,-,-
2019_Nov_04,30,001,4,source,43,CRONE,LF,target,right,aqua,imageability,conservative,no,2,0,2.30113493471,-,-
2019_Nov_04,30,001,4,source,44,ASKED,HF,target,left,yellow,pleasantness,liberal,no,2,1,2.40122020696,-,-
2019_Nov_04,30,001,4,source,45,DWELT,LF,target,left,yellow,pleasantness,conservative,no,2,1,1.26746962864,-,-
2019_Nov_04,30,001,4,source,46,ITSELF,HF,target,left,yellow,pleasantness,liberal,no,9,0,1.7508968983,-,-
2019_Nov_04,30,001,4,source,47,FRUGAL,LF,target,left,yellow,pleasantness,conservative,no,7,0,1.68421151036,-,-
2019_Nov_04,30,001,4,recog,0,HIGHER,HF,lure,-,-,-,liberal,no,m,1,1.15065361945,1,559
2019_Nov_04,30,001,4,recog,1,CRONE,LF,target,right,aqua,imageability,conservative,no,z,1,0.967375117955,1,560
2019_Nov_04,30,001,4,recog,2,TUSKS,LF,target,right,aqua,imageability,conservative,no,z,1,0.934001262587,1,561
2019_Nov_04,30,001,4,recog,3,REDDENED,LF,lure,-,-,-,conservative,no,m,1,1.43412187552,3,564
2019_Nov_04,30,001,4,recog,4,HAVING,HF,lure,-,-,-,liberal,no,m,1,0.850659558447,1,565
2019_Nov_04,30,001,4,recog,5,WHITE,HF,target,right,aqua,imageability,conservative,no,z,1,1.53424600786,1,566
2019_Nov_04,30,001,4,recog,6,TEETERED,LF,lure,-,-,-,conservative,no,m,1,1.16737409146,3,569
2019_Nov_04,30,001,4,recog,7,CHIEF,HF,target,left,yellow,pleasantness,conservative,no,z,1,0.850551043467,1,570
2019_Nov_04,30,001,4,recog,8,SAMENESS,LF,target,right,aqua,imageability,conservative,no,z,1,1.06746698908,1,571
2019_Nov_04,30,001,4,recog,9,IRATE,LF,target,right,aqua,imageability,liberal,no,z,1,0.567128612981,3,574
2019_Nov_04,30,001,4,recog,10,ENZYME,LF,lure,-,-,-,liberal,no,m,1,0.817253075264,1,575
2019_Nov_04,30,001,4,recog,11,EMULATION,LF,target,right,aqua,imageability,liberal,no,z,1,1.45082511711,3,578
2019_Nov_04,30,001,4,recog,12,POUNDS,HF,lure,-,-,-,liberal,no,m,1,0.717295014837,1,579
2019_Nov_04,30,001,4,recog,13,OFFER,HF,target,left,yellow,pleasantness,conservative,no,z,1,1.00075593881,1,580
2019_Nov_04,30,001,4,recog,14,HUMAN,HF,target,left,yellow,pleasantness,liberal,no,z,1,1.0506460674,3,583
2019_Nov_04,30,001,4,recog,15,BELIEVE,HF,lure,-,-,-,liberal,no,m,1,0.833964382157,1,584
2019_Nov_04,30,001,4,recog,16,MILES,HF,lure,-,-,-,liberal,no,m,1,0.950601854873,1,585
2019_Nov_04,30,001,4,recog,17,ITSELF,HF,target,left,yellow,pleasantness,liberal,no,z,1,0.784192300275,3,588
2019_Nov_04,30,001,4,recog,18,BAGGY,LF,target,left,yellow,pleasantness,liberal,no,z,1,0.900324591767,3,591
2019_Nov_04,30,001,4,recog,19,SEABED,LF,lure,-,-,-,liberal,no,m,1,0.750516729271,1,592
2019_Nov_04,30,001,4,recog,20,DOING,HF,lure,-,-,-,liberal,no,m,1,0.979754257563,1,593
2019_Nov_04,30,001,4,recog,21,TIDILY,LF,target,left,yellow,pleasantness,conservative,no,z,1,2.10117262167,1,594
2019_Nov_04,30,001,4,recog,22,DOUBT,HF,target,right,aqua,imageability,liberal,no,z,1,1.45105901089,3,597
2019_Nov_04,30,001,4,recog,23,FOLLOWED,HF,lure,-,-,-,liberal,no,m,1,0.950657945386,1,598
2019_Nov_04,30,001,4,recog,24,CELLO,LF,target,left,yellow,pleasantness,liberal,no,z,1,0.93400859468,3,601
2019_Nov_04,30,001,4,recog,25,ADVERSELY,LF,lure,-,-,-,conservative,no,m,1,1.60093762808,3,604
2019_Nov_04,30,001,4,recog,26,CLASS,HF,lure,-,-,-,conservative,no,m,1,0.650581398333,3,607
2019_Nov_04,30,001,4,recog,27,HAGGLING,LF,target,left,yellow,pleasantness,liberal,no,z,1,2.60137755368,3,610
2019_Nov_04,30,001,4,recog,28,INLAID,LF,lure,-,-,-,conservative,no,m,1,0.850387904392,3,613
2019_Nov_04,30,001,4,recog,29,SLUGS,LF,lure,-,-,-,liberal,no,m,1,0.983919253124,1,614
2019_Nov_04,30,001,4,recog,30,RIGGING,LF,lure,-,-,-,conservative,no,m,1,0.717164136972,3,617
2019_Nov_04,30,001,4,recog,31,DECIDED,HF,target,right,aqua,imageability,liberal,no,z,1,0.717195298368,3,620
2019_Nov_04,30,001,4,recog,32,DOCTOR,HF,target,right,aqua,imageability,conservative,no,z,1,0.750582718109,1,621
2019_Nov_04,30,001,4,recog,33,SIBLINGS,LF,lure,-,-,-,conservative,no,m,1,1.08387841336,3,624
2019_Nov_04,30,001,4,recog,34,BRING,HF,lure,-,-,-,conservative,no,m,1,0.917276024715,3,627
2019_Nov_04,30,001,4,recog,35,SCHOOL,HF,lure,-,-,-,conservative,no,m,1,0.75072276109,3,630
2019_Nov_04,30,001,4,recog,36,BARBARIAN,LF,lure,-,-,-,liberal,no,m,1,0.683707062346,1,631
2019_Nov_04,30,001,4,recog,37,ALABASTER,LF,lure,-,-,-,liberal,no,m,1,0.750614612715,1,632
2019_Nov_04,30,001,4,recog,38,WRITE,HF,lure,-,-,-,conservative,no,m,1,0.717173302089,3,635
2019_Nov_04,30,001,4,recog,39,SOAPY,LF,lure,-,-,-,conservative,no,m,1,0.667255311551,3,638
2019_Nov_04,30,001,4,recog,40,HICKORY,LF,lure,-,-,-,conservative,no,m,1,0.683666735832,3,641
2019_Nov_04,30,001,4,recog,41,UNGAINLY,LF,target,right,aqua,imageability,liberal,no,z,1,0.917355211323,3,644
2019_Nov_04,30,001,4,recog,42,REPORT,HF,lure,-,-,-,conservative,no,m,1,1.08411597318,3,647
2019_Nov_04,30,001,4,recog,43,TICKLE,LF,target,right,aqua,imageability,liberal,no,z,1,0.650471416935,3,650
2019_Nov_04,30,001,4,recog,44,FRUGAL,LF,target,left,yellow,pleasantness,conservative,no,z,1,0.95061578585,1,651
2019_Nov_04,30,001,4,recog,45,SWOOPING,LF,target,left,yellow,pleasantness,liberal,no,z,1,0.600568823793,3,654
2019_Nov_04,30,001,4,recog,46,VALUE,HF,lure,-,-,-,conservative,no,m,1,0.633902352649,3,657
2019_Nov_04,30,001,4,recog,47,PAPER,HF,lure,-,-,-,conservative,no,m,1,0.667209485969,3,660
2019_Nov_04,30,001,4,recog,48,TRUTH,HF,lure,-,-,-,conservative,no,m,1,0.483834567446,3,663
2019_Nov_04,30,001,4,recog,49,MOVED,HF,lure,-,-,-,conservative,no,m,1,0.550487327577,3,666
2019_Nov_04,30,001,4,recog,50,IGNOBLE,LF,lure,-,-,-,liberal,yes,z,0,0.938283571639,-1,665
2019_Nov_04,30,001,4,recog,51,WATCH,HF,target,left,yellow,pleasantness,conservative,no,m,0,1.34668336429,-1,664
2019_Nov_04,30,001,4,recog,52,HIMSELF,HF,target,right,aqua,imageability,conservative,no,z,1,0.700457229334,1,665
2019_Nov_04,30,001,4,recog,53,GARDEN,HF,target,left,yellow,pleasantness,liberal,no,z,1,0.650499278889,3,668
2019_Nov_04,30,001,4,recog,54,UNCANNILY,LF,target,left,yellow,pleasantness,conservative,no,z,1,0.767300990493,1,669
2019_Nov_04,30,001,4,recog,55,ASKED,HF,target,left,yellow,pleasantness,liberal,no,z,1,0.750689766671,3,672
2019_Nov_04,30,001,4,recog,56,ABHORRENT,LF,lure,-,-,-,conservative,no,m,1,0.767267996073,3,675
2019_Nov_04,30,001,4,recog,57,CLEAR,HF,target,right,aqua,imageability,conservative,no,z,1,0.700490590359,1,676
2019_Nov_04,30,001,4,recog,58,SILENCER,LF,target,left,yellow,pleasantness,liberal,no,z,1,0.634117549585,3,679
2019_Nov_04,30,001,4,recog,59,ROTARY,LF,lure,-,-,-,liberal,no,m,1,0.767258097747,1,680
2019_Nov_04,30,001,4,recog,60,EXCEPT,HF,target,right,aqua,imageability,conservative,no,m,0,0.700545214452,-1,679
2019_Nov_04,30,001,4,recog,61,SAYING,HF,lure,-,-,-,conservative,no,m,1,1.18404397203,3,682
2019_Nov_04,30,001,4,recog,62,BREAK,HF,target,left,yellow,pleasantness,conservative,no,z,1,0.733871777819,1,683
2019_Nov_04,30,001,4,recog,63,KNOWLEDGE,HF,lure,-,-,-,liberal,no,m,1,0.933982932354,1,684
2019_Nov_04,30,001,4,recog,64,JEOPARDY,LF,target,right,aqua,imageability,conservative,no,z,1,1.05074358424,1,685
2019_Nov_04,30,001,4,recog,65,PSEUDONYM,LF,target,right,aqua,imageability,conservative,no,z,1,1.13402259898,1,686
2019_Nov_04,30,001,4,recog,66,DIDACTIC,LF,target,left,yellow,pleasantness,conservative,no,z,1,0.633847728554,1,687
2019_Nov_04,30,001,4,recog,67,BUMBLING,LF,lure,-,-,-,liberal,no,m,1,0.733677843954,1,688
2019_Nov_04,30,001,4,recog,68,PYJAMA,LF,target,right,aqua,imageability,conservative,no,z,1,0.633548945754,1,689
2019_Nov_04,30,001,4,recog,69,RETURN,HF,target,right,aqua,imageability,liberal,no,z,1,0.767328852447,3,692
2019_Nov_04,30,001,4,recog,70,RANGE,HF,target,left,yellow,pleasantness,liberal,no,z,1,0.48384739861,3,695
2019_Nov_04,30,001,4,recog,71,CAMPANILE,LF,target,left,yellow,pleasantness,conservative,yes,m,0,0.716976068781,-1,694
2019_Nov_04,30,001,4,recog,72,BROUGHT,HF,lure,-,-,-,liberal,yes,z,0,0.700597638919,-1,693
2019_Nov_04,30,001,4,recog,73,NUTSHELL,LF,lure,-,-,-,liberal,no,m,1,1.80093146912,1,694
2019_Nov_04,30,001,4,recog,74,BUZZARD,LF,target,right,aqua,imageability,liberal,no,m,0,1.96767243434,-3,691
2019_Nov_04,30,001,4,recog,75,DWELT,LF,target,left,yellow,pleasantness,conservative,no,m,0,0.700594706082,-1,690
2019_Nov_04,30,001,4,recog,76,FIGURE,HF,lure,-,-,-,liberal,no,z,0,1.36749257809,-1,689
2019_Nov_04,30,001,4,recog,77,ORDER,HF,target,right,aqua,imageability,liberal,no,m,0,1.2842887173,-3,686
2019_Nov_04,30,001,4,recog,78,OPULENCE,LF,lure,-,-,-,conservative,no,m,1,2.15112470644,3,689
2019_Nov_04,30,001,4,recog,79,NEGATION,LF,lure,-,-,-,liberal,no,m,1,0.616884930861,1,690
2019_Nov_04,30,001,4,recog,80,ADDED,HF,target,right,aqua,imageability,liberal,no,m,0,0.583819756618,-3,687
2019_Nov_04,30,001,4,recog,81,THING,HF,lure,-,-,-,liberal,no,m,1,0.921579596838,1,688
2019_Nov_04,30,001,4,recog,82,PIECE,HF,target,left,yellow,pleasantness,conservative,no,z,1,1.13402589842,1,689
2019_Nov_04,30,001,4,recog,83,VICEREGAL,LF,lure,-,-,-,conservative,no,m,1,0.900614209449,3,692
2019_Nov_04,30,001,4,recog,84,DREADING,LF,lure,-,-,-,liberal,no,m,1,0.600464341464,1,693
2019_Nov_04,30,001,4,recog,85,FUTURE,HF,target,right,aqua,imageability,liberal,no,z,1,1.15072657378,3,696
2019_Nov_04,30,001,4,recog,86,HOSPITAL,HF,lure,-,-,-,conservative,no,m,1,0.833900592947,3,699
2019_Nov_04,30,001,4,recog,87,MOCCASINS,LF,lure,-,-,-,conservative,no,m,1,0.683892930909,3,702
2019_Nov_04,30,001,4,recog,88,POWER,HF,target,right,aqua,imageability,conservative,no,z,1,0.750619378576,1,703
2019_Nov_04,30,001,4,recog,89,STYLED,LF,lure,-,-,-,liberal,yes,z,0,0.917246696342,-1,702
2019_Nov_04,30,001,4,recog,90,TRYING,HF,lure,-,-,-,liberal,no,m,1,1.6175800133,1,703
2019_Nov_04,30,001,4,recog,91,HARDLY,HF,target,left,yellow,pleasantness,conservative,no,z,1,0.850683021145,1,704
2019_Nov_04,30,001,4,recog,92,BINDINGS,LF,target,left,yellow,pleasantness,liberal,no,z,1,0.717159737716,3,707
2019_Nov_04,30,001,4,recog,93,NIGHT,HF,target,left,yellow,pleasantness,liberal,no,z,1,0.533709298634,3,710
2019_Nov_04,30,001,4,recog,94,SORRY,HF,lure,-,-,-,conservative,no,m,1,0.95063778213,3,713
2019_Nov_04,30,001,4,recog,95,REREAD,LF,target,right,aqua,imageability,liberal,no,z,1,0.950695339062,3,716
