date,subj,session,cycle,task,trial,item,wf,type,source,colour,encoding,bias,null,response,corr,rt,points,total
2019_Nov_06,31,001,0,source,0,PEOPLED,LF,target,left,aqua,imageability,conservative,no,3,1,4.08342712303,-,-
2019_Nov_06,31,001,0,source,1,NORTH,HF,target,right,yellow,pleasantness,conservative,no,8,1,3.78314454415,-,-
2019_Nov_06,31,001,0,source,2,REACHED,HF,target,left,aqua,imageability,conservative,no,2,1,3.8498618267,-,-
2019_Nov_06,31,001,0,source,3,ICEBOX,LF,target,left,aqua,imageability,liberal,no,3,1,3.8500663921,-,-
2019_Nov_06,31,001,0,source,4,QUICKLY,HF,target,left,aqua,imageability,conservative,no,2,1,2.15020342893,-,-
2019_Nov_06,31,001,0,source,5,EXACTLY,HF,target,right,yellow,pleasantness,conservative,no,8,1,2.6834280762,-,-
2019_Nov_06,31,001,0,source,6,JOSTLED,LF,target,right,yellow,pleasantness,conservative,no,9,1,2.05011009138,-,-
2019_Nov_06,31,001,0,source,7,EATERS,LF,target,left,aqua,imageability,conservative,no,2,1,2.15026208567,-,-
2019_Nov_06,31,001,0,source,8,INFECT,LF,target,left,aqua,imageability,conservative,no,1,1,1.63348735617,-,-
2019_Nov_06,31,001,0,source,9,CARRIED,HF,target,right,yellow,pleasantness,liberal,no,7,1,2.98324983301,-,-
2019_Nov_06,31,001,0,source,10,HIPPY,LF,target,left,aqua,imageability,liberal,no,1,1,1.43354483978,-,-
2019_Nov_06,31,001,0,source,11,JEERED,LF,target,right,yellow,pleasantness,conservative,no,8,1,1.73350224032,-,-
2019_Nov_06,31,001,0,source,12,MESSED,LF,target,right,yellow,pleasantness,conservative,no,8,1,2.31681754893,-,-
2019_Nov_06,31,001,0,source,13,RADIAL,LF,target,left,aqua,imageability,liberal,no,2,1,1.63348259031,-,-
2019_Nov_06,31,001,0,source,14,PLIABLE,LF,target,right,yellow,pleasantness,conservative,no,8,1,1.30016306575,-,-
2019_Nov_06,31,001,0,source,15,ROUND,HF,target,left,aqua,imageability,liberal,no,2,1,2.11683213979,-,-
2019_Nov_06,31,001,0,source,16,APART,HF,target,right,yellow,pleasantness,conservative,no,3,0,2.33348596307,-,-
2019_Nov_06,31,001,0,source,17,FARAWAY,LF,target,left,aqua,imageability,liberal,yes,3,1,2.26678554434,-,-
2019_Nov_06,31,001,0,source,18,ALREADY,HF,target,left,aqua,imageability,conservative,no,2,1,3.36683892198,-,-
2019_Nov_06,31,001,0,source,19,BROUGHT,HF,target,left,aqua,imageability,conservative,no,8,0,2.50018953461,-,-
2019_Nov_06,31,001,0,source,20,FICKLE,LF,target,left,aqua,imageability,liberal,no,2,1,1.86689501249,-,-
2019_Nov_06,31,001,0,source,21,BEECHES,LF,target,left,aqua,imageability,conservative,yes,2,1,1.4168419648,-,-
2019_Nov_06,31,001,0,source,22,HOWEVER,HF,target,left,aqua,imageability,liberal,no,8,0,2.84992121666,-,-
2019_Nov_06,31,001,0,source,23,FOLLOWED,HF,target,right,yellow,pleasantness,conservative,no,1,0,3.43322039466,-,-
2019_Nov_06,31,001,0,source,24,USUAL,HF,target,right,yellow,pleasantness,liberal,no,9,1,2.76681707234,-,-
2019_Nov_06,31,001,0,source,25,FOOLHARDY,LF,target,left,aqua,imageability,conservative,no,3,1,3.25011566377,-,-
2019_Nov_06,31,001,0,source,26,SAYING,HF,target,right,yellow,pleasantness,liberal,no,2,0,2.1001288982,-,-
2019_Nov_06,31,001,0,source,27,DOING,HF,target,left,aqua,imageability,conservative,yes,3,1,0.933345040242,-,-
2019_Nov_06,31,001,0,source,28,KIBBUTZIM,LF,target,right,yellow,pleasantness,liberal,no,9,1,2.53343581156,-,-
2019_Nov_06,31,001,0,source,29,HEDGED,LF,target,right,yellow,pleasantness,conservative,no,9,1,2.1668267507,-,-
2019_Nov_06,31,001,0,source,30,WAITING,HF,target,right,yellow,pleasantness,conservative,no,2,0,3.65011617702,-,-
2019_Nov_06,31,001,0,source,31,TURNED,HF,target,right,yellow,pleasantness,liberal,no,7,1,3.88341165231,-,-
2019_Nov_06,31,001,0,source,32,HORDE,LF,target,right,yellow,pleasantness,liberal,no,8,1,1.30012970473,-,-
2019_Nov_06,31,001,0,source,33,FLUFF,LF,target,right,yellow,pleasantness,liberal,no,9,1,1.43354044053,-,-
2019_Nov_06,31,001,0,source,34,WICKEDLY,LF,target,right,yellow,pleasantness,liberal,no,7,1,3.45014066621,-,-
2019_Nov_06,31,001,0,source,35,ELLIPSE,LF,target,right,yellow,pleasantness,liberal,no,8,1,1.45026971105,-,-
2019_Nov_06,31,001,0,source,36,EVIDENCE,HF,target,left,aqua,imageability,liberal,no,2,1,2.61664553802,-,-
2019_Nov_06,31,001,0,source,37,QUESTION,HF,target,right,yellow,pleasantness,liberal,no,7,1,2.36676816728,-,-
2019_Nov_06,31,001,0,source,38,SCHOOL,HF,target,left,aqua,imageability,liberal,no,2,1,2.38353263185,-,-
2019_Nov_06,31,001,0,source,39,EXUDED,LF,target,right,yellow,pleasantness,conservative,no,8,1,1.46689486585,-,-
2019_Nov_06,31,001,0,source,40,LONGER,HF,target,left,aqua,imageability,conservative,no,2,1,3.13339717143,-,-
2019_Nov_06,31,001,0,source,41,TODAY,HF,target,left,aqua,imageability,liberal,no,2,1,3.8501521776,-,-
2019_Nov_06,31,001,0,source,42,FAMILY,HF,target,right,yellow,pleasantness,conservative,yes,2,0,0.900226708323,-,-
2019_Nov_06,31,001,0,source,43,FORCE,HF,target,left,aqua,imageability,liberal,no,9,0,2.03345780784,-,-
2019_Nov_06,31,001,0,source,44,GADGET,LF,target,right,yellow,pleasantness,liberal,no,9,1,3.43343119234,-,-
2019_Nov_06,31,001,0,source,45,ROWAN,LF,target,left,aqua,imageability,liberal,no,3,1,2.08354883577,-,-
2019_Nov_06,31,001,0,source,46,EUPHEMISM,LF,target,left,aqua,imageability,conservative,no,2,1,3.63340926938,-,-
2019_Nov_06,31,001,0,source,47,ENOUGH,HF,target,right,yellow,pleasantness,liberal,no,8,1,1.68331149592,-,-
2019_Nov_06,31,001,0,recog,0,NORTH,HF,target,right,yellow,pleasantness,conservative,no,z,1,2.25010429903,1,1
2019_Nov_06,31,001,0,recog,1,ADENOIDS,LF,lure,-,-,-,liberal,no,m,1,1.3667700003,1,2
2019_Nov_06,31,001,0,recog,2,CRUCIALLY,LF,lure,-,-,-,conservative,no,m,1,1.40028243223,3,5
2019_Nov_06,31,001,0,recog,3,FORCE,HF,target,left,aqua,imageability,liberal,no,z,1,3.6667479307,3,8
2019_Nov_06,31,001,0,recog,4,TURNED,HF,target,right,yellow,pleasantness,liberal,no,z,1,1.40020031279,3,11
2019_Nov_06,31,001,0,recog,5,AVENGE,LF,lure,-,-,-,conservative,no,m,1,1.25032316201,3,14
2019_Nov_06,31,001,0,recog,6,CANNOT,HF,lure,-,-,-,liberal,no,z,0,2.04991909035,-1,13
2019_Nov_06,31,001,0,recog,7,DOODLE,LF,lure,-,-,-,liberal,no,m,1,1.3501606095,1,14
2019_Nov_06,31,001,0,recog,8,HIPPY,LF,target,left,aqua,imageability,liberal,no,z,1,1.11683837207,3,17
2019_Nov_06,31,001,0,recog,9,DUBIOUSLY,LF,lure,-,-,-,conservative,no,m,1,2.5334710056,3,20
2019_Nov_06,31,001,0,recog,10,DOCTOR,HF,lure,-,-,-,liberal,no,m,1,1.15018619851,1,21
2019_Nov_06,31,001,0,recog,11,TWOFOLD,LF,lure,-,-,-,liberal,no,m,1,1.03356155696,1,22
2019_Nov_06,31,001,0,recog,12,ADMIRALS,LF,lure,-,-,-,conservative,no,m,1,1.26691788862,3,25
2019_Nov_06,31,001,0,recog,13,AHEAD,HF,lure,-,-,-,conservative,no,m,1,0.850213033969,3,28
2019_Nov_06,31,001,0,recog,14,PLACE,HF,lure,-,-,-,liberal,no,m,1,1.05029962599,1,29
2019_Nov_06,31,001,0,recog,15,HOWEVER,HF,target,left,aqua,imageability,liberal,no,z,1,1.150303512,3,32
2019_Nov_06,31,001,0,recog,16,MAPPED,LF,lure,-,-,-,conservative,no,z,0,1.48353431823,-3,29
2019_Nov_06,31,001,0,recog,17,ANNALS,LF,lure,-,-,-,liberal,no,m,1,1.78348035402,1,30
2019_Nov_06,31,001,0,recog,18,FICKLE,LF,target,left,aqua,imageability,liberal,no,z,1,1.15021919293,3,33
2019_Nov_06,31,001,0,recog,19,BEECHES,LF,target,left,aqua,imageability,conservative,no,m,0,1.81688537079,-1,32
2019_Nov_06,31,001,0,recog,20,BIGNESS,LF,lure,-,-,-,liberal,no,m,1,3.03334416039,1,33
2019_Nov_06,31,001,0,recog,21,NOSTRIL,LF,lure,-,-,-,conservative,no,m,1,1.53349630133,3,36
2019_Nov_06,31,001,0,recog,22,TABLE,HF,lure,-,-,-,liberal,no,m,1,2.16680365461,1,37
2019_Nov_06,31,001,0,recog,23,SCHOOL,HF,target,left,aqua,imageability,liberal,no,m,0,1.45019932295,-3,34
2019_Nov_06,31,001,0,recog,24,MEETING,HF,lure,-,-,-,conservative,no,m,1,4.88334896291,3,37
2019_Nov_06,31,001,0,recog,25,APART,HF,target,right,yellow,pleasantness,conservative,no,z,1,1.15024558846,1,38
2019_Nov_06,31,001,0,recog,26,LOANED,LF,lure,-,-,-,conservative,no,m,1,1.36684222142,3,41
2019_Nov_06,31,001,0,recog,27,LABOUR,HF,lure,-,-,-,liberal,yes,z,0,1.56686319121,-1,40
2019_Nov_06,31,001,0,recog,28,SYSTEM,HF,lure,-,-,-,conservative,no,z,0,4.35004842848,-3,37
2019_Nov_06,31,001,0,recog,29,LOCAL,HF,lure,-,-,-,liberal,no,m,1,4.66673839898,1,38
2019_Nov_06,31,001,0,recog,30,SAYING,HF,target,right,yellow,pleasantness,liberal,no,z,1,2.21682392785,3,41
2019_Nov_06,31,001,0,recog,31,MONEY,HF,lure,-,-,-,conservative,no,m,1,1.66681428614,3,44
2019_Nov_06,31,001,0,recog,32,KIBBUTZIM,LF,target,right,yellow,pleasantness,liberal,no,z,1,1.05018817817,3,47
2019_Nov_06,31,001,0,recog,33,JEERED,LF,target,right,yellow,pleasantness,conservative,no,z,1,2.15015760334,1,48
2019_Nov_06,31,001,0,recog,34,ROUND,HF,target,left,aqua,imageability,liberal,no,z,1,1.73355796423,3,51
2019_Nov_06,31,001,0,recog,35,EVIDENCE,HF,target,left,aqua,imageability,liberal,no,z,1,2.26679544266,3,54
2019_Nov_06,31,001,0,recog,36,FOOLHARDY,LF,target,left,aqua,imageability,conservative,no,z,1,0.883604486361,1,55
2019_Nov_06,31,001,0,recog,37,OFTEN,HF,lure,-,-,-,liberal,no,m,1,2.13348698957,1,56
2019_Nov_06,31,001,0,recog,38,ICEBOX,LF,target,left,aqua,imageability,liberal,no,z,1,0.916884857541,3,59
2019_Nov_06,31,001,0,recog,39,QUICKLY,HF,target,left,aqua,imageability,conservative,no,z,1,2.41682400117,1,60
2019_Nov_06,31,001,0,recog,40,CERTAIN,HF,lure,-,-,-,liberal,no,z,0,1.2668845276,-1,59
2019_Nov_06,31,001,0,recog,41,NUMBER,HF,lure,-,-,-,conservative,no,m,1,1.08355213522,3,62
2019_Nov_06,31,001,0,recog,42,DOING,HF,target,left,aqua,imageability,conservative,no,z,1,2.15010921153,1,63
2019_Nov_06,31,001,0,recog,43,FOLLOWED,HF,target,right,yellow,pleasantness,conservative,no,z,1,3.41686506089,1,64
2019_Nov_06,31,001,0,recog,44,EUPHEMISM,LF,target,left,aqua,imageability,conservative,no,z,1,3.10007317429,1,65
2019_Nov_06,31,001,0,recog,45,EXACTLY,HF,target,right,yellow,pleasantness,conservative,no,z,1,2.94988954202,1,66
2019_Nov_06,31,001,0,recog,46,JOSTLED,LF,target,right,yellow,pleasantness,conservative,no,z,1,1.25021501363,1,67
2019_Nov_06,31,001,0,recog,47,AFTERNOON,HF,lure,-,-,-,conservative,yes,z,0,0.916946813729,-3,64
2019_Nov_06,31,001,0,recog,48,FARAWAY,LF,target,left,aqua,imageability,liberal,no,z,1,4.3833163351,3,67
2019_Nov_06,31,001,0,recog,49,OFFER,HF,lure,-,-,-,conservative,no,z,0,1.8168784053,-3,64
2019_Nov_06,31,001,0,recog,50,ELLIPSE,LF,target,right,yellow,pleasantness,liberal,no,z,1,1.65019169758,3,67
2019_Nov_06,31,001,0,recog,51,KIMONO,LF,lure,-,-,-,conservative,yes,m,1,1.28354817589,3,70
2019_Nov_06,31,001,0,recog,52,ALREADY,HF,target,left,aqua,imageability,conservative,no,z,1,3.45009777346,1,71
2019_Nov_06,31,001,0,recog,53,INFECT,LF,target,left,aqua,imageability,conservative,no,z,1,0.900192980694,1,72
2019_Nov_06,31,001,0,recog,54,TADPOLES,LF,lure,-,-,-,liberal,no,m,1,1.13354308008,1,73
2019_Nov_06,31,001,0,recog,55,DOTTY,LF,lure,-,-,-,liberal,no,m,1,1.03366054021,1,74
2019_Nov_06,31,001,0,recog,56,QUESTION,HF,target,right,yellow,pleasantness,liberal,no,z,1,1.03351866421,3,77
2019_Nov_06,31,001,0,recog,57,MESSED,LF,target,right,yellow,pleasantness,conservative,no,z,1,1.31687437265,1,78
2019_Nov_06,31,001,0,recog,58,PEOPLED,LF,target,left,aqua,imageability,conservative,yes,m,0,1.16692720038,-1,77
2019_Nov_06,31,001,0,recog,59,GADGET,LF,target,right,yellow,pleasantness,liberal,no,z,1,2.84993441443,3,80
2019_Nov_06,31,001,0,recog,60,NUTSHELL,LF,lure,-,-,-,conservative,no,m,1,1.00022362884,3,83
2019_Nov_06,31,001,0,recog,61,FLUFF,LF,target,right,yellow,pleasantness,liberal,no,z,1,1.05025819966,3,86
2019_Nov_06,31,001,0,recog,62,PLIABLE,LF,target,right,yellow,pleasantness,conservative,no,z,1,1.78354304342,1,87
2019_Nov_06,31,001,0,recog,63,LONGER,HF,target,left,aqua,imageability,conservative,no,z,1,1.15015247088,1,88
2019_Nov_06,31,001,0,recog,64,HICKORY,LF,lure,-,-,-,liberal,no,m,1,0.983521120461,1,89
2019_Nov_06,31,001,0,recog,65,HEDGED,LF,target,right,yellow,pleasantness,conservative,no,z,1,1.06684192814,1,90
2019_Nov_06,31,001,0,recog,66,CARRIED,HF,target,right,yellow,pleasantness,liberal,no,z,1,2.58349971075,3,93
2019_Nov_06,31,001,0,recog,67,WICKEDLY,LF,target,right,yellow,pleasantness,liberal,no,z,1,0.783569072351,3,96
2019_Nov_06,31,001,0,recog,68,HORDE,LF,target,right,yellow,pleasantness,liberal,no,z,1,0.916865794099,3,99
2019_Nov_06,31,001,0,recog,69,ENOUGH,HF,target,right,yellow,pleasantness,liberal,no,z,1,0.983390975806,3,102
2019_Nov_06,31,001,0,recog,70,EXUDED,LF,target,right,yellow,pleasantness,conservative,no,z,1,1.20026806133,1,103
2019_Nov_06,31,001,0,recog,71,WAITING,HF,target,right,yellow,pleasantness,conservative,no,z,1,1.41682510098,1,104
2019_Nov_06,31,001,0,recog,72,VIBRATE,LF,lure,-,-,-,liberal,no,m,1,0.883570025523,1,105
2019_Nov_06,31,001,0,recog,73,EATERS,LF,target,left,aqua,imageability,conservative,no,z,1,0.883590555384,1,106
2019_Nov_06,31,001,0,recog,74,ELUDE,LF,lure,-,-,-,liberal,no,m,1,1.05027066422,1,107
2019_Nov_06,31,001,0,recog,75,REACHED,HF,target,left,aqua,imageability,conservative,no,z,1,1.1835307255,1,108
2019_Nov_06,31,001,0,recog,76,MODERN,HF,lure,-,-,-,conservative,no,m,1,0.950243315514,3,111
2019_Nov_06,31,001,0,recog,77,FOUND,HF,lure,-,-,-,liberal,no,m,1,2.0834876128,1,112
2019_Nov_06,31,001,0,recog,78,REQUIRED,HF,lure,-,-,-,liberal,no,m,1,0.866853952768,1,113
2019_Nov_06,31,001,0,recog,79,ROWAN,LF,target,left,aqua,imageability,liberal,no,z,1,0.850254460295,3,116
2019_Nov_06,31,001,0,recog,80,MYRIADS,LF,lure,-,-,-,liberal,no,m,1,1.41690868684,1,117
2019_Nov_06,31,001,0,recog,81,RESEARCH,HF,lure,-,-,-,liberal,no,m,1,1.56687968842,1,118
2019_Nov_06,31,001,0,recog,82,BROUGHT,HF,target,left,aqua,imageability,conservative,no,z,1,0.950237816444,1,119
2019_Nov_06,31,001,0,recog,83,CHOICE,HF,lure,-,-,-,conservative,no,z,0,2.06680966693,-3,116
2019_Nov_06,31,001,0,recog,84,TODAY,HF,target,left,aqua,imageability,liberal,no,z,1,4.15005348762,3,119
2019_Nov_06,31,001,0,recog,85,NUCLEAR,HF,lure,-,-,-,conservative,no,m,1,1.3335354547,3,122
2019_Nov_06,31,001,0,recog,86,ANSWER,HF,lure,-,-,-,conservative,no,z,0,2.11679474612,-3,119
2019_Nov_06,31,001,0,recog,87,FAMILY,HF,target,right,yellow,pleasantness,conservative,no,z,1,1.91679650582,1,120
2019_Nov_06,31,001,0,recog,88,GUESSWORK,LF,lure,-,-,-,conservative,no,m,1,0.999989368465,3,123
2019_Nov_06,31,001,0,recog,89,WIRING,LF,lure,-,-,-,liberal,no,m,1,1.15024338883,1,124
2019_Nov_06,31,001,0,recog,90,USUAL,HF,target,right,yellow,pleasantness,liberal,no,z,1,1.90023733986,3,127
2019_Nov_06,31,001,0,recog,91,RADIAL,LF,target,left,aqua,imageability,liberal,no,z,1,1.46685233971,3,130
2019_Nov_06,31,001,0,recog,92,NARRATOR,LF,lure,-,-,-,conservative,no,m,1,2.25012189605,3,133
2019_Nov_06,31,001,0,recog,93,GLASS,HF,lure,-,-,-,conservative,no,m,1,1.98350279023,3,136
2019_Nov_06,31,001,0,recog,94,BECAME,HF,lure,-,-,-,liberal,no,m,1,1.7168514232,1,137
2019_Nov_06,31,001,0,recog,95,PETERED,LF,lure,-,-,-,conservative,no,m,1,1.90021167753,3,140
2019_Nov_06,31,001,1,source,0,NEOLITHIC,LF,target,right,yellow,pleasantness,liberal,no,8,1,2.55014711845,-,-
2019_Nov_06,31,001,1,source,1,LANGUAGE,HF,target,left,aqua,imageability,conservative,no,7,0,2.88345967752,-,-
2019_Nov_06,31,001,1,source,2,FREEDOM,HF,target,left,aqua,imageability,liberal,yes,7,0,1.11688859691,-,-
2019_Nov_06,31,001,1,source,3,BLACK,HF,target,left,aqua,imageability,conservative,yes,7,0,1.08355396824,-,-
2019_Nov_06,31,001,1,source,4,CUDDLE,LF,target,left,aqua,imageability,liberal,no,2,1,3.35015547704,-,-
2019_Nov_06,31,001,1,source,5,SLEEP,HF,target,right,yellow,pleasantness,conservative,no,9,1,2.06681956525,-,-
2019_Nov_06,31,001,1,source,6,JANGLING,LF,target,left,aqua,imageability,liberal,no,2,1,4.04984943547,-,-
2019_Nov_06,31,001,1,source,7,LEDGES,LF,target,right,yellow,pleasantness,conservative,no,8,1,2.05023693659,-,-
2019_Nov_06,31,001,1,source,8,BLEACH,LF,target,left,aqua,imageability,conservative,no,2,1,2.10000865187,-,-
2019_Nov_06,31,001,1,source,9,FUDGE,LF,target,right,yellow,pleasantness,conservative,no,9,1,3.13339900445,-,-
2019_Nov_06,31,001,1,source,10,ANEMONES,LF,target,right,yellow,pleasantness,conservative,yes,3,0,1.71687781873,-,-
2019_Nov_06,31,001,1,source,11,TEETERED,LF,target,right,yellow,pleasantness,conservative,no,8,1,2.76654798452,-,-
2019_Nov_06,31,001,1,source,12,SPACE,HF,target,left,aqua,imageability,liberal,no,2,1,1.28351958072,-,-
2019_Nov_06,31,001,1,source,13,QUOTAS,LF,target,left,aqua,imageability,liberal,no,2,1,1.13354234687,-,-
2019_Nov_06,31,001,1,source,14,VETOED,LF,target,left,aqua,imageability,conservative,no,2,1,1.68357435146,-,-
2019_Nov_06,31,001,1,source,15,THANK,HF,target,right,yellow,pleasantness,liberal,no,7,1,2.18349993071,-,-
2019_Nov_06,31,001,1,source,16,SOMEONE,HF,target,right,yellow,pleasantness,liberal,no,8,1,1.76684493429,-,-
2019_Nov_06,31,001,1,source,17,TASSELS,LF,target,left,aqua,imageability,conservative,no,1,1,1.783557341,-,-
2019_Nov_06,31,001,1,source,18,BUILDING,HF,target,right,yellow,pleasantness,liberal,no,8,1,2.08351437494,-,-
2019_Nov_06,31,001,1,source,19,BIJOU,LF,target,right,yellow,pleasantness,liberal,no,9,1,1.21688918348,-,-
2019_Nov_06,31,001,1,source,20,PRACTICE,HF,target,left,aqua,imageability,conservative,no,2,1,2.75013729345,-,-
2019_Nov_06,31,001,1,source,21,DOSSIERS,LF,target,right,yellow,pleasantness,liberal,no,8,1,1.26683576918,-,-
2019_Nov_06,31,001,1,source,22,HANDS,HF,target,right,yellow,pleasantness,liberal,no,9,1,1.36668091537,-,-
2019_Nov_06,31,001,1,source,23,SUDDENLY,HF,target,left,aqua,imageability,conservative,no,1,1,1.63351705115,-,-
2019_Nov_06,31,001,1,source,24,KETCHUP,LF,target,right,yellow,pleasantness,conservative,yes,3,0,1.75003097809,-,-
2019_Nov_06,31,001,1,source,25,RUNNING,HF,target,right,yellow,pleasantness,liberal,no,8,1,3.48342140399,-,-
2019_Nov_06,31,001,1,source,26,NOTHING,HF,target,right,yellow,pleasantness,conservative,no,8,1,1.75027696982,-,-
2019_Nov_06,31,001,1,source,27,ORDER,HF,target,left,aqua,imageability,liberal,no,2,1,3.14992150994,-,-
2019_Nov_06,31,001,1,source,28,IMPORTANT,HF,target,right,yellow,pleasantness,conservative,no,8,1,1.50020309898,-,-
2019_Nov_06,31,001,1,source,29,INDEED,HF,target,left,aqua,imageability,conservative,no,2,1,1.23354366665,-,-
2019_Nov_06,31,001,1,source,30,CUTLER,LF,target,left,aqua,imageability,liberal,no,1,1,1.83346836605,-,-
2019_Nov_06,31,001,1,source,31,DRINK,HF,target,right,yellow,pleasantness,conservative,no,9,1,3.01678206159,-,-
2019_Nov_06,31,001,1,source,32,PIANOS,LF,target,left,aqua,imageability,conservative,no,3,1,3.55008589547,-,-
2019_Nov_06,31,001,1,source,33,LOOKED,HF,target,right,yellow,pleasantness,conservative,no,7,1,2.65010004641,-,-
2019_Nov_06,31,001,1,source,34,PUTTS,LF,target,right,yellow,pleasantness,liberal,no,9,1,1.08356203354,-,-
2019_Nov_06,31,001,1,source,35,ALMOST,HF,target,right,yellow,pleasantness,conservative,no,8,1,1.98349032567,-,-
2019_Nov_06,31,001,1,source,36,BURGH,LF,target,left,aqua,imageability,liberal,no,2,1,1.95001198797,-,-
2019_Nov_06,31,001,1,source,37,CYANIDE,LF,target,left,aqua,imageability,conservative,no,9,0,3.58344508665,-,-
2019_Nov_06,31,001,1,source,38,SCENARIOS,LF,target,left,aqua,imageability,conservative,no,2,1,2.61682554091,-,-
2019_Nov_06,31,001,1,source,39,AVUNCULAR,LF,target,right,yellow,pleasantness,liberal,no,8,1,1.16707237583,-,-
2019_Nov_06,31,001,1,source,40,VOICE,HF,target,left,aqua,imageability,liberal,no,7,0,1.63351888417,-,-
2019_Nov_06,31,001,1,source,41,SPOKE,HF,target,right,yellow,pleasantness,liberal,no,9,1,1.10015895978,-,-
2019_Nov_06,31,001,1,source,42,DELEGATED,LF,target,right,yellow,pleasantness,liberal,no,9,1,0.966925294035,-,-
2019_Nov_06,31,001,1,source,43,STAFF,HF,target,left,aqua,imageability,conservative,no,1,1,1.61665250351,-,-
2019_Nov_06,31,001,1,source,44,OBVIOUSLY,HF,target,left,aqua,imageability,liberal,no,8,0,3.09988217326,-,-
2019_Nov_06,31,001,1,source,45,NESTING,LF,target,left,aqua,imageability,liberal,no,3,1,1.48349692455,-,-
2019_Nov_06,31,001,1,source,46,AMONG,HF,target,left,aqua,imageability,liberal,no,2,1,1.78354377663,-,-
2019_Nov_06,31,001,1,source,47,PNEUMATIC,LF,target,right,yellow,pleasantness,conservative,no,8,1,4.23327824487,-,-
2019_Nov_06,31,001,1,recog,0,ANEMONES,LF,target,right,yellow,pleasantness,conservative,no,z,1,1.73351543809,1,141
2019_Nov_06,31,001,1,recog,1,THANK,HF,target,right,yellow,pleasantness,liberal,no,z,1,1.11687539914,3,144
2019_Nov_06,31,001,1,recog,2,BAFFLING,LF,lure,-,-,-,conservative,no,m,1,1.0002203294,3,147
2019_Nov_06,31,001,1,recog,3,HANDS,HF,target,right,yellow,pleasantness,liberal,no,z,1,0.933539340713,3,150
2019_Nov_06,31,001,1,recog,4,TEETERED,LF,target,right,yellow,pleasantness,conservative,no,z,1,0.900268867859,1,151
2019_Nov_06,31,001,1,recog,5,CUDDLE,LF,target,left,aqua,imageability,liberal,no,z,1,0.900229274555,3,154
2019_Nov_06,31,001,1,recog,6,PEACEABLY,LF,lure,-,-,-,liberal,no,m,1,0.900252004044,1,155
2019_Nov_06,31,001,1,recog,7,SPOKE,HF,target,right,yellow,pleasantness,liberal,no,z,1,1.21698486729,3,158
2019_Nov_06,31,001,1,recog,8,STAFF,HF,target,left,aqua,imageability,conservative,no,z,1,1.03354615956,1,159
2019_Nov_06,31,001,1,recog,9,MIXER,LF,lure,-,-,-,conservative,no,m,1,0.900199212973,3,162
2019_Nov_06,31,001,1,recog,10,OPENED,HF,lure,-,-,-,liberal,no,m,1,1.96682301133,1,163
2019_Nov_06,31,001,1,recog,11,GARDEN,HF,lure,-,-,-,conservative,no,m,1,1.00023022773,3,166
2019_Nov_06,31,001,1,recog,12,CYANIDE,LF,target,left,aqua,imageability,conservative,no,z,1,0.83355011889,1,167
2019_Nov_06,31,001,1,recog,13,LANGUAGE,HF,target,left,aqua,imageability,conservative,no,z,1,0.916844531028,1,168
2019_Nov_06,31,001,1,recog,14,NESTING,LF,target,left,aqua,imageability,liberal,no,z,1,2.38350220366,3,171
2019_Nov_06,31,001,1,recog,15,THEORY,HF,lure,-,-,-,conservative,no,m,1,0.816972256092,3,174
2019_Nov_06,31,001,1,recog,16,FREEDOM,HF,target,left,aqua,imageability,liberal,no,z,1,1.40020691167,3,177
2019_Nov_06,31,001,1,recog,17,LEVEL,HF,lure,-,-,-,liberal,no,m,1,1.20020793816,1,178
2019_Nov_06,31,001,1,recog,18,BLEACH,LF,target,left,aqua,imageability,conservative,no,z,1,0.933566102853,1,179
2019_Nov_06,31,001,1,recog,19,BIJOU,LF,target,right,yellow,pleasantness,liberal,no,z,1,0.816901134788,3,182
2019_Nov_06,31,001,1,recog,20,DELEGATED,LF,target,right,yellow,pleasantness,liberal,no,z,1,0.933633924716,3,185
2019_Nov_06,31,001,1,recog,21,BYPASS,LF,lure,-,-,-,conservative,no,m,1,1.13357900734,3,188
2019_Nov_06,31,001,1,recog,22,ALKALINE,LF,lure,-,-,-,conservative,no,m,1,1.20017860979,3,191
2019_Nov_06,31,001,1,recog,23,HAUNCHES,LF,lure,-,-,-,conservative,no,m,1,0.85026105918,3,194
2019_Nov_06,31,001,1,recog,24,TIGHTNESS,LF,lure,-,-,-,liberal,no,m,1,0.716715046262,1,195
2019_Nov_06,31,001,1,recog,25,MICROCOSM,LF,lure,-,-,-,liberal,no,m,1,0.733547332695,1,196
2019_Nov_06,31,001,1,recog,26,VETOED,LF,target,left,aqua,imageability,conservative,no,z,1,0.78351078221,1,197
2019_Nov_06,31,001,1,recog,27,MOTHER,HF,lure,-,-,-,conservative,no,m,1,0.900219376229,3,200
2019_Nov_06,31,001,1,recog,28,EXPECT,HF,lure,-,-,-,conservative,no,m,1,1.55019587687,3,203
2019_Nov_06,31,001,1,recog,29,DRINK,HF,target,right,yellow,pleasantness,conservative,no,z,1,0.86689501249,1,204
2019_Nov_06,31,001,1,recog,30,SEEMED,HF,lure,-,-,-,conservative,no,z,0,1.40021864302,-3,201
2019_Nov_06,31,001,1,recog,31,AILMENT,LF,lure,-,-,-,conservative,no,m,1,1.53352892914,3,204
2019_Nov_06,31,001,1,recog,32,ALMOST,HF,target,right,yellow,pleasantness,conservative,no,z,1,1.20004369928,1,205
2019_Nov_06,31,001,1,recog,33,TASSELS,LF,target,left,aqua,imageability,conservative,no,z,1,0.93366655253,1,206
2019_Nov_06,31,001,1,recog,34,FUDGE,LF,target,right,yellow,pleasantness,conservative,no,z,1,0.600278106296,1,207
2019_Nov_06,31,001,1,recog,35,SOMEONE,HF,target,right,yellow,pleasantness,liberal,no,z,1,1.00018256912,3,210
2019_Nov_06,31,001,1,recog,36,SLEEP,HF,target,right,yellow,pleasantness,conservative,no,z,1,0.833575048007,1,211
2019_Nov_06,31,001,1,recog,37,VOICE,HF,target,left,aqua,imageability,liberal,yes,z,1,0.816898201951,3,214
2019_Nov_06,31,001,1,recog,38,WREATH,LF,lure,-,-,-,liberal,yes,z,0,0.800222822313,-1,213
2019_Nov_06,31,001,1,recog,39,FIGURE,HF,lure,-,-,-,liberal,no,z,0,2.60013183104,-1,212
2019_Nov_06,31,001,1,recog,40,PECKED,LF,lure,-,-,-,liberal,no,m,1,1.50019356726,1,213
2019_Nov_06,31,001,1,recog,41,AMONG,HF,target,left,aqua,imageability,liberal,no,z,1,0.766906890481,3,216
2019_Nov_06,31,001,1,recog,42,DAUGHTER,HF,lure,-,-,-,liberal,no,m,1,0.933587365923,1,217
2019_Nov_06,31,001,1,recog,43,POWER,HF,lure,-,-,-,conservative,no,m,1,1.53349960077,3,220
2019_Nov_06,31,001,1,recog,44,INDEED,HF,target,left,aqua,imageability,conservative,no,z,1,0.833548285867,1,221
2019_Nov_06,31,001,1,recog,45,NOTHING,HF,target,right,yellow,pleasantness,conservative,no,z,1,0.866924340864,1,222
2019_Nov_06,31,001,1,recog,46,ODDER,LF,lure,-,-,-,conservative,no,m,1,1.06685989176,3,225
2019_Nov_06,31,001,1,recog,47,DECIDED,HF,lure,-,-,-,liberal,no,z,0,1.68351202867,-1,224
2019_Nov_06,31,001,1,recog,48,TROUBLE,HF,lure,-,-,-,liberal,no,m,1,0.78359730091,1,225
2019_Nov_06,31,001,1,recog,49,BOVINE,LF,lure,-,-,-,liberal,no,m,1,0.833503560098,1,226
2019_Nov_06,31,001,1,recog,50,MAILBOX,LF,lure,-,-,-,conservative,no,m,1,2.53344424346,3,229
2019_Nov_06,31,001,1,recog,51,PUPPETS,LF,lure,-,-,-,liberal,no,m,1,0.700255963375,1,230
2019_Nov_06,31,001,1,recog,52,AVUNCULAR,LF,target,right,yellow,pleasantness,liberal,no,z,1,1.01689607564,3,233
2019_Nov_06,31,001,1,recog,53,TREES,HF,lure,-,-,-,conservative,no,m,1,2.6501381733,3,236
2019_Nov_06,31,001,1,recog,54,WATCH,HF,lure,-,-,-,liberal,no,m,1,1.06679243651,1,237
2019_Nov_06,31,001,1,recog,55,TICKLE,LF,lure,-,-,-,liberal,no,m,1,0.90035392014,1,238
2019_Nov_06,31,001,1,recog,56,PRACTICE,HF,target,left,aqua,imageability,conservative,no,z,1,1.43348544983,1,239
2019_Nov_06,31,001,1,recog,57,SPACE,HF,target,left,aqua,imageability,liberal,no,z,1,1.61692452417,3,242
2019_Nov_06,31,001,1,recog,58,SCOFFED,LF,lure,-,-,-,liberal,no,m,1,1.73352167037,1,243
2019_Nov_06,31,001,1,recog,59,WOMAN,HF,lure,-,-,-,liberal,no,m,1,1.05018011287,1,244
2019_Nov_06,31,001,1,recog,60,TWENTY,HF,lure,-,-,-,conservative,no,m,1,1.41695341261,3,247
2019_Nov_06,31,001,1,recog,61,BURGH,LF,target,left,aqua,imageability,liberal,no,z,1,0.88334566347,3,250
2019_Nov_06,31,001,1,recog,62,BLACK,HF,target,left,aqua,imageability,conservative,no,z,1,0.833514924842,1,251
2019_Nov_06,31,001,1,recog,63,UNLESS,HF,lure,-,-,-,conservative,no,m,1,0.866638389227,3,254
2019_Nov_06,31,001,1,recog,64,LEDGES,LF,target,right,yellow,pleasantness,conservative,no,z,1,0.816901501393,1,255
2019_Nov_06,31,001,1,recog,65,OBVIOUSLY,HF,target,left,aqua,imageability,liberal,no,z,1,1.70013425063,3,258
2019_Nov_06,31,001,1,recog,66,JANGLING,LF,target,left,aqua,imageability,liberal,yes,z,1,1.03359418477,3,261
2019_Nov_06,31,001,1,recog,67,INTEREST,HF,lure,-,-,-,liberal,no,z,0,2.48351708781,-1,260
2019_Nov_06,31,001,1,recog,68,BORAX,LF,lure,-,-,-,conservative,no,m,1,0.866995095563,3,263
2019_Nov_06,31,001,1,recog,69,NEOLITHIC,LF,target,right,yellow,pleasantness,liberal,no,z,1,0.933533475039,3,266
2019_Nov_06,31,001,1,recog,70,ORDER,HF,target,left,aqua,imageability,liberal,no,z,1,1.2833293129,3,269
2019_Nov_06,31,001,1,recog,71,RUNNING,HF,target,right,yellow,pleasantness,liberal,no,z,1,0.666905570704,3,272
2019_Nov_06,31,001,1,recog,72,DINER,LF,lure,-,-,-,conservative,no,m,1,1.50019430047,3,275
2019_Nov_06,31,001,1,recog,73,BUILDING,HF,target,right,yellow,pleasantness,liberal,yes,z,1,1.08354810256,3,278
2019_Nov_06,31,001,1,recog,74,PUTTS,LF,target,right,yellow,pleasantness,liberal,no,z,1,1.1335603105,3,281
2019_Nov_06,31,001,1,recog,75,SCENARIOS,LF,target,left,aqua,imageability,conservative,no,z,1,0.933405530011,1,282
2019_Nov_06,31,001,1,recog,76,PIANOS,LF,target,left,aqua,imageability,conservative,no,z,1,0.60027993932,1,283
2019_Nov_06,31,001,1,recog,77,DOSSIERS,LF,target,right,yellow,pleasantness,liberal,no,z,1,0.666947363636,3,286
2019_Nov_06,31,001,1,recog,78,PNEUMATIC,LF,target,right,yellow,pleasantness,conservative,no,z,1,0.700286758166,1,287
2019_Nov_06,31,001,1,recog,79,KETCHUP,LF,target,right,yellow,pleasantness,conservative,no,z,1,0.63353281515,1,288
2019_Nov_06,31,001,1,recog,80,ENSCONCED,LF,lure,-,-,-,conservative,no,m,1,0.650141106134,3,291
2019_Nov_06,31,001,1,recog,81,HERSELF,HF,lure,-,-,-,liberal,no,m,1,0.633602470035,1,292
2019_Nov_06,31,001,1,recog,82,SHIELDING,LF,lure,-,-,-,liberal,no,m,1,0.833521890331,1,293
2019_Nov_06,31,001,1,recog,83,SECOND,HF,lure,-,-,-,conservative,no,m,1,0.883569658919,3,296
2019_Nov_06,31,001,1,recog,84,CUTLER,LF,target,left,aqua,imageability,liberal,no,z,1,0.716947840222,3,299
2019_Nov_06,31,001,1,recog,85,QUOTAS,LF,target,left,aqua,imageability,liberal,no,z,1,1.05023473696,3,302
2019_Nov_06,31,001,1,recog,86,CEMENTED,LF,lure,-,-,-,liberal,no,m,1,1.61682700733,1,303
2019_Nov_06,31,001,1,recog,87,UPLIFT,LF,lure,-,-,-,conservative,no,m,1,1.38357479138,3,306
2019_Nov_06,31,001,1,recog,88,PAPER,HF,lure,-,-,-,conservative,no,m,1,1.63352804929,3,309
2019_Nov_06,31,001,1,recog,89,IMPORTANT,HF,target,right,yellow,pleasantness,conservative,no,z,1,0.733556864416,1,310
2019_Nov_06,31,001,1,recog,90,MARKET,HF,lure,-,-,-,liberal,no,m,1,0.766903591039,1,311
2019_Nov_06,31,001,1,recog,91,TUMBLER,LF,lure,-,-,-,liberal,no,m,1,0.750235543495,1,312
2019_Nov_06,31,001,1,recog,92,EVENING,HF,lure,-,-,-,liberal,no,m,1,1.01688104485,1,313
2019_Nov_06,31,001,1,recog,93,LOOKED,HF,target,right,yellow,pleasantness,conservative,no,z,1,0.716943807571,1,314
2019_Nov_06,31,001,1,recog,94,SUDDENLY,HF,target,left,aqua,imageability,conservative,no,z,1,0.666879175169,1,315
2019_Nov_06,31,001,1,recog,95,RECENT,HF,lure,-,-,-,conservative,no,z,0,1.21686792041,-3,312
2019_Nov_06,31,001,2,source,0,LAWFUL,LF,target,right,yellow,pleasantness,conservative,no,7,1,2.59998078992,-,-
2019_Nov_06,31,001,2,source,1,ZIPPED,LF,target,right,yellow,pleasantness,conservative,no,8,1,2.08349971075,-,-
2019_Nov_06,31,001,2,source,2,HOTEL,HF,target,left,aqua,imageability,liberal,no,2,1,2.21683052673,-,-
2019_Nov_06,31,001,2,source,3,ABETTED,LF,target,right,yellow,pleasantness,liberal,yes,3,0,1.83346213377,-,-
2019_Nov_06,31,001,2,source,4,PLEASE,HF,target,left,aqua,imageability,conservative,no,3,1,1.9668831345,-,-
2019_Nov_06,31,001,2,source,5,WASHBASIN,LF,target,right,yellow,pleasantness,conservative,no,9,1,1.26688636062,-,-
2019_Nov_06,31,001,2,source,6,USING,HF,target,right,yellow,pleasantness,conservative,no,8,1,1.68349443164,-,-
2019_Nov_06,31,001,2,source,7,MAYBE,HF,target,right,yellow,pleasantness,conservative,no,3,0,2.16685901191,-,-
2019_Nov_06,31,001,2,source,8,LOYALIST,LF,target,left,aqua,imageability,liberal,no,2,1,2.16682931694,-,-
2019_Nov_06,31,001,2,source,9,DUCHY,LF,target,left,aqua,imageability,liberal,no,3,1,1.08358293001,-,-
2019_Nov_06,31,001,2,source,10,JUROR,LF,target,right,yellow,pleasantness,conservative,no,8,1,1.28351224863,-,-
2019_Nov_06,31,001,2,source,11,WALKED,HF,target,left,aqua,imageability,liberal,no,3,1,2.25018495205,-,-
2019_Nov_06,31,001,2,source,12,INSIDE,HF,target,left,aqua,imageability,conservative,no,1,1,1.24996572246,-,-
2019_Nov_06,31,001,2,source,13,STEADFAST,LF,target,right,yellow,pleasantness,liberal,yes,3,0,0.916902454565,-,-
2019_Nov_06,31,001,2,source,14,AGATE,LF,target,left,aqua,imageability,conservative,no,7,0,1.53346587314,-,-
2019_Nov_06,31,001,2,source,15,DUNGEON,LF,target,left,aqua,imageability,conservative,no,1,1,1.6834757348,-,-
2019_Nov_06,31,001,2,source,16,HARDLY,HF,target,right,yellow,pleasantness,conservative,no,7,1,2.46661001403,-,-
2019_Nov_06,31,001,2,source,17,MEANS,HF,target,left,aqua,imageability,liberal,yes,7,0,1.00020493201,-,-
2019_Nov_06,31,001,2,source,18,LEARN,HF,target,left,aqua,imageability,liberal,no,2,1,1.70022406877,-,-
2019_Nov_06,31,001,2,source,19,GESTURING,LF,target,left,aqua,imageability,liberal,no,1,1,1.50010118289,-,-
2019_Nov_06,31,001,2,source,20,BRING,HF,target,right,yellow,pleasantness,conservative,no,8,1,1.86685028672,-,-
2019_Nov_06,31,001,2,source,21,PUFFS,LF,target,right,yellow,pleasantness,conservative,no,9,1,1.00020236577,-,-
2019_Nov_06,31,001,2,source,22,WHETHER,HF,target,right,yellow,pleasantness,conservative,no,3,0,1.93351367839,-,-
2019_Nov_06,31,001,2,source,23,WEEKS,HF,target,right,yellow,pleasantness,liberal,no,8,1,1.83352922242,-,-
2019_Nov_06,31,001,2,source,24,LUSCIOUS,LF,target,right,yellow,pleasantness,liberal,no,8,1,1.58342932265,-,-
2019_Nov_06,31,001,2,source,25,ATONEMENT,LF,target,left,aqua,imageability,liberal,no,2,1,1.95022901793,-,-
2019_Nov_06,31,001,2,source,26,EMULATION,LF,target,right,yellow,pleasantness,conservative,no,9,1,1.08355323503,-,-
2019_Nov_06,31,001,2,source,27,ABATED,LF,target,left,aqua,imageability,conservative,no,7,0,1.35018993787,-,-
2019_Nov_06,31,001,2,source,28,PAINTWORK,LF,target,left,aqua,imageability,conservative,no,1,1,1.56686135818,-,-
2019_Nov_06,31,001,2,source,29,DOUBT,HF,target,left,aqua,imageability,conservative,no,2,1,2.61675515281,-,-
2019_Nov_06,31,001,2,source,30,COMES,HF,target,right,yellow,pleasantness,liberal,no,9,1,1.200053231,-,-
2019_Nov_06,31,001,2,source,31,SCRABBLE,LF,target,right,yellow,pleasantness,liberal,no,9,1,0.883569658919,-,-
2019_Nov_06,31,001,2,source,32,EDUCATION,HF,target,right,yellow,pleasantness,liberal,yes,3,0,0.916899888332,-,-
2019_Nov_06,31,001,2,source,33,LINEAGE,LF,target,left,aqua,imageability,conservative,no,7,0,2.16686341117,-,-
2019_Nov_06,31,001,2,source,34,GROUND,HF,target,left,aqua,imageability,liberal,no,3,1,2.95009484063,-,-
2019_Nov_06,31,001,2,source,35,INLAID,LF,target,right,yellow,pleasantness,liberal,no,9,1,1.85016390894,-,-
2019_Nov_06,31,001,2,source,36,WHATEVER,HF,target,left,aqua,imageability,liberal,no,2,1,1.5501984431,-,-
2019_Nov_06,31,001,2,source,37,SUMMER,HF,target,left,aqua,imageability,conservative,no,1,1,1.06694091139,-,-
2019_Nov_06,31,001,2,source,38,YEARN,LF,target,left,aqua,imageability,conservative,no,2,1,2.34995787712,-,-
2019_Nov_06,31,001,2,source,39,MISFITS,LF,target,right,yellow,pleasantness,liberal,no,9,1,1.43353347504,-,-
2019_Nov_06,31,001,2,source,40,MOVED,HF,target,right,yellow,pleasantness,liberal,no,3,0,1.71691814524,-,-
2019_Nov_06,31,001,2,source,41,PIZZA,LF,target,left,aqua,imageability,liberal,no,1,1,1.31663204697,-,-
2019_Nov_06,31,001,2,source,42,ACROSS,HF,target,right,yellow,pleasantness,liberal,no,7,1,1.25014499214,-,-
2019_Nov_06,31,001,2,source,43,ALLOWED,HF,target,left,aqua,imageability,conservative,no,7,0,1.81682011516,-,-
2019_Nov_06,31,001,2,source,44,DURING,HF,target,right,yellow,pleasantness,conservative,no,8,1,1.0002276615,-,-
2019_Nov_06,31,001,2,source,45,POPES,LF,target,left,aqua,imageability,liberal,no,1,1,1.38333466533,-,-
2019_Nov_06,31,001,2,source,46,NATIONAL,HF,target,right,yellow,pleasantness,liberal,no,9,1,2.2169306098,-,-
2019_Nov_06,31,001,2,source,47,HUSBAND,HF,target,left,aqua,imageability,conservative,no,2,1,1.2335242366,-,-
2019_Nov_06,31,001,2,recog,0,NECESSARY,HF,lure,-,-,-,conservative,no,m,1,1.88343218217,3,315
2019_Nov_06,31,001,2,recog,1,LEARN,HF,target,left,aqua,imageability,liberal,no,z,1,1.16692830019,3,318
2019_Nov_06,31,001,2,recog,2,WHETHER,HF,target,right,yellow,pleasantness,conservative,no,z,1,0.866912609514,1,319
2019_Nov_06,31,001,2,recog,3,GESTURING,LF,target,left,aqua,imageability,liberal,no,z,1,0.65025402037,3,322
2019_Nov_06,31,001,2,recog,4,BOILERS,LF,lure,-,-,-,liberal,no,m,1,0.766901758016,1,323
2019_Nov_06,31,001,2,recog,5,COUNCIL,HF,lure,-,-,-,liberal,no,m,1,0.733531935299,1,324
2019_Nov_06,31,001,2,recog,6,INSIDE,HF,target,left,aqua,imageability,conservative,no,z,1,0.550243168872,1,325
2019_Nov_06,31,001,2,recog,7,CHLORIDE,LF,lure,-,-,-,liberal,no,m,1,0.750266704891,1,326
2019_Nov_06,31,001,2,recog,8,CAPITAL,HF,lure,-,-,-,conservative,no,m,1,2.08328927967,3,329
2019_Nov_06,31,001,2,recog,9,EDUCATION,HF,target,right,yellow,pleasantness,liberal,no,z,1,0.766940984715,3,332
2019_Nov_06,31,001,2,recog,10,WASHBASIN,LF,target,right,yellow,pleasantness,conservative,no,z,1,1.28360976547,1,333
2019_Nov_06,31,001,2,recog,11,LINEAGE,LF,target,left,aqua,imageability,conservative,no,z,1,1.78346495663,1,334
2019_Nov_06,31,001,2,recog,12,MOVED,HF,target,right,yellow,pleasantness,liberal,no,z,1,1.1835380576,3,337
2019_Nov_06,31,001,2,recog,13,ALONE,HF,lure,-,-,-,liberal,yes,z,0,0.86690601063,-1,336
2019_Nov_06,31,001,2,recog,14,GRUBS,LF,lure,-,-,-,liberal,no,m,1,2.58345498498,1,337
2019_Nov_06,31,001,2,recog,15,ABATED,LF,target,left,aqua,imageability,conservative,no,z,1,2.000173404,1,338
2019_Nov_06,31,001,2,recog,16,PIZZA,LF,target,left,aqua,imageability,liberal,no,z,1,0.716899815011,3,341
2019_Nov_06,31,001,2,recog,17,MERELY,HF,lure,-,-,-,liberal,no,m,1,1.28344662639,1,342
2019_Nov_06,31,001,2,recog,18,WALKED,HF,target,left,aqua,imageability,liberal,no,z,1,0.716882217987,3,345
2019_Nov_06,31,001,2,recog,19,MEANS,HF,target,left,aqua,imageability,liberal,no,z,1,1.13357020883,3,348
2019_Nov_06,31,001,2,recog,20,HARDLY,HF,target,right,yellow,pleasantness,conservative,no,m,0,2.18351936076,-1,347
2019_Nov_06,31,001,2,recog,21,UNRAVEL,LF,lure,-,-,-,liberal,no,m,1,1.26686179811,1,348
2019_Nov_06,31,001,2,recog,22,SUMMER,HF,target,left,aqua,imageability,conservative,no,z,1,0.800030354866,1,349
2019_Nov_06,31,001,2,recog,23,PSALMS,LF,lure,-,-,-,liberal,no,m,1,0.983561080369,1,350
2019_Nov_06,31,001,2,recog,24,OTHERS,HF,lure,-,-,-,liberal,no,z,0,1.06693394591,-1,349
2019_Nov_06,31,001,2,recog,25,ABETTED,LF,target,right,yellow,pleasantness,liberal,no,z,1,2.70022920123,3,352
2019_Nov_06,31,001,2,recog,26,MAYBE,HF,target,right,yellow,pleasantness,conservative,no,z,1,0.766856665643,1,353
2019_Nov_06,31,001,2,recog,27,AGATE,LF,target,left,aqua,imageability,conservative,no,z,1,0.733574828044,1,354
2019_Nov_06,31,001,2,recog,28,KITCHEN,HF,lure,-,-,-,liberal,no,m,1,1.41688339112,1,355
2019_Nov_06,31,001,2,recog,29,TORMENTS,LF,lure,-,-,-,liberal,no,m,1,0.700220036118,1,356
2019_Nov_06,31,001,2,recog,30,AFRAID,HF,lure,-,-,-,conservative,no,m,1,0.783609032259,3,359
2019_Nov_06,31,001,2,recog,31,MUSIC,HF,lure,-,-,-,liberal,no,m,1,0.650266118324,1,360
2019_Nov_06,31,001,2,recog,32,DUNGEON,LF,target,left,aqua,imageability,conservative,no,z,1,0.666898971821,1,361
2019_Nov_06,31,001,2,recog,33,EITHER,HF,lure,-,-,-,liberal,no,z,0,2.01682715397,-1,360
2019_Nov_06,31,001,2,recog,34,ACROSS,HF,target,right,yellow,pleasantness,liberal,no,z,1,2.10019708667,3,363
2019_Nov_06,31,001,2,recog,35,SINCE,HF,lure,-,-,-,liberal,no,m,1,1.98350169041,1,364
2019_Nov_06,31,001,2,recog,36,OUGHT,HF,lure,-,-,-,conservative,no,m,1,0.733652181628,3,367
2019_Nov_06,31,001,2,recog,37,LOYALIST,LF,target,left,aqua,imageability,liberal,no,z,1,1.05031062413,3,370
2019_Nov_06,31,001,2,recog,38,ULCER,LF,lure,-,-,-,conservative,no,m,1,1.25017138768,3,373
2019_Nov_06,31,001,2,recog,39,DUSTER,LF,lure,-,-,-,liberal,no,m,1,2.28346788946,1,374
2019_Nov_06,31,001,2,recog,40,POPES,LF,target,left,aqua,imageability,liberal,no,z,1,1.00022252903,3,377
2019_Nov_06,31,001,2,recog,41,UNZIPPED,LF,lure,-,-,-,liberal,no,m,1,3.70012948477,1,378
2019_Nov_06,31,001,2,recog,42,FURTHER,HF,lure,-,-,-,liberal,no,z,0,1.91673271661,-1,377
2019_Nov_06,31,001,2,recog,43,WAKED,LF,lure,-,-,-,conservative,no,m,1,1.41684379782,3,380
2019_Nov_06,31,001,2,recog,44,LATER,HF,lure,-,-,-,conservative,no,z,0,1.93349498155,-3,377
2019_Nov_06,31,001,2,recog,45,KNEAD,LF,lure,-,-,-,liberal,no,m,1,2.40017391725,1,378
2019_Nov_06,31,001,2,recog,46,SULKED,LF,lure,-,-,-,conservative,no,m,1,0.850191770899,3,381
2019_Nov_06,31,001,2,recog,47,SYNDICATE,LF,lure,-,-,-,conservative,no,m,1,0.633547112732,3,384
2019_Nov_06,31,001,2,recog,48,PLEASE,HF,target,left,aqua,imageability,conservative,no,z,1,0.683582050156,1,385
2019_Nov_06,31,001,2,recog,49,SUNBURN,LF,lure,-,-,-,conservative,no,m,1,0.916865427494,3,388
2019_Nov_06,31,001,2,recog,50,ANIMAL,HF,lure,-,-,-,conservative,no,m,1,0.816891236462,3,391
2019_Nov_06,31,001,2,recog,51,BRING,HF,target,right,yellow,pleasantness,conservative,no,z,1,0.900187115019,1,392
2019_Nov_06,31,001,2,recog,52,YACHTING,LF,lure,-,-,-,conservative,no,m,1,1.08354736936,3,395
2019_Nov_06,31,001,2,recog,53,GROUND,HF,target,left,aqua,imageability,liberal,no,z,1,0.816928630138,3,398
2019_Nov_06,31,001,2,recog,54,ZIPPED,LF,target,right,yellow,pleasantness,conservative,no,z,1,0.966940324826,1,399
2019_Nov_06,31,001,2,recog,55,STEADFAST,LF,target,right,yellow,pleasantness,liberal,no,z,1,1.00023132754,3,402
2019_Nov_06,31,001,2,recog,56,CORNER,HF,lure,-,-,-,conservative,no,z,0,1.78335607504,-3,399
2019_Nov_06,31,001,2,recog,57,USING,HF,target,right,yellow,pleasantness,conservative,no,z,1,1.66685314624,1,400
2019_Nov_06,31,001,2,recog,58,COMES,HF,target,right,yellow,pleasantness,liberal,no,z,1,1.08349531149,3,403
2019_Nov_06,31,001,2,recog,59,WHATEVER,HF,target,left,aqua,imageability,liberal,no,z,1,0.850026798801,3,406
2019_Nov_06,31,001,2,recog,60,EBULLIENT,LF,lure,-,-,-,conservative,no,m,1,1.01694116802,3,409
2019_Nov_06,31,001,2,recog,61,PAINTWORK,LF,target,left,aqua,imageability,conservative,no,z,1,0.900208011485,1,410
2019_Nov_06,31,001,2,recog,62,LUSCIOUS,LF,target,right,yellow,pleasantness,liberal,no,z,1,1.03349996737,3,413
2019_Nov_06,31,001,2,recog,63,EMULATION,LF,target,right,yellow,pleasantness,conservative,yes,m,0,1.36694047147,-1,412
2019_Nov_06,31,001,2,recog,64,MISFITS,LF,target,right,yellow,pleasantness,liberal,no,z,1,2.75013472721,3,415
2019_Nov_06,31,001,2,recog,65,HUSBAND,HF,target,left,aqua,imageability,conservative,no,z,1,1.18357141862,1,416
2019_Nov_06,31,001,2,recog,66,HOTEL,HF,target,left,aqua,imageability,liberal,no,z,1,0.850326681414,3,419
2019_Nov_06,31,001,2,recog,67,ALLOWED,HF,target,left,aqua,imageability,conservative,no,z,1,1.36685505258,1,420
2019_Nov_06,31,001,2,recog,68,ATONEMENT,LF,target,left,aqua,imageability,liberal,no,z,1,1.56662343176,3,423
2019_Nov_06,31,001,2,recog,69,JUROR,LF,target,right,yellow,pleasantness,conservative,no,z,1,1.18350946243,1,424
2019_Nov_06,31,001,2,recog,70,LETTER,HF,lure,-,-,-,conservative,no,m,1,0.850339879182,3,427
2019_Nov_06,31,001,2,recog,71,PICTURE,HF,lure,-,-,-,conservative,no,m,1,0.716939774919,3,430
2019_Nov_06,31,001,2,recog,72,SCRABBLE,LF,target,right,yellow,pleasantness,liberal,no,z,1,0.816924230882,3,433
2019_Nov_06,31,001,2,recog,73,KERNEL,LF,lure,-,-,-,liberal,no,m,1,0.983559980555,1,434
2019_Nov_06,31,001,2,recog,74,DWINDLE,LF,lure,-,-,-,liberal,no,m,1,0.733601956789,1,435
2019_Nov_06,31,001,2,recog,75,LAWFUL,LF,target,right,yellow,pleasantness,conservative,no,z,1,0.733570062183,1,436
2019_Nov_06,31,001,2,recog,76,DURING,HF,target,right,yellow,pleasantness,conservative,no,z,1,0.950263845375,1,437
2019_Nov_06,31,001,2,recog,77,SYMBOLIZE,LF,lure,-,-,-,conservative,no,m,1,1.66684838038,3,440
2019_Nov_06,31,001,2,recog,78,DUCHY,LF,target,left,aqua,imageability,liberal,no,z,1,0.983552281858,3,443
2019_Nov_06,31,001,2,recog,79,DOUBT,HF,target,left,aqua,imageability,conservative,yes,m,0,1.50016717173,-1,442
2019_Nov_06,31,001,2,recog,80,VARIOUS,HF,lure,-,-,-,conservative,no,z,0,2.26681084006,-3,439
2019_Nov_06,31,001,2,recog,81,FLOOR,HF,lure,-,-,-,conservative,no,m,1,3.66684288131,3,442
2019_Nov_06,31,001,2,recog,82,SOCIAL,HF,lure,-,-,-,liberal,no,m,1,1.01689130978,1,443
2019_Nov_06,31,001,2,recog,83,DEGREE,HF,lure,-,-,-,liberal,no,m,1,0.700336983005,1,444
2019_Nov_06,31,001,2,recog,84,NOMAD,LF,lure,-,-,-,liberal,no,m,1,0.833589712193,1,445
2019_Nov_06,31,001,2,recog,85,PIGLETS,LF,lure,-,-,-,conservative,no,m,1,0.716986700316,3,448
2019_Nov_06,31,001,2,recog,86,CULINARY,LF,lure,-,-,-,conservative,no,m,1,1.15023495693,3,451
2019_Nov_06,31,001,2,recog,87,BEYOND,HF,lure,-,-,-,liberal,no,m,1,0.983539450694,1,452
2019_Nov_06,31,001,2,recog,88,INLAID,LF,target,right,yellow,pleasantness,liberal,no,z,1,0.833558184192,3,455
2019_Nov_06,31,001,2,recog,89,WONDROUS,LF,lure,-,-,-,conservative,no,m,1,0.900190414461,3,458
2019_Nov_06,31,001,2,recog,90,NATIONAL,HF,target,right,yellow,pleasantness,liberal,no,z,1,0.766923021086,3,461
2019_Nov_06,31,001,2,recog,91,WEEKS,HF,target,right,yellow,pleasantness,liberal,no,z,1,0.833568449123,3,464
2019_Nov_06,31,001,2,recog,92,YEARN,LF,target,left,aqua,imageability,conservative,no,z,1,1.18362054365,1,465
2019_Nov_06,31,001,2,recog,93,THUDDING,LF,lure,-,-,-,conservative,no,m,1,0.983561080369,3,468
2019_Nov_06,31,001,2,recog,94,BEHIND,HF,lure,-,-,-,conservative,no,m,1,1.18358424978,3,471
2019_Nov_06,31,001,2,recog,95,PUFFS,LF,target,right,yellow,pleasantness,conservative,yes,m,0,1.25021464703,-1,470
2019_Nov_06,31,001,3,source,0,EYEBALL,LF,target,left,aqua,imageability,liberal,no,3,1,4.01675713248,-,-
2019_Nov_06,31,001,3,source,1,RIMMED,LF,target,left,aqua,imageability,liberal,no,3,1,1.31662141543,-,-
2019_Nov_06,31,001,3,source,2,WHOLE,HF,target,left,aqua,imageability,liberal,no,2,1,1.61685523588,-,-
2019_Nov_06,31,001,3,source,3,HUMAN,HF,target,left,aqua,imageability,conservative,no,2,1,1.16688467424,-,-
2019_Nov_06,31,001,3,source,4,GULLIBLE,LF,target,left,aqua,imageability,liberal,no,1,1,1.18362054365,-,-
2019_Nov_06,31,001,3,source,5,APPEARED,HF,target,right,yellow,pleasantness,conservative,yes,3,0,1.16687807535,-,-
2019_Nov_06,31,001,3,source,6,BAIZE,LF,target,right,yellow,pleasantness,conservative,yes,7,1,1.55020247575,-,-
2019_Nov_06,31,001,3,source,7,TALKING,HF,target,left,aqua,imageability,conservative,no,8,0,1.86679749565,-,-
2019_Nov_06,31,001,3,source,8,RALLIED,LF,target,right,yellow,pleasantness,liberal,no,8,1,1.05021494031,-,-
2019_Nov_06,31,001,3,source,9,ISOLATING,LF,target,left,aqua,imageability,liberal,no,2,1,1.0669020513,-,-
2019_Nov_06,31,001,3,source,10,WEAKENS,LF,target,right,yellow,pleasantness,conservative,no,8,1,0.866917375375,-,-
2019_Nov_06,31,001,3,source,11,FEELING,HF,target,right,yellow,pleasantness,conservative,no,8,1,0.766748517267,-,-
2019_Nov_06,31,001,3,source,12,FINAL,HF,target,right,yellow,pleasantness,conservative,no,9,1,1.76695161625,-,-
2019_Nov_06,31,001,3,source,13,HOURS,HF,target,right,yellow,pleasantness,liberal,yes,3,0,2.4335147782,-,-
2019_Nov_06,31,001,3,source,14,EXCEPT,HF,target,left,aqua,imageability,conservative,no,3,1,2.36677183332,-,-
2019_Nov_06,31,001,3,source,15,MOMENT,HF,target,left,aqua,imageability,liberal,no,3,1,1.30000432593,-,-
2019_Nov_06,31,001,3,source,16,LIFEBOAT,LF,target,right,yellow,pleasantness,liberal,no,9,1,1.81689380269,-,-
2019_Nov_06,31,001,3,source,17,DIFFERENT,HF,target,right,yellow,pleasantness,liberal,no,9,1,1.8335116254,-,-
2019_Nov_06,31,001,3,source,18,TOTAL,HF,target,right,yellow,pleasantness,conservative,no,9,1,1.35021853304,-,-
2019_Nov_06,31,001,3,source,19,COPIOUSLY,LF,target,right,yellow,pleasantness,conservative,no,9,1,0.833599243915,-,-
2019_Nov_06,31,001,3,source,20,MEMBERS,HF,target,right,yellow,pleasantness,conservative,no,2,0,1.7501493914,-,-
2019_Nov_06,31,001,3,source,21,NICETIES,LF,target,right,yellow,pleasantness,conservative,no,8,1,1.05027249724,-,-
2019_Nov_06,31,001,3,source,22,APTLY,LF,target,left,aqua,imageability,conservative,no,2,1,2.08333327223,-,-
2019_Nov_06,31,001,3,source,23,FIXTURE,LF,target,right,yellow,pleasantness,liberal,no,8,1,1.21688625064,-,-
2019_Nov_06,31,001,3,source,24,MYSELF,HF,target,right,yellow,pleasantness,liberal,no,8,1,1.15019609683,-,-
2019_Nov_06,31,001,3,source,25,JAMMING,LF,target,right,yellow,pleasantness,liberal,no,9,1,1.31685677562,-,-
2019_Nov_06,31,001,3,source,26,WRITE,HF,target,right,yellow,pleasantness,liberal,yes,7,1,1.60015676015,-,-
2019_Nov_06,31,001,3,source,27,SHORT,HF,target,left,aqua,imageability,conservative,no,3,1,3.0667370792,-,-
2019_Nov_06,31,001,3,source,28,GETTING,HF,target,right,yellow,pleasantness,conservative,no,8,1,2.31682891367,-,-
2019_Nov_06,31,001,3,source,29,GIPSY,LF,target,right,yellow,pleasantness,conservative,no,9,1,1.76684016843,-,-
2019_Nov_06,31,001,3,source,30,BETTER,HF,target,left,aqua,imageability,liberal,no,3,1,2.53347613807,-,-
2019_Nov_06,31,001,3,source,31,WRONG,HF,target,left,aqua,imageability,liberal,no,2,1,3.10014099615,-,-
2019_Nov_06,31,001,3,source,32,SABLE,LF,target,left,aqua,imageability,conservative,no,1,1,1.30021512362,-,-
2019_Nov_06,31,001,3,source,33,HISTORY,HF,target,left,aqua,imageability,liberal,no,1,1,1.45019712333,-,-
2019_Nov_06,31,001,3,source,34,SWOOPING,LF,target,right,yellow,pleasantness,conservative,no,8,1,2.26679214322,-,-
2019_Nov_06,31,001,3,source,35,CYNIC,LF,target,left,aqua,imageability,liberal,no,2,1,2.33344636977,-,-
2019_Nov_06,31,001,3,source,36,SOUND,HF,target,right,yellow,pleasantness,liberal,no,3,0,3.55014455222,-,-
2019_Nov_06,31,001,3,source,37,PRIVATE,HF,target,left,aqua,imageability,conservative,no,2,1,1.56685402609,-,-
2019_Nov_06,31,001,3,source,38,ROBBERIES,LF,target,left,aqua,imageability,liberal,no,1,1,1.01695949825,-,-
2019_Nov_06,31,001,3,source,39,ODOURS,LF,target,left,aqua,imageability,conservative,no,7,0,3.01662588801,-,-
2019_Nov_06,31,001,3,source,40,HOLED,LF,target,right,yellow,pleasantness,liberal,no,8,1,1.01668527796,-,-
2019_Nov_06,31,001,3,source,41,BLOOD,HF,target,left,aqua,imageability,liberal,no,3,1,1.40020031279,-,-
2019_Nov_06,31,001,3,source,42,NIGHT,HF,target,left,aqua,imageability,conservative,no,1,1,3.18327960131,-,-
2019_Nov_06,31,001,3,source,43,HINDERED,LF,target,left,aqua,imageability,conservative,no,2,1,1.58351364173,-,-
2019_Nov_06,31,001,3,source,44,VALUE,HF,target,right,yellow,pleasantness,liberal,no,8,1,2.8167838213,-,-
2019_Nov_06,31,001,3,source,45,JOLLITY,LF,target,left,aqua,imageability,conservative,no,2,1,1.10028213895,-,-
2019_Nov_06,31,001,3,source,46,MURPHY,LF,target,left,aqua,imageability,conservative,no,1,1,1.30018799487,-,-
2019_Nov_06,31,001,3,source,47,ZEBRA,LF,target,right,yellow,pleasantness,liberal,no,9,1,1.3166742065,-,-
2019_Nov_06,31,001,3,recog,0,FEELING,HF,target,right,yellow,pleasantness,conservative,no,z,1,2.1834203775,1,471
2019_Nov_06,31,001,3,recog,1,SLOWLY,HF,lure,-,-,-,liberal,no,m,1,0.933573801551,1,472
2019_Nov_06,31,001,3,recog,2,SEMANTIC,LF,lure,-,-,-,liberal,no,m,1,0.883355195191,1,473
2019_Nov_06,31,001,3,recog,3,MOMENT,HF,target,left,aqua,imageability,liberal,no,z,1,1.55019477706,3,476
2019_Nov_06,31,001,3,recog,4,HOLED,LF,target,right,yellow,pleasantness,liberal,no,z,1,1.01673770243,3,479
2019_Nov_06,31,001,3,recog,5,QUALITY,HF,lure,-,-,-,conservative,no,m,1,0.883564526453,3,482
2019_Nov_06,31,001,3,recog,6,TAKEN,HF,lure,-,-,-,liberal,no,z,0,0.84996777545,-1,481
2019_Nov_06,31,001,3,recog,7,HAVING,HF,lure,-,-,-,conservative,no,m,1,1.25021757987,3,484
2019_Nov_06,31,001,3,recog,8,NIGHT,HF,target,left,aqua,imageability,conservative,no,z,1,0.716950773059,1,485
2019_Nov_06,31,001,3,recog,9,APTLY,LF,target,left,aqua,imageability,conservative,yes,m,0,1.45020482202,-1,484
2019_Nov_06,31,001,3,recog,10,NICETIES,LF,target,right,yellow,pleasantness,conservative,no,z,1,2.18347866764,1,485
2019_Nov_06,31,001,3,recog,11,GULLIBLE,LF,target,left,aqua,imageability,liberal,yes,z,1,1.11690912677,3,488
2019_Nov_06,31,001,3,recog,12,RALLIED,LF,target,right,yellow,pleasantness,liberal,no,z,1,1.43354044053,3,491
2019_Nov_06,31,001,3,recog,13,MAJOR,HF,lure,-,-,-,liberal,no,m,1,1.3835128352,1,492
2019_Nov_06,31,001,3,recog,14,SHORT,HF,target,left,aqua,imageability,conservative,no,z,1,0.766910189923,1,493
2019_Nov_06,31,001,3,recog,15,SKETCHY,LF,lure,-,-,-,conservative,no,m,1,1.03352782933,3,496
2019_Nov_06,31,001,3,recog,16,FINAL,HF,target,right,yellow,pleasantness,conservative,no,z,1,1.066862458,1,497
2019_Nov_06,31,001,3,recog,17,COVER,HF,lure,-,-,-,liberal,no,m,1,1.61690619393,1,498
2019_Nov_06,31,001,3,recog,18,ZEBRA,LF,target,right,yellow,pleasantness,liberal,no,z,1,0.983566946044,3,501
2019_Nov_06,31,001,3,recog,19,FIXTURE,LF,target,right,yellow,pleasantness,liberal,no,z,1,0.783591435235,3,504
2019_Nov_06,31,001,3,recog,20,HUMAN,HF,target,left,aqua,imageability,conservative,no,z,1,1.15001866018,1,505
2019_Nov_06,31,001,3,recog,21,ISOLATING,LF,target,left,aqua,imageability,liberal,no,z,1,0.766898458574,3,508
2019_Nov_06,31,001,3,recog,22,APPEARED,HF,target,right,yellow,pleasantness,conservative,no,m,0,2.36684515426,-1,507
2019_Nov_06,31,001,3,recog,23,RIMMED,LF,target,left,aqua,imageability,liberal,no,z,1,1.91679650582,3,510
2019_Nov_06,31,001,3,recog,24,VIVACIOUS,LF,lure,-,-,-,liberal,no,m,1,0.750199249634,1,511
2019_Nov_06,31,001,3,recog,25,MURPHY,LF,target,left,aqua,imageability,conservative,no,z,1,0.783563573281,1,512
2019_Nov_06,31,001,3,recog,26,JAMMING,LF,target,right,yellow,pleasantness,liberal,no,z,1,0.733579960509,3,515
2019_Nov_06,31,001,3,recog,27,MYSELF,HF,target,right,yellow,pleasantness,liberal,no,z,1,0.700230301048,3,518
2019_Nov_06,31,001,3,recog,28,BLOOD,HF,target,left,aqua,imageability,liberal,no,z,1,0.566754676226,3,521
2019_Nov_06,31,001,3,recog,29,POSITION,HF,lure,-,-,-,conservative,no,m,1,1.00015617359,3,524
2019_Nov_06,31,001,3,recog,30,WRONG,HF,target,left,aqua,imageability,liberal,no,z,1,0.683567019365,3,527
2019_Nov_06,31,001,3,recog,31,TRYING,HF,lure,-,-,-,conservative,no,m,1,0.816940728091,3,530
2019_Nov_06,31,001,3,recog,32,VALUE,HF,target,right,yellow,pleasantness,liberal,no,z,1,0.750253873728,3,533
2019_Nov_06,31,001,3,recog,33,TOWARDS,HF,lure,-,-,-,conservative,yes,m,1,1.55012842161,3,536
2019_Nov_06,31,001,3,recog,34,WANTED,HF,lure,-,-,-,liberal,no,z,0,4.08334940284,-1,535
2019_Nov_06,31,001,3,recog,35,ROOFED,LF,lure,-,-,-,liberal,no,m,1,3.01676153173,1,536
2019_Nov_06,31,001,3,recog,36,WHOLE,HF,target,left,aqua,imageability,liberal,no,z,1,2.58346854935,3,539
2019_Nov_06,31,001,3,recog,37,BABBLED,LF,lure,-,-,-,liberal,no,m,1,0.916921151403,1,540
2019_Nov_06,31,001,3,recog,38,EYEBALL,LF,target,left,aqua,imageability,liberal,no,z,1,0.916907953635,3,543
2019_Nov_06,31,001,3,recog,39,GLIDED,LF,lure,-,-,-,conservative,no,m,1,2.69998394272,3,546
2019_Nov_06,31,001,3,recog,40,COPIOUSLY,LF,target,right,yellow,pleasantness,conservative,no,z,1,1.20021123761,1,547
2019_Nov_06,31,001,3,recog,41,CYNIC,LF,target,left,aqua,imageability,liberal,no,z,1,0.866866050722,3,550
2019_Nov_06,31,001,3,recog,42,INVOLVED,HF,lure,-,-,-,liberal,no,m,1,2.18348856597,1,551
2019_Nov_06,31,001,3,recog,43,PRIVATE,HF,target,left,aqua,imageability,conservative,no,z,1,0.766862164713,1,552
2019_Nov_06,31,001,3,recog,44,DEMEANOUR,LF,lure,-,-,-,conservative,no,m,1,0.816876572276,3,555
2019_Nov_06,31,001,3,recog,45,BETTER,HF,target,left,aqua,imageability,liberal,no,z,1,2.25015599028,3,558
2019_Nov_06,31,001,3,recog,46,COBALT,LF,lure,-,-,-,conservative,no,m,1,0.850236130063,3,561
2019_Nov_06,31,001,3,recog,47,THOUSAND,HF,lure,-,-,-,liberal,no,m,1,0.900233673811,1,562
2019_Nov_06,31,001,3,recog,48,SHALL,HF,lure,-,-,-,conservative,no,m,1,1.01689094318,3,565
2019_Nov_06,31,001,3,recog,49,JOLLITY,LF,target,left,aqua,imageability,conservative,no,z,1,1.11691535905,1,566
2019_Nov_06,31,001,3,recog,50,BOOKS,HF,lure,-,-,-,conservative,no,m,1,1.53352636291,3,569
2019_Nov_06,31,001,3,recog,51,UNCANNILY,LF,lure,-,-,-,conservative,no,m,1,0.75026817131,3,572
2019_Nov_06,31,001,3,recog,52,OLDER,HF,lure,-,-,-,liberal,no,z,0,1.83351602466,-1,571
2019_Nov_06,31,001,3,recog,53,SWOOPING,LF,target,right,yellow,pleasantness,conservative,no,z,1,2.20016614523,1,572
2019_Nov_06,31,001,3,recog,54,GENERAL,HF,lure,-,-,-,conservative,no,m,1,1.28350271691,3,575
2019_Nov_06,31,001,3,recog,55,THWART,LF,lure,-,-,-,liberal,yes,z,0,1.06667878906,-1,574
2019_Nov_06,31,001,3,recog,56,WRITE,HF,target,right,yellow,pleasantness,liberal,no,z,1,2.6169113264,3,577
2019_Nov_06,31,001,3,recog,57,SABLE,LF,target,left,aqua,imageability,conservative,no,m,0,2.05018597854,-1,576
2019_Nov_06,31,001,3,recog,58,EIDERDOWN,LF,lure,-,-,-,liberal,no,z,0,2.20021600347,-1,575
2019_Nov_06,31,001,3,recog,59,BAIZE,LF,target,right,yellow,pleasantness,conservative,no,z,1,4.06673158013,1,576
2019_Nov_06,31,001,3,recog,60,ROBBERIES,LF,target,left,aqua,imageability,liberal,no,z,1,3.11680244481,3,579
2019_Nov_06,31,001,3,recog,61,KINDEST,LF,lure,-,-,-,conservative,no,m,1,2.2001632124,3,582
2019_Nov_06,31,001,3,recog,62,GETTING,HF,target,right,yellow,pleasantness,conservative,no,z,1,1.31690883349,1,583
2019_Nov_06,31,001,3,recog,63,PATCHY,LF,lure,-,-,-,liberal,no,m,1,0.933574168156,1,584
2019_Nov_06,31,001,3,recog,64,ECONOMIC,HF,lure,-,-,-,liberal,no,m,1,0.850181872573,1,585
2019_Nov_06,31,001,3,recog,65,TALKING,HF,target,left,aqua,imageability,conservative,no,z,1,0.950255413468,1,586
2019_Nov_06,31,001,3,recog,66,ZIGZAG,LF,lure,-,-,-,conservative,no,m,1,1.08354956898,3,589
2019_Nov_06,31,001,3,recog,67,LACING,LF,lure,-,-,-,conservative,no,m,1,1.05020320896,3,592
2019_Nov_06,31,001,3,recog,68,EASILY,HF,lure,-,-,-,liberal,no,m,1,0.766925953923,1,593
2019_Nov_06,31,001,3,recog,69,MAKES,HF,lure,-,-,-,conservative,no,z,0,1.1334814905,-3,590
2019_Nov_06,31,001,3,recog,70,HEALTH,HF,lure,-,-,-,liberal,no,m,1,3.2001085883,1,591
2019_Nov_06,31,001,3,recog,71,CAUGHT,HF,lure,-,-,-,conservative,no,m,1,0.866861651466,3,594
2019_Nov_06,31,001,3,recog,72,LIFEBOAT,LF,target,right,yellow,pleasantness,liberal,no,z,1,1.00020676503,3,597
2019_Nov_06,31,001,3,recog,73,ASKED,HF,lure,-,-,-,liberal,no,m,1,1.10022751485,1,598
2019_Nov_06,31,001,3,recog,74,MEMBERS,HF,target,right,yellow,pleasantness,conservative,no,z,1,0.983351382503,1,599
2019_Nov_06,31,001,3,recog,75,ODOURS,LF,target,left,aqua,imageability,conservative,no,z,1,0.800330237479,1,600
2019_Nov_06,31,001,3,recog,76,GIVEN,HF,lure,-,-,-,conservative,no,z,0,2.1499574372,-3,597
2019_Nov_06,31,001,3,recog,77,TOTAL,HF,target,right,yellow,pleasantness,conservative,no,z,1,1.48356144697,1,598
2019_Nov_06,31,001,3,recog,78,GIPSY,LF,target,right,yellow,pleasantness,conservative,no,z,1,1.25017871977,1,599
2019_Nov_06,31,001,3,recog,79,VULTURE,LF,lure,-,-,-,conservative,no,m,1,0.916851129912,3,602
2019_Nov_06,31,001,3,recog,80,DIFFERENT,HF,target,right,yellow,pleasantness,liberal,no,z,1,2.6834914988,3,605
2019_Nov_06,31,001,3,recog,81,HOURS,HF,target,right,yellow,pleasantness,liberal,no,z,1,1.53354102709,3,608
2019_Nov_06,31,001,3,recog,82,HINDERED,LF,target,left,aqua,imageability,conservative,no,z,1,1.36692434086,1,609
2019_Nov_06,31,001,3,recog,83,EXCEPT,HF,target,left,aqua,imageability,conservative,no,z,1,1.70023543351,1,610
2019_Nov_06,31,001,3,recog,84,LEPROSY,LF,lure,-,-,-,liberal,no,m,1,0.916863227866,1,611
2019_Nov_06,31,001,3,recog,85,HUNDRED,HF,lure,-,-,-,conservative,no,m,1,1.76669719261,3,614
2019_Nov_06,31,001,3,recog,86,SOUND,HF,target,right,yellow,pleasantness,liberal,no,m,0,2.13349468827,-3,611
2019_Nov_06,31,001,3,recog,87,DOGMAS,LF,lure,-,-,-,liberal,no,m,1,1.08356093373,1,612
2019_Nov_06,31,001,3,recog,88,JOWLS,LF,lure,-,-,-,liberal,no,m,1,0.833522990145,1,613
2019_Nov_06,31,001,3,recog,89,WEAKENS,LF,target,right,yellow,pleasantness,conservative,no,z,1,0.950227184909,1,614
2019_Nov_06,31,001,3,recog,90,NAIVELY,LF,lure,-,-,-,conservative,no,m,1,0.850185172014,3,617
2019_Nov_06,31,001,3,recog,91,ARPEGGIO,LF,lure,-,-,-,liberal,no,m,1,1.11691499244,1,618
2019_Nov_06,31,001,3,recog,92,HISTORY,HF,target,left,aqua,imageability,liberal,no,z,1,1.58359759419,3,621
2019_Nov_06,31,001,3,recog,93,PSEUDONYM,LF,lure,-,-,-,conservative,no,m,1,1.53365320812,3,624
2019_Nov_06,31,001,3,recog,94,ENLIGHTEN,LF,lure,-,-,-,conservative,no,m,1,1.56685879195,3,627
2019_Nov_06,31,001,3,recog,95,SWEARS,LF,lure,-,-,-,liberal,no,m,1,0.966923094407,1,628
2019_Nov_06,31,001,4,source,0,VOLITION,LF,target,left,aqua,imageability,conservative,no,7,0,2.05011009138,-,-
2019_Nov_06,31,001,4,source,1,SNUBBED,LF,target,left,aqua,imageability,conservative,no,2,1,1.26669829243,-,-
2019_Nov_06,31,001,4,source,2,MACARONI,LF,target,left,aqua,imageability,liberal,no,1,1,1.31693706204,-,-
2019_Nov_06,31,001,4,source,3,SOVIET,HF,target,right,yellow,pleasantness,liberal,no,9,1,1.06691378265,-,-
2019_Nov_06,31,001,4,source,4,URBANE,LF,target,right,yellow,pleasantness,conservative,no,9,1,0.96692016157,-,-
2019_Nov_06,31,001,4,source,5,ITSELF,HF,target,right,yellow,pleasantness,liberal,yes,7,1,1.06699333586,-,-
2019_Nov_06,31,001,4,source,6,CLEAR,HF,target,right,yellow,pleasantness,conservative,no,7,1,1.31696859005,-,-
2019_Nov_06,31,001,4,source,7,BEAUTIFUL,HF,target,right,yellow,pleasantness,liberal,no,8,1,1.01687554578,-,-
2019_Nov_06,31,001,4,source,8,TYRANTS,LF,target,right,yellow,pleasantness,conservative,no,8,1,0.733335068595,-,-
2019_Nov_06,31,001,4,source,9,EARLIER,HF,target,left,aqua,imageability,conservative,no,2,1,1.1835380576,-,-
2019_Nov_06,31,001,4,source,10,WHITE,HF,target,left,aqua,imageability,conservative,yes,3,1,1.26687169643,-,-
2019_Nov_06,31,001,4,source,11,GAZELLE,LF,target,right,yellow,pleasantness,liberal,no,9,1,1.03350949909,-,-
2019_Nov_06,31,001,4,source,12,SORRY,HF,target,left,aqua,imageability,liberal,no,2,1,1.83351675787,-,-
2019_Nov_06,31,001,4,source,13,RIVER,HF,target,left,aqua,imageability,liberal,no,2,1,1.9001775833,-,-
2019_Nov_06,31,001,4,source,14,BOMBARDED,LF,target,right,yellow,pleasantness,liberal,no,9,1,1.35022476532,-,-
2019_Nov_06,31,001,4,source,15,SPUDS,LF,target,left,aqua,imageability,liberal,no,1,1,1.58349861094,-,-
2019_Nov_06,31,001,4,source,16,GREATER,HF,target,left,aqua,imageability,conservative,no,3,1,1.99996333953,-,-
2019_Nov_06,31,001,4,source,17,THYROID,LF,target,left,aqua,imageability,liberal,no,1,1,1.31688243795,-,-
2019_Nov_06,31,001,4,source,18,PHYSICAL,HF,target,left,aqua,imageability,liberal,no,2,1,1.1002469449,-,-
2019_Nov_06,31,001,4,source,19,ICILY,LF,target,left,aqua,imageability,conservative,no,1,1,1.08357376489,-,-
2019_Nov_06,31,001,4,source,20,SERIOUS,HF,target,right,yellow,pleasantness,conservative,no,7,1,1.43349168211,-,-
2019_Nov_06,31,001,4,source,21,KRONOR,LF,target,right,yellow,pleasantness,liberal,no,9,1,1.36683452272,-,-
2019_Nov_06,31,001,4,source,22,TOGETHER,HF,target,left,aqua,imageability,conservative,no,1,1,2.71678763398,-,-
2019_Nov_06,31,001,4,source,23,LIVED,HF,target,left,aqua,imageability,liberal,no,7,0,2.41681776889,-,-
2019_Nov_06,31,001,4,source,24,REVERE,LF,target,right,yellow,pleasantness,conservative,no,8,1,0.933617427506,-,-
2019_Nov_06,31,001,4,source,25,PUNCTUAL,LF,target,right,yellow,pleasantness,conservative,no,2,0,2.06663662952,-,-
2019_Nov_06,31,001,4,source,26,BEFALL,LF,target,left,aqua,imageability,liberal,no,2,1,1.25026303884,-,-
2019_Nov_06,31,001,4,source,27,TRADE,HF,target,left,aqua,imageability,conservative,yes,3,1,1.06686062497,-,-
2019_Nov_06,31,001,4,source,28,MILES,HF,target,right,yellow,pleasantness,conservative,no,9,1,1.66683005014,-,-
2019_Nov_06,31,001,4,source,29,WAXEN,LF,target,left,aqua,imageability,conservative,no,8,0,1.38354179696,-,-
2019_Nov_06,31,001,4,source,30,FUTURE,HF,target,left,aqua,imageability,liberal,no,2,1,1.31692679711,-,-
2019_Nov_06,31,001,4,source,31,MATERIAL,HF,target,right,yellow,pleasantness,conservative,no,8,1,2.38347324189,-,-
2019_Nov_06,31,001,4,source,32,BELIEVE,HF,target,right,yellow,pleasantness,liberal,no,7,1,1.08362875559,-,-
2019_Nov_06,31,001,4,source,33,CONCERNED,HF,target,right,yellow,pleasantness,conservative,yes,3,0,0.816683371619,-,-
2019_Nov_06,31,001,4,source,34,FELLS,LF,target,right,yellow,pleasantness,liberal,no,2,0,1.60015199429,-,-
2019_Nov_06,31,001,4,source,35,SANDAL,LF,target,left,aqua,imageability,liberal,no,1,1,2.16665957898,-,-
2019_Nov_06,31,001,4,source,36,BASIC,HF,target,right,yellow,pleasantness,liberal,no,7,1,1.15022615842,-,-
2019_Nov_06,31,001,4,source,37,BRUISING,LF,target,left,aqua,imageability,conservative,no,2,1,1.03360921556,-,-
2019_Nov_06,31,001,4,source,38,CREAK,LF,target,left,aqua,imageability,liberal,no,2,1,1.06687675558,-,-
2019_Nov_06,31,001,4,source,39,ENERGY,HF,target,right,yellow,pleasantness,conservative,no,8,1,2.50019136763,-,-
2019_Nov_06,31,001,4,source,40,REDDENED,LF,target,right,yellow,pleasantness,liberal,no,9,1,1.00025515684,-,-
2019_Nov_06,31,001,4,source,41,NEITHER,HF,target,right,yellow,pleasantness,liberal,no,8,1,2.36680482774,-,-
2019_Nov_06,31,001,4,source,42,WAFER,LF,target,right,yellow,pleasantness,liberal,no,8,1,2.28358703598,-,-
2019_Nov_06,31,001,4,source,43,TERMS,HF,target,left,aqua,imageability,liberal,no,8,0,1.55019880971,-,-
2019_Nov_06,31,001,4,source,44,AREAS,HF,target,left,aqua,imageability,conservative,no,2,1,1.80013483719,-,-
2019_Nov_06,31,001,4,source,45,SNEAKED,LF,target,right,yellow,pleasantness,conservative,no,8,1,0.983568779067,-,-
2019_Nov_06,31,001,4,source,46,KILOWATT,LF,target,right,yellow,pleasantness,conservative,no,9,1,1.76680534099,-,-
2019_Nov_06,31,001,4,source,47,NAPPY,LF,target,left,aqua,imageability,conservative,no,9,0,1.066878222,-,-
2019_Nov_06,31,001,4,recog,0,RATHER,HF,lure,-,-,-,conservative,no,z,0,1.90021974283,-3,625
2019_Nov_06,31,001,4,recog,1,OCTAGONAL,LF,lure,-,-,-,liberal,no,m,1,1.4502422157,1,626
2019_Nov_06,31,001,4,recog,2,TOGETHER,HF,target,left,aqua,imageability,conservative,no,z,1,1.00021922959,1,627
2019_Nov_06,31,001,4,recog,3,LARGE,HF,lure,-,-,-,liberal,no,m,1,0.783530212257,1,628
2019_Nov_06,31,001,4,recog,4,MACARONI,LF,target,left,aqua,imageability,liberal,no,z,1,0.633585239616,3,631
2019_Nov_06,31,001,4,recog,5,CHAIR,HF,lure,-,-,-,conservative,no,m,1,0.76665356666,3,634
2019_Nov_06,31,001,4,recog,6,AMICABLY,LF,lure,-,-,-,liberal,no,m,1,2.0168216549,1,635
2019_Nov_06,31,001,4,recog,7,ATTACK,HF,lure,-,-,-,liberal,no,m,1,0.833660100288,1,636
2019_Nov_06,31,001,4,recog,8,STRAIGHT,HF,lure,-,-,-,liberal,no,m,1,1.40022560851,1,637
2019_Nov_06,31,001,4,recog,9,ACTION,HF,lure,-,-,-,liberal,no,m,1,1.75014389233,1,638
2019_Nov_06,31,001,4,recog,10,SOVIET,HF,target,right,yellow,pleasantness,liberal,no,z,1,1.16689163973,3,641
2019_Nov_06,31,001,4,recog,11,UNMADE,LF,lure,-,-,-,liberal,no,m,1,0.900200679392,1,642
2019_Nov_06,31,001,4,recog,12,LIKELY,HF,lure,-,-,-,liberal,no,m,1,0.750239942751,1,643
2019_Nov_06,31,001,4,recog,13,PUNCTUAL,LF,target,right,yellow,pleasantness,conservative,no,z,1,0.666947363636,1,644
2019_Nov_06,31,001,4,recog,14,FUTURE,HF,target,left,aqua,imageability,liberal,no,z,1,0.883515401429,3,647
2019_Nov_06,31,001,4,recog,15,AROUND,HF,lure,-,-,-,liberal,no,m,1,1.26689405932,1,648
2019_Nov_06,31,001,4,recog,16,SNEAKED,LF,target,right,yellow,pleasantness,conservative,no,z,1,0.716854356033,1,649
2019_Nov_06,31,001,4,recog,17,JINGLE,LF,lure,-,-,-,liberal,no,m,1,1.03372176319,1,650
2019_Nov_06,31,001,4,recog,18,BRUISING,LF,target,left,aqua,imageability,conservative,yes,m,0,1.33357358159,-1,649
2019_Nov_06,31,001,4,recog,19,COERCION,LF,lure,-,-,-,liberal,no,m,1,1.10026857458,1,650
2019_Nov_06,31,001,4,recog,20,JOURNEYED,LF,lure,-,-,-,liberal,no,m,1,1.26687646229,1,651
2019_Nov_06,31,001,4,recog,21,SUAVE,LF,lure,-,-,-,conservative,no,m,1,0.850218166434,3,654
2019_Nov_06,31,001,4,recog,22,BEFALL,LF,target,left,aqua,imageability,liberal,no,z,1,1.28350125049,3,657
2019_Nov_06,31,001,4,recog,23,SNUBBED,LF,target,left,aqua,imageability,conservative,no,z,1,0.76685886527,1,658
2019_Nov_06,31,001,4,recog,24,TRADE,HF,target,left,aqua,imageability,conservative,no,z,1,0.750198516424,1,659
2019_Nov_06,31,001,4,recog,25,CALLED,HF,lure,-,-,-,conservative,no,z,0,1.01668381154,-3,656
2019_Nov_06,31,001,4,recog,26,PERHAPS,HF,lure,-,-,-,liberal,no,m,1,2.41681556926,1,657
2019_Nov_06,31,001,4,recog,27,AREAS,HF,target,left,aqua,imageability,conservative,no,z,1,1.53352489649,1,658
2019_Nov_06,31,001,4,recog,28,BEAUTIFUL,HF,target,right,yellow,pleasantness,liberal,no,z,1,1.26687866192,3,661
2019_Nov_06,31,001,4,recog,29,FELLS,LF,target,right,yellow,pleasantness,liberal,no,z,1,1.16694516401,3,664
2019_Nov_06,31,001,4,recog,30,CLICKS,LF,lure,-,-,-,liberal,no,m,1,1.10025940946,1,665
2019_Nov_06,31,001,4,recog,31,RETURN,HF,lure,-,-,-,conservative,no,m,1,2.20007816011,3,668
2019_Nov_06,31,001,4,recog,32,REDDENED,LF,target,right,yellow,pleasantness,liberal,no,z,1,0.783623696445,3,671
2019_Nov_06,31,001,4,recog,33,GANGWAY,LF,lure,-,-,-,conservative,no,m,1,0.916895122471,3,674
2019_Nov_06,31,001,4,recog,34,REVERE,LF,target,right,yellow,pleasantness,conservative,no,z,1,0.866896112304,1,675
2019_Nov_06,31,001,4,recog,35,KRONOR,LF,target,right,yellow,pleasantness,liberal,no,z,1,1.35016720839,3,678
2019_Nov_06,31,001,4,recog,36,ENTIRELY,HF,lure,-,-,-,conservative,no,m,1,2.13338544008,3,681
2019_Nov_06,31,001,4,recog,37,NAPPY,LF,target,left,aqua,imageability,conservative,no,z,1,0.866867150536,1,682
2019_Nov_06,31,001,4,recog,38,POUNDS,HF,lure,-,-,-,conservative,no,m,1,1.20025596337,3,685
2019_Nov_06,31,001,4,recog,39,COWARDS,LF,lure,-,-,-,liberal,no,m,1,0.983516354601,1,686
2019_Nov_06,31,001,4,recog,40,VEHEMENCE,LF,lure,-,-,-,conservative,no,m,1,1.38349120552,3,689
2019_Nov_06,31,001,4,recog,41,GREATER,HF,target,left,aqua,imageability,conservative,no,z,1,1.56683386283,1,690
2019_Nov_06,31,001,4,recog,42,GAZELLE,LF,target,right,yellow,pleasantness,liberal,no,z,1,1.21673924217,3,693
2019_Nov_06,31,001,4,recog,43,KILOWATT,LF,target,right,yellow,pleasantness,conservative,yes,m,0,1.31693816186,-1,692
2019_Nov_06,31,001,4,recog,44,OPTIC,LF,lure,-,-,-,conservative,no,m,1,3.58346305028,3,695
2019_Nov_06,31,001,4,recog,45,SENSE,HF,lure,-,-,-,conservative,no,m,1,1.68355162197,3,698
2019_Nov_06,31,001,4,recog,46,BELIEVE,HF,target,right,yellow,pleasantness,liberal,no,z,1,0.916736382653,3,701
2019_Nov_06,31,001,4,recog,47,SERIOUS,HF,target,right,yellow,pleasantness,conservative,no,z,1,1.44998669225,1,702
2019_Nov_06,31,001,4,recog,48,VIOLATING,LF,lure,-,-,-,conservative,no,m,1,0.933514411596,3,705
2019_Nov_06,31,001,4,recog,49,EBONY,LF,lure,-,-,-,liberal,no,m,1,1.0168454842,1,706
2019_Nov_06,31,001,4,recog,50,BASIC,HF,target,right,yellow,pleasantness,liberal,no,z,1,1.64997576743,3,709
2019_Nov_06,31,001,4,recog,51,HIMSELF,HF,lure,-,-,-,liberal,no,m,1,1.46668553459,1,710
2019_Nov_06,31,001,4,recog,52,UNWARY,LF,lure,-,-,-,liberal,yes,z,0,1.16683591582,-1,709
2019_Nov_06,31,001,4,recog,53,SPUDS,LF,target,left,aqua,imageability,liberal,no,z,1,1.73346448004,3,712
2019_Nov_06,31,001,4,recog,54,NEITHER,HF,target,right,yellow,pleasantness,liberal,no,z,1,1.21691044655,3,715
2019_Nov_06,31,001,4,recog,55,SANDAL,LF,target,left,aqua,imageability,liberal,no,z,1,0.61687613235,3,718
2019_Nov_06,31,001,4,recog,56,VOLITION,LF,target,left,aqua,imageability,conservative,no,z,1,1.0500169738,1,719
2019_Nov_06,31,001,4,recog,57,ICILY,LF,target,left,aqua,imageability,conservative,no,z,1,0.550350584038,1,720
2019_Nov_06,31,001,4,recog,58,MATERIAL,HF,target,right,yellow,pleasantness,conservative,no,z,1,0.633535014778,1,721
2019_Nov_06,31,001,4,recog,59,LIVED,HF,target,left,aqua,imageability,liberal,no,m,0,0.866894279281,-3,718
2019_Nov_06,31,001,4,recog,60,TERMS,HF,target,left,aqua,imageability,liberal,yes,z,1,1.75022747819,3,721
2019_Nov_06,31,001,4,recog,61,ABOVE,HF,lure,-,-,-,liberal,no,m,1,2.61689922844,1,722
2019_Nov_06,31,001,4,recog,62,TRIED,HF,lure,-,-,-,liberal,no,m,1,0.716903847663,1,723
2019_Nov_06,31,001,4,recog,63,CONCERNED,HF,target,right,yellow,pleasantness,conservative,no,m,0,0.616883097839,-1,722
2019_Nov_06,31,001,4,recog,64,REPORT,HF,lure,-,-,-,conservative,no,m,1,0.966849040266,3,725
2019_Nov_06,31,001,4,recog,65,PHYSICAL,HF,target,left,aqua,imageability,liberal,no,z,1,0.783619663794,3,728
2019_Nov_06,31,001,4,recog,66,WAXEN,LF,target,left,aqua,imageability,conservative,no,z,1,1.36690821026,1,729
2019_Nov_06,31,001,4,recog,67,MILES,HF,target,right,yellow,pleasantness,conservative,no,z,1,0.583630588613,1,730
2019_Nov_06,31,001,4,recog,68,CREAK,LF,target,left,aqua,imageability,liberal,no,z,1,0.633675790968,3,733
2019_Nov_06,31,001,4,recog,69,ITSELF,HF,target,right,yellow,pleasantness,liberal,no,z,1,0.550282028966,3,736
2019_Nov_06,31,001,4,recog,70,WAFER,LF,target,right,yellow,pleasantness,liberal,no,z,1,0.566913049439,3,739
2019_Nov_06,31,001,4,recog,71,VILLAGE,HF,lure,-,-,-,liberal,no,m,1,0.866896478909,1,740
2019_Nov_06,31,001,4,recog,72,CLEAR,HF,target,right,yellow,pleasantness,conservative,no,z,1,0.716937941896,1,741
2019_Nov_06,31,001,4,recog,73,DREADING,LF,lure,-,-,-,conservative,no,m,1,1.00022472866,3,744
2019_Nov_06,31,001,4,recog,74,MITIGATE,LF,lure,-,-,-,conservative,no,m,1,1.21690898013,3,747
2019_Nov_06,31,001,4,recog,75,AVAILABLE,HF,lure,-,-,-,conservative,no,m,1,1.80016086613,3,750
2019_Nov_06,31,001,4,recog,76,CRONE,LF,lure,-,-,-,liberal,no,m,1,0.933387566383,1,751
2019_Nov_06,31,001,4,recog,77,TINGLING,LF,lure,-,-,-,conservative,no,m,1,1.26688086155,3,754
2019_Nov_06,31,001,4,recog,78,PARENTS,HF,lure,-,-,-,conservative,no,m,1,0.716989999758,3,757
2019_Nov_06,31,001,4,recog,79,UNDER,HF,lure,-,-,-,liberal,no,m,1,0.733614787952,1,758
2019_Nov_06,31,001,4,recog,80,EXHALED,LF,lure,-,-,-,conservative,no,m,1,0.86691700877,3,761
2019_Nov_06,31,001,4,recog,81,MOPED,LF,lure,-,-,-,conservative,no,m,1,0.966746024356,3,764
2019_Nov_06,31,001,4,recog,82,BOMBARDED,LF,target,right,yellow,pleasantness,liberal,no,z,1,1.63357387487,3,767
2019_Nov_06,31,001,4,recog,83,EARLIER,HF,target,left,aqua,imageability,conservative,no,m,0,1.69997404439,-1,766
2019_Nov_06,31,001,4,recog,84,URBANE,LF,target,right,yellow,pleasantness,conservative,no,z,1,1.51686381443,1,767
2019_Nov_06,31,001,4,recog,85,RUINOUS,LF,lure,-,-,-,conservative,no,m,1,1.05022630506,3,770
2019_Nov_06,31,001,4,recog,86,HAPPEN,HF,lure,-,-,-,conservative,no,m,1,1.00032077908,3,773
2019_Nov_06,31,001,4,recog,87,THYROID,LF,target,left,aqua,imageability,liberal,no,z,1,0.916852962936,3,776
2019_Nov_06,31,001,4,recog,88,JAUNDICE,LF,lure,-,-,-,liberal,no,m,1,1.70021417044,1,777
2019_Nov_06,31,001,4,recog,89,THING,HF,lure,-,-,-,conservative,no,m,1,1.76694465076,3,780
2019_Nov_06,31,001,4,recog,90,NURTURING,LF,lure,-,-,-,conservative,no,m,1,0.983567312649,3,783
2019_Nov_06,31,001,4,recog,91,ENERGY,HF,target,right,yellow,pleasantness,conservative,no,m,0,0.816725531155,-1,782
2019_Nov_06,31,001,4,recog,92,SORRY,HF,target,left,aqua,imageability,liberal,no,z,1,1.51690414095,3,785
2019_Nov_06,31,001,4,recog,93,WHITE,HF,target,left,aqua,imageability,conservative,no,z,1,1.56683056339,1,786
2019_Nov_06,31,001,4,recog,94,RIVER,HF,target,left,aqua,imageability,liberal,no,z,1,0.83359337824,3,789
2019_Nov_06,31,001,4,recog,95,TYRANTS,LF,target,right,yellow,pleasantness,conservative,no,z,1,1.40019481372,1,790
