date,subj,session,cycle,task,trial,item,wf,type,source,colour,encoding,bias,null,response,corr,rt,points,total
2019_Nov_06,32,001,0,source,0,RUINOUS,LF,target,right,aqua,pleasantness,conservative,no,8,1,6.36639789657,-,-
2019_Nov_06,32,001,0,source,1,AXLES,LF,target,right,aqua,pleasantness,conservative,no,9,1,2.51684255136,-,-
2019_Nov_06,32,001,0,source,2,ARMAMENT,LF,target,left,yellow,imageability,conservative,no,1,1,2.7999544677,-,-
2019_Nov_06,32,001,0,source,3,APPEARED,HF,target,left,yellow,imageability,conservative,no,2,1,4.10013146443,-,-
2019_Nov_06,32,001,0,source,4,TATTERS,LF,target,left,yellow,imageability,liberal,no,1,1,1.4002329406,-,-
2019_Nov_06,32,001,0,source,5,LEMURS,LF,target,left,yellow,imageability,conservative,no,1,1,1.69997661062,-,-
2019_Nov_06,32,001,0,source,6,DWARFED,LF,target,left,yellow,imageability,liberal,no,1,1,0.7835808037,-,-
2019_Nov_06,32,001,0,source,7,QUALITY,HF,target,left,yellow,imageability,liberal,no,1,1,2.6167859476,-,-
2019_Nov_06,32,001,0,source,8,APOSTLE,LF,target,left,yellow,imageability,liberal,no,1,1,0.783518114303,-,-
2019_Nov_06,32,001,0,source,9,EVENING,HF,target,right,aqua,pleasantness,conservative,no,9,1,1.61695751858,-,-
2019_Nov_06,32,001,0,source,10,DINER,LF,target,right,aqua,pleasantness,liberal,no,9,1,1.0002122641,-,-
2019_Nov_06,32,001,0,source,11,LEVEL,HF,target,left,yellow,imageability,conservative,no,1,1,1.70014341574,-,-
2019_Nov_06,32,001,0,source,12,UNZIPPED,LF,target,left,yellow,imageability,liberal,yes,3,1,1.33364177005,-,-
2019_Nov_06,32,001,0,source,13,IRRIGATED,LF,target,right,aqua,pleasantness,liberal,no,9,1,2.34995384447,-,-
2019_Nov_06,32,001,0,source,14,BEHIND,HF,target,left,yellow,imageability,liberal,no,1,1,2.80012603868,-,-
2019_Nov_06,32,001,0,source,15,EXCEPT,HF,target,right,aqua,pleasantness,liberal,no,8,1,3.78341803123,-,-
2019_Nov_06,32,001,0,source,16,TOXICITY,LF,target,left,yellow,imageability,conservative,no,7,0,3.8833797577,-,-
2019_Nov_06,32,001,0,source,17,RENAMED,LF,target,left,yellow,imageability,liberal,no,2,1,3.68351422829,-,-
2019_Nov_06,32,001,0,source,18,SLACKEN,LF,target,right,aqua,pleasantness,liberal,no,9,1,2.16683224977,-,-
2019_Nov_06,32,001,0,source,19,GARDEN,HF,target,left,yellow,imageability,conservative,no,1,1,2.96680541431,-,-
2019_Nov_06,32,001,0,source,20,EPIDEMICS,LF,target,left,yellow,imageability,conservative,no,1,1,0.900252737253,-,-
2019_Nov_06,32,001,0,source,21,PRIVATE,HF,target,left,yellow,imageability,liberal,yes,8,0,1.3001978932,-,-
2019_Nov_06,32,001,0,source,22,BOTANIST,LF,target,right,aqua,pleasantness,conservative,no,9,1,1.28329925132,-,-
2019_Nov_06,32,001,0,source,23,GAUCHE,LF,target,right,aqua,pleasantness,liberal,no,8,1,4.11675551942,-,-
2019_Nov_06,32,001,0,source,24,BEGAN,HF,target,left,yellow,imageability,conservative,no,1,1,2.90018821483,-,-
2019_Nov_06,32,001,0,source,25,RIVER,HF,target,right,aqua,pleasantness,conservative,no,9,1,2.63324906314,-,-
2019_Nov_06,32,001,0,source,26,OPTIC,LF,target,right,aqua,pleasantness,liberal,no,9,1,0.900264468602,-,-
2019_Nov_06,32,001,0,source,27,THOUSAND,HF,target,right,aqua,pleasantness,conservative,no,9,1,0.916849663493,-,-
2019_Nov_06,32,001,0,source,28,WITHIN,HF,target,left,yellow,imageability,liberal,no,1,1,4.01673330317,-,-
2019_Nov_06,32,001,0,source,29,NUMBER,HF,target,left,yellow,imageability,conservative,no,1,1,4.86644042271,-,-
2019_Nov_06,32,001,0,source,30,ALLOWED,HF,target,right,aqua,pleasantness,liberal,no,8,1,4.29999552742,-,-
2019_Nov_06,32,001,0,source,31,REACHED,HF,target,right,aqua,pleasantness,liberal,no,9,1,1.58352793931,-,-
2019_Nov_06,32,001,0,source,32,FINAL,HF,target,right,aqua,pleasantness,conservative,no,9,1,3.15011324418,-,-
2019_Nov_06,32,001,0,source,33,ASCEND,LF,target,left,yellow,imageability,conservative,yes,7,0,1.25022087931,-,-
2019_Nov_06,32,001,0,source,34,HAPPEN,HF,target,right,aqua,pleasantness,liberal,no,3,0,2.4502499144,-,-
2019_Nov_06,32,001,0,source,35,MONEY,HF,target,right,aqua,pleasantness,liberal,no,1,0,4.88309307286,-,-
2019_Nov_06,32,001,0,source,36,WHOLE,HF,target,left,yellow,imageability,liberal,no,1,1,2.3334958614,-,-
2019_Nov_06,32,001,0,source,37,HEMMED,LF,target,right,aqua,pleasantness,conservative,no,8,1,4.79998452928,-,-
2019_Nov_06,32,001,0,source,38,POWER,HF,target,left,yellow,imageability,liberal,no,1,1,7.08319762851,-,-
2019_Nov_06,32,001,0,source,39,RANGE,HF,target,left,yellow,imageability,conservative,no,1,1,2.58353087215,-,-
2019_Nov_06,32,001,0,source,40,UPHEAVALS,LF,target,right,aqua,pleasantness,conservative,no,8,1,3.76682587085,-,-
2019_Nov_06,32,001,0,source,41,INSIDE,HF,target,right,aqua,pleasantness,conservative,no,8,1,5.06645955947,-,-
2019_Nov_06,32,001,0,source,42,OFFER,HF,target,right,aqua,pleasantness,conservative,no,9,1,5.01652837117,-,-
2019_Nov_06,32,001,0,source,43,BALDING,LF,target,right,aqua,pleasantness,conservative,yes,9,1,1.10006144294,-,-
2019_Nov_06,32,001,0,source,44,LEECH,LF,target,right,aqua,pleasantness,liberal,no,9,1,3.48321573878,-,-
2019_Nov_06,32,001,0,source,45,BASIC,HF,target,right,aqua,pleasantness,liberal,no,9,1,4.08339522842,-,-
2019_Nov_06,32,001,0,source,46,PNEUMATIC,LF,target,left,yellow,imageability,liberal,no,1,1,1.81684834372,-,-
2019_Nov_06,32,001,0,source,47,EXUDED,LF,target,left,yellow,imageability,conservative,no,3,1,3.50012647861,-,-
2019_Nov_06,32,001,0,recog,0,EXUDED,LF,target,left,yellow,imageability,conservative,no,z,1,1.48354531637,1,1
2019_Nov_06,32,001,0,recog,1,ROVERS,LF,lure,-,-,-,conservative,yes,z,0,1.68361761081,-3,-2
2019_Nov_06,32,001,0,recog,2,OFFER,HF,target,right,aqua,pleasantness,conservative,no,z,1,4.23339299213,1,-1
2019_Nov_06,32,001,0,recog,3,THOUSAND,HF,target,right,aqua,pleasantness,conservative,no,z,1,1.05023143752,1,0
2019_Nov_06,32,001,0,recog,4,THYROID,LF,lure,-,-,-,conservative,no,m,1,1.11689299617,3,3
2019_Nov_06,32,001,0,recog,5,APPEARED,HF,target,left,yellow,imageability,conservative,no,z,1,1.36671134355,1,4
2019_Nov_06,32,001,0,recog,6,ASCEND,LF,target,left,yellow,imageability,conservative,no,z,1,0.883564893057,1,5
2019_Nov_06,32,001,0,recog,7,CONCERNED,HF,lure,-,-,-,liberal,no,m,1,2.20012178607,1,6
2019_Nov_06,32,001,0,recog,8,COUNCIL,HF,lure,-,-,-,liberal,no,m,1,2.95009630704,1,7
2019_Nov_06,32,001,0,recog,9,TOTAL,HF,lure,-,-,-,liberal,no,z,0,2.15026831795,-1,6
2019_Nov_06,32,001,0,recog,10,TOXICITY,LF,target,left,yellow,imageability,conservative,no,z,1,1.06689361939,1,7
2019_Nov_06,32,001,0,recog,11,BASIC,HF,target,right,aqua,pleasantness,liberal,no,z,1,1.00027018764,3,10
2019_Nov_06,32,001,0,recog,12,UNZIPPED,LF,target,left,yellow,imageability,liberal,no,z,1,2.15016713507,3,13
2019_Nov_06,32,001,0,recog,13,EMPATHY,LF,lure,-,-,-,conservative,no,m,1,1.46682264473,3,16
2019_Nov_06,32,001,0,recog,14,ENSCONCED,LF,lure,-,-,-,liberal,no,m,1,2.14991124501,1,17
2019_Nov_06,32,001,0,recog,15,WITHIN,HF,target,left,yellow,imageability,liberal,no,z,1,1.21688111817,3,20
2019_Nov_06,32,001,0,recog,16,GAUCHE,LF,target,right,aqua,pleasantness,liberal,yes,z,1,1.40024540516,3,23
2019_Nov_06,32,001,0,recog,17,PHYSICAL,HF,lure,-,-,-,conservative,no,m,1,3.65007695032,3,26
2019_Nov_06,32,001,0,recog,18,CLASS,HF,lure,-,-,-,conservative,no,m,1,2.51676923043,3,29
2019_Nov_06,32,001,0,recog,19,BEHIND,HF,target,left,yellow,imageability,liberal,no,z,1,4.05003787026,3,32
2019_Nov_06,32,001,0,recog,20,IRRIGATED,LF,target,right,aqua,pleasantness,liberal,no,z,1,0.983511955345,3,35
2019_Nov_06,32,001,0,recog,21,APOSTLE,LF,target,left,yellow,imageability,liberal,no,z,1,0.666939664938,3,38
2019_Nov_06,32,001,0,recog,22,UMBILICAL,LF,lure,-,-,-,liberal,no,m,1,1.16686414438,1,39
2019_Nov_06,32,001,0,recog,23,HEMMED,LF,target,right,aqua,pleasantness,conservative,no,z,1,0.749929428603,1,40
2019_Nov_06,32,001,0,recog,24,UNCANNILY,LF,lure,-,-,-,liberal,no,m,1,0.800211090964,1,41
2019_Nov_06,32,001,0,recog,25,TWENTY,HF,lure,-,-,-,conservative,yes,m,1,1.05022557185,3,44
2019_Nov_06,32,001,0,recog,26,AXLES,LF,target,right,aqua,pleasantness,conservative,no,z,1,1.06686539083,1,45
2019_Nov_06,32,001,0,recog,27,BEYOND,HF,lure,-,-,-,liberal,no,m,1,1.18350836262,1,46
2019_Nov_06,32,001,0,recog,28,WAFER,LF,lure,-,-,-,conservative,no,m,1,0.866908943468,3,49
2019_Nov_06,32,001,0,recog,29,ANEMONES,LF,lure,-,-,-,liberal,no,m,1,2.21688111817,1,50
2019_Nov_06,32,001,0,recog,30,ARMAMENT,LF,target,left,yellow,imageability,conservative,no,z,1,0.983537251066,1,51
2019_Nov_06,32,001,0,recog,31,NUMBER,HF,target,left,yellow,imageability,conservative,no,z,1,1.15012497553,1,52
2019_Nov_06,32,001,0,recog,32,DINER,LF,target,right,aqua,pleasantness,liberal,no,z,1,0.600250977552,3,55
2019_Nov_06,32,001,0,recog,33,REACHED,HF,target,right,aqua,pleasantness,liberal,no,z,1,1.01683375285,3,58
2019_Nov_06,32,001,0,recog,34,BALDING,LF,target,right,aqua,pleasantness,conservative,yes,m,0,0.666902637868,-1,57
2019_Nov_06,32,001,0,recog,35,IDEAS,HF,lure,-,-,-,conservative,no,z,0,3.46679258315,-3,54
2019_Nov_06,32,001,0,recog,36,GORGED,LF,lure,-,-,-,conservative,no,m,1,1.08361482461,3,57
2019_Nov_06,32,001,0,recog,37,CUBED,LF,lure,-,-,-,liberal,no,z,0,0.783572371793,-1,56
2019_Nov_06,32,001,0,recog,38,LANGUAGE,HF,lure,-,-,-,liberal,no,m,1,2.10019635346,1,57
2019_Nov_06,32,001,0,recog,39,ORBITAL,LF,lure,-,-,-,liberal,no,m,1,1.28332857969,1,58
2019_Nov_06,32,001,0,recog,40,FINAL,HF,target,right,aqua,pleasantness,conservative,no,z,1,2.33349549479,1,59
2019_Nov_06,32,001,0,recog,41,LEVEL,HF,target,left,yellow,imageability,conservative,no,z,1,1.16686231135,1,60
2019_Nov_06,32,001,0,recog,42,LAYERED,LF,lure,-,-,-,conservative,no,m,1,2.55022300562,3,63
2019_Nov_06,32,001,0,recog,43,OATHS,LF,lure,-,-,-,conservative,no,m,1,0.950266778212,3,66
2019_Nov_06,32,001,0,recog,44,AREAS,HF,lure,-,-,-,liberal,no,m,1,1.08357853075,1,67
2019_Nov_06,32,001,0,recog,45,FRUGAL,LF,lure,-,-,-,liberal,no,m,1,3.00016570531,1,68
2019_Nov_06,32,001,0,recog,46,POWER,HF,target,left,yellow,imageability,liberal,no,z,1,0.683571052015,3,71
2019_Nov_06,32,001,0,recog,47,LOLLED,LF,lure,-,-,-,conservative,no,m,1,1.13354967896,3,74
2019_Nov_06,32,001,0,recog,48,EPIDEMICS,LF,target,left,yellow,imageability,conservative,no,z,1,0.750212080797,1,75
2019_Nov_06,32,001,0,recog,49,INCLUDING,HF,lure,-,-,-,conservative,no,m,1,1.1835776509,3,78
2019_Nov_06,32,001,0,recog,50,CAUGHT,HF,lure,-,-,-,liberal,no,m,1,3.36666698439,1,79
2019_Nov_06,32,001,0,recog,51,PREPARED,HF,lure,-,-,-,conservative,no,m,1,1.11690839356,3,82
2019_Nov_06,32,001,0,recog,52,DAMASK,LF,lure,-,-,-,conservative,no,m,1,0.96664814091,3,85
2019_Nov_06,32,001,0,recog,53,JUROR,LF,lure,-,-,-,liberal,no,m,1,0.933620726948,1,86
2019_Nov_06,32,001,0,recog,54,MONEY,HF,target,right,aqua,pleasantness,liberal,no,z,1,0.700296289888,3,89
2019_Nov_06,32,001,0,recog,55,HYSTERICS,LF,lure,-,-,-,liberal,no,m,1,1.91688082489,1,90
2019_Nov_06,32,001,0,recog,56,BOTANIST,LF,target,right,aqua,pleasantness,conservative,no,z,1,2.50012134614,1,91
2019_Nov_06,32,001,0,recog,57,TATTERS,LF,target,left,yellow,imageability,liberal,no,z,1,1.21688735045,3,94
2019_Nov_06,32,001,0,recog,58,RUINOUS,LF,target,right,aqua,pleasantness,conservative,no,z,1,1.5666505605,1,95
2019_Nov_06,32,001,0,recog,59,TRADE,HF,lure,-,-,-,conservative,no,z,0,3.68343504169,-3,92
2019_Nov_06,32,001,0,recog,60,RIVER,HF,target,right,aqua,pleasantness,conservative,no,z,1,1.00022362884,1,93
2019_Nov_06,32,001,0,recog,61,PLACE,HF,lure,-,-,-,conservative,no,m,1,2.31677795562,3,96
2019_Nov_06,32,001,0,recog,62,MITIGATE,LF,lure,-,-,-,conservative,no,m,1,1.08355580126,3,99
2019_Nov_06,32,001,0,recog,63,REWRITE,LF,lure,-,-,-,conservative,no,m,1,2.00021079768,3,102
2019_Nov_06,32,001,0,recog,64,ANSWER,HF,lure,-,-,-,conservative,no,m,1,1.26687646229,3,105
2019_Nov_06,32,001,0,recog,65,EMBATTLED,LF,lure,-,-,-,conservative,no,m,1,0.933603496529,3,108
2019_Nov_06,32,001,0,recog,66,OUSTED,LF,lure,-,-,-,liberal,no,z,0,1.21677626924,-1,107
2019_Nov_06,32,001,0,recog,67,HAPPEN,HF,target,right,aqua,pleasantness,liberal,no,m,0,2.76674741745,-3,104
2019_Nov_06,32,001,0,recog,68,SOVIET,HF,lure,-,-,-,liberal,no,m,1,0.866951103003,1,105
2019_Nov_06,32,001,0,recog,69,DEVELOPED,HF,lure,-,-,-,liberal,no,m,1,0.983551548648,1,106
2019_Nov_06,32,001,0,recog,70,EVENING,HF,target,right,aqua,pleasantness,conservative,no,z,1,1.01690524076,1,107
2019_Nov_06,32,001,0,recog,71,SLACKEN,LF,target,right,aqua,pleasantness,liberal,no,z,1,3.41675068024,3,110
2019_Nov_06,32,001,0,recog,72,BEGAN,HF,target,left,yellow,imageability,conservative,no,z,1,3.76674668424,1,111
2019_Nov_06,32,001,0,recog,73,PNEUMATIC,LF,target,left,yellow,imageability,liberal,no,z,1,1.23353303511,3,114
2019_Nov_06,32,001,0,recog,74,OPTIC,LF,target,right,aqua,pleasantness,liberal,no,z,1,0.716882951197,3,117
2019_Nov_06,32,001,0,recog,75,HOWEVER,HF,lure,-,-,-,conservative,no,z,0,4.08349751112,-3,114
2019_Nov_06,32,001,0,recog,76,INSIDE,HF,target,right,aqua,pleasantness,conservative,no,z,1,2.18349479825,1,115
2019_Nov_06,32,001,0,recog,77,EXCEPT,HF,target,right,aqua,pleasantness,liberal,no,z,1,2.80013117115,3,118
2019_Nov_06,32,001,0,recog,78,UPHEAVALS,LF,target,right,aqua,pleasantness,conservative,no,z,1,1.90018674841,1,119
2019_Nov_06,32,001,0,recog,79,WHOLE,HF,target,left,yellow,imageability,liberal,no,z,1,0.85024932783,3,122
2019_Nov_06,32,001,0,recog,80,QUALITY,HF,target,left,yellow,imageability,liberal,no,z,1,1.21684812375,3,125
2019_Nov_06,32,001,0,recog,81,CASES,HF,lure,-,-,-,conservative,no,m,1,0.716906780501,3,128
2019_Nov_06,32,001,0,recog,82,ALLOWED,HF,target,right,aqua,pleasantness,liberal,no,z,1,1.1835853496,3,131
2019_Nov_06,32,001,0,recog,83,RANGE,HF,target,left,yellow,imageability,conservative,no,z,1,1.16691180298,1,132
2019_Nov_06,32,001,0,recog,84,SUCCESS,HF,lure,-,-,-,liberal,no,m,1,4.15005275441,1,133
2019_Nov_06,32,001,0,recog,85,RENAMED,LF,target,left,yellow,imageability,liberal,no,z,1,1.51670324159,3,136
2019_Nov_06,32,001,0,recog,86,PRIVATE,HF,target,left,yellow,imageability,liberal,no,z,1,2.01683082001,3,139
2019_Nov_06,32,001,0,recog,87,CESSATION,LF,lure,-,-,-,liberal,no,m,1,0.833604009776,1,140
2019_Nov_06,32,001,0,recog,88,MYSELF,HF,lure,-,-,-,liberal,no,m,1,1.73347841102,1,141
2019_Nov_06,32,001,0,recog,89,UNTIL,HF,lure,-,-,-,conservative,no,m,1,1.21688588403,3,144
2019_Nov_06,32,001,0,recog,90,GARDEN,HF,target,left,yellow,imageability,conservative,no,z,1,0.666918768472,1,145
2019_Nov_06,32,001,0,recog,91,DWARFED,LF,target,left,yellow,imageability,liberal,no,z,1,1.36682205816,3,148
2019_Nov_06,32,001,0,recog,92,PICTURE,HF,lure,-,-,-,liberal,no,m,1,3.26656154889,1,149
2019_Nov_06,32,001,0,recog,93,LEECH,LF,target,right,aqua,pleasantness,liberal,no,z,1,0.733588759021,3,152
2019_Nov_06,32,001,0,recog,94,FLECKED,LF,lure,-,-,-,liberal,no,m,1,1.20021417044,1,153
2019_Nov_06,32,001,0,recog,95,LEMURS,LF,target,left,yellow,imageability,conservative,no,z,1,0.716956638734,1,154
2019_Nov_06,32,001,1,source,0,RESEARCH,HF,target,right,aqua,pleasantness,liberal,no,9,1,4.88332073435,-,-
2019_Nov_06,32,001,1,source,1,AROUND,HF,target,left,yellow,imageability,conservative,no,1,1,1.75001961335,-,-
2019_Nov_06,32,001,1,source,2,CELLO,LF,target,left,yellow,imageability,liberal,no,1,1,0.76690285783,-,-
2019_Nov_06,32,001,1,source,3,GIPSY,LF,target,left,yellow,imageability,liberal,no,1,1,0.650277116463,-,-
2019_Nov_06,32,001,1,source,4,HIGHER,HF,target,left,yellow,imageability,conservative,no,1,1,1.36683452272,-,-
2019_Nov_06,32,001,1,source,5,BLEACH,LF,target,left,yellow,imageability,liberal,no,1,1,0.750036477164,-,-
2019_Nov_06,32,001,1,source,6,WETTER,LF,target,right,aqua,pleasantness,liberal,no,9,1,1.68348526653,-,-
2019_Nov_06,32,001,1,source,7,ADDED,HF,target,left,yellow,imageability,liberal,no,1,1,2.250165522,-,-
2019_Nov_06,32,001,1,source,8,SPACE,HF,target,right,aqua,pleasantness,liberal,no,9,1,1.83347606475,-,-
2019_Nov_06,32,001,1,source,9,LICENSING,LF,target,left,yellow,imageability,conservative,no,1,1,1.31686850697,-,-
2019_Nov_06,32,001,1,source,10,FEVERS,LF,target,right,aqua,pleasantness,liberal,no,9,1,1.1168955624,-,-
2019_Nov_06,32,001,1,source,11,LOCAL,HF,target,right,aqua,pleasantness,conservative,no,9,1,0.833537654332,-,-
2019_Nov_06,32,001,1,source,12,MOUTH,HF,target,right,aqua,pleasantness,conservative,no,9,1,1.51697416244,-,-
2019_Nov_06,32,001,1,source,13,FICKLE,LF,target,right,aqua,pleasantness,conservative,no,9,1,1.21683162654,-,-
2019_Nov_06,32,001,1,source,14,JOCKEYS,LF,target,left,yellow,imageability,liberal,no,1,1,0.733573361626,-,-
2019_Nov_06,32,001,1,source,15,EVIDENCE,HF,target,right,aqua,pleasantness,conservative,yes,1,0,0.950031051414,-,-
2019_Nov_06,32,001,1,source,16,POOLED,LF,target,right,aqua,pleasantness,conservative,no,9,1,3.20008402579,-,-
2019_Nov_06,32,001,1,source,17,AUBURN,LF,target,right,aqua,pleasantness,conservative,no,9,1,0.716870486639,-,-
2019_Nov_06,32,001,1,source,18,ADHERE,LF,target,right,aqua,pleasantness,conservative,no,9,1,1.8668011617,-,-
2019_Nov_06,32,001,1,source,19,TABLE,HF,target,right,aqua,pleasantness,liberal,no,9,1,2.05027323045,-,-
2019_Nov_06,32,001,1,source,20,ARDENTLY,LF,target,right,aqua,pleasantness,conservative,no,9,1,1.83364177005,-,-
2019_Nov_06,32,001,1,source,21,CUPID,LF,target,left,yellow,imageability,conservative,no,1,1,1.10017399057,-,-
2019_Nov_06,32,001,1,source,22,INITIATES,LF,target,left,yellow,imageability,conservative,no,3,1,6.28326808992,-,-
2019_Nov_06,32,001,1,source,23,BILATERAL,LF,target,left,yellow,imageability,conservative,no,1,1,2.41685332954,-,-
2019_Nov_06,32,001,1,source,24,FURTHER,HF,target,right,aqua,pleasantness,conservative,no,2,0,2.23359242507,-,-
2019_Nov_06,32,001,1,source,25,ALMOST,HF,target,left,yellow,imageability,liberal,no,2,1,3.29996766547,-,-
2019_Nov_06,32,001,1,source,26,OUTSIDE,HF,target,left,yellow,imageability,liberal,no,1,1,4.01652507173,-,-
2019_Nov_06,32,001,1,source,27,BURGH,LF,target,right,aqua,pleasantness,liberal,no,9,1,1.30025581673,-,-
2019_Nov_06,32,001,1,source,28,TILTS,LF,target,right,aqua,pleasantness,liberal,yes,9,1,0.833401277398,-,-
2019_Nov_06,32,001,1,source,29,OBSCURELY,LF,target,left,yellow,imageability,liberal,no,1,1,1.78350564974,-,-
2019_Nov_06,32,001,1,source,30,WEBBED,LF,target,right,aqua,pleasantness,conservative,yes,1,0,1.68348966578,-,-
2019_Nov_06,32,001,1,source,31,BUOYANCY,LF,target,right,aqua,pleasantness,liberal,no,9,1,1.50029768298,-,-
2019_Nov_06,32,001,1,source,32,BIBLES,LF,target,left,yellow,imageability,conservative,no,1,1,0.816913965951,-,-
2019_Nov_06,32,001,1,source,33,CHURCH,HF,target,left,yellow,imageability,conservative,yes,9,0,1.51662038894,-,-
2019_Nov_06,32,001,1,source,34,NECESSARY,HF,target,right,aqua,pleasantness,liberal,no,9,1,3.48322013803,-,-
2019_Nov_06,32,001,1,source,35,NORTH,HF,target,left,yellow,imageability,liberal,no,1,1,1.71685765547,-,-
2019_Nov_06,32,001,1,source,36,LETTER,HF,target,right,aqua,pleasantness,conservative,no,2,0,4.94998229299,-,-
2019_Nov_06,32,001,1,source,37,VARIOUS,HF,target,right,aqua,pleasantness,liberal,no,9,1,6.83320624372,-,-
2019_Nov_06,32,001,1,source,38,TOGETHER,HF,target,left,yellow,imageability,liberal,no,1,1,1.6668736761,-,-
2019_Nov_06,32,001,1,source,39,WELCOMES,LF,target,left,yellow,imageability,conservative,no,1,1,0.666941131357,-,-
2019_Nov_06,32,001,1,source,40,NIGHT,HF,target,right,aqua,pleasantness,liberal,no,8,1,3.46681127999,-,-
2019_Nov_06,32,001,1,source,41,ACROSS,HF,target,left,yellow,imageability,conservative,no,1,1,2.23328740999,-,-
2019_Nov_06,32,001,1,source,42,UDDER,LF,target,right,aqua,pleasantness,liberal,no,9,1,2.05019880971,-,-
2019_Nov_06,32,001,1,source,43,CLOSE,HF,target,left,yellow,imageability,conservative,no,1,1,1.43354044053,-,-
2019_Nov_06,32,001,1,source,44,WARDROBES,LF,target,left,yellow,imageability,liberal,no,1,1,0.733567129347,-,-
2019_Nov_06,32,001,1,source,45,VOICE,HF,target,left,yellow,imageability,liberal,no,1,1,0.916899521728,-,-
2019_Nov_06,32,001,1,source,46,HARDLY,HF,target,left,yellow,imageability,conservative,no,3,1,3.45023671663,-,-
2019_Nov_06,32,001,1,source,47,POUNDS,HF,target,right,aqua,pleasantness,conservative,no,9,1,1.16688394103,-,-
2019_Nov_06,32,001,1,recog,0,HUBBUB,LF,lure,-,-,-,liberal,no,m,1,1.2668379688,1,155
2019_Nov_06,32,001,1,recog,1,NIGHT,HF,target,right,aqua,pleasantness,liberal,no,z,1,1.18351752774,3,158
2019_Nov_06,32,001,1,recog,2,BOUGH,LF,lure,-,-,-,liberal,no,m,1,1.58353233856,1,159
2019_Nov_06,32,001,1,recog,3,EVIDENCE,HF,target,right,aqua,pleasantness,conservative,no,z,1,0.883647012502,1,160
2019_Nov_06,32,001,1,recog,4,WAITING,HF,lure,-,-,-,liberal,no,m,1,2.08350887587,1,161
2019_Nov_06,32,001,1,recog,5,ASPIRED,LF,lure,-,-,-,conservative,no,m,1,0.816814982692,3,164
2019_Nov_06,32,001,1,recog,6,MOUTH,HF,target,right,aqua,pleasantness,conservative,no,z,1,0.950227551513,1,165
2019_Nov_06,32,001,1,recog,7,BUZZARD,LF,lure,-,-,-,liberal,no,m,1,1.26686253132,1,166
2019_Nov_06,32,001,1,recog,8,SECOND,HF,lure,-,-,-,conservative,no,m,1,1.06688482088,3,169
2019_Nov_06,32,001,1,recog,9,HOBBLE,LF,lure,-,-,-,conservative,no,m,1,0.966915762315,3,172
2019_Nov_06,32,001,1,recog,10,GYMKHANA,LF,lure,-,-,-,liberal,no,m,1,1.11692452417,1,173
2019_Nov_06,32,001,1,recog,11,BUOYANCY,LF,target,right,aqua,pleasantness,liberal,no,z,1,0.800032921099,3,176
2019_Nov_06,32,001,1,recog,12,NECESSARY,HF,target,right,aqua,pleasantness,liberal,no,z,1,0.983519287438,3,179
2019_Nov_06,32,001,1,recog,13,ADHERE,LF,target,right,aqua,pleasantness,conservative,no,z,1,0.966851239894,1,180
2019_Nov_06,32,001,1,recog,14,BOASTS,LF,lure,-,-,-,liberal,no,m,1,1.58359099531,1,181
2019_Nov_06,32,001,1,recog,15,TALKING,HF,lure,-,-,-,conservative,no,m,1,0.766748150663,3,184
2019_Nov_06,32,001,1,recog,16,TOGETHER,HF,target,left,yellow,imageability,liberal,no,z,1,0.617025707053,3,187
2019_Nov_06,32,001,1,recog,17,EIDERDOWN,LF,lure,-,-,-,conservative,no,m,1,0.866855419186,3,190
2019_Nov_06,32,001,1,recog,18,ARRIVED,HF,lure,-,-,-,conservative,no,z,0,1.00025039098,-3,187
2019_Nov_06,32,001,1,recog,19,OSTRACISM,LF,lure,-,-,-,liberal,yes,z,0,1.00018733498,-1,186
2019_Nov_06,32,001,1,recog,20,CICADAS,LF,lure,-,-,-,conservative,no,m,1,1.43338719978,3,189
2019_Nov_06,32,001,1,recog,21,WARDROBES,LF,target,left,yellow,imageability,liberal,no,z,1,1.0666897872,3,192
2019_Nov_06,32,001,1,recog,22,WEBBED,LF,target,right,aqua,pleasantness,conservative,no,z,1,1.23349857427,1,193
2019_Nov_06,32,001,1,recog,23,BLEACH,LF,target,left,yellow,imageability,liberal,no,z,1,2.66680732066,3,196
2019_Nov_06,32,001,1,recog,24,CHURCH,HF,target,left,yellow,imageability,conservative,no,z,1,0.700242032397,1,197
2019_Nov_06,32,001,1,recog,25,BLOOD,HF,lure,-,-,-,conservative,no,m,1,1.46687030334,3,200
2019_Nov_06,32,001,1,recog,26,POOLED,LF,target,right,aqua,pleasantness,conservative,no,z,1,1.18355675443,1,201
2019_Nov_06,32,001,1,recog,27,ODDER,LF,lure,-,-,-,conservative,no,m,1,1.80018872808,3,204
2019_Nov_06,32,001,1,recog,28,FURTHER,HF,target,right,aqua,pleasantness,conservative,no,z,1,1.10023448034,1,205
2019_Nov_06,32,001,1,recog,29,SUING,LF,lure,-,-,-,liberal,no,m,1,1.18351642792,1,206
2019_Nov_06,32,001,1,recog,30,AROUND,HF,target,left,yellow,imageability,conservative,yes,m,0,1.76685006676,-1,205
2019_Nov_06,32,001,1,recog,31,UNPACK,LF,lure,-,-,-,liberal,no,m,1,2.86679932867,1,206
2019_Nov_06,32,001,1,recog,32,NORTH,HF,target,left,yellow,imageability,liberal,no,z,1,0.766912022947,3,209
2019_Nov_06,32,001,1,recog,33,SOMEONE,HF,lure,-,-,-,liberal,no,m,1,1.73352570302,1,210
2019_Nov_06,32,001,1,recog,34,ESPECIAL,LF,lure,-,-,-,conservative,no,m,1,1.81694879339,3,213
2019_Nov_06,32,001,1,recog,35,FRONT,HF,lure,-,-,-,conservative,no,m,1,1.53348786942,3,216
2019_Nov_06,32,001,1,recog,36,NEARLY,HF,lure,-,-,-,liberal,no,m,1,1.76684713392,1,217
2019_Nov_06,32,001,1,recog,37,SYMBOLIZE,LF,lure,-,-,-,liberal,yes,m,1,1.25022491196,1,218
2019_Nov_06,32,001,1,recog,38,CUPID,LF,target,left,yellow,imageability,conservative,no,z,1,1.25020731494,1,219
2019_Nov_06,32,001,1,recog,39,LETTER,HF,target,right,aqua,pleasantness,conservative,no,z,1,1.28350528314,1,220
2019_Nov_06,32,001,1,recog,40,INITIATES,LF,target,left,yellow,imageability,conservative,no,z,1,3.66680035517,1,221
2019_Nov_06,32,001,1,recog,41,THUDDING,LF,lure,-,-,-,conservative,no,m,1,1.26685006676,3,224
2019_Nov_06,32,001,1,recog,42,CELLO,LF,target,left,yellow,imageability,liberal,no,z,1,0.816926797114,3,227
2019_Nov_06,32,001,1,recog,43,POUNDS,HF,target,right,aqua,pleasantness,conservative,no,z,1,0.966847573847,1,228
2019_Nov_06,32,001,1,recog,44,JUDICIOUS,LF,lure,-,-,-,conservative,no,m,1,1.61683433942,3,231
2019_Nov_06,32,001,1,recog,45,BILATERAL,LF,target,left,yellow,imageability,conservative,no,z,1,1.23355026553,1,232
2019_Nov_06,32,001,1,recog,46,SPACE,HF,target,right,aqua,pleasantness,liberal,no,z,1,0.883535564684,3,235
2019_Nov_06,32,001,1,recog,47,ACROSS,HF,target,left,yellow,imageability,conservative,no,z,1,0.766862531317,1,236
2019_Nov_06,32,001,1,recog,48,FICKLE,LF,target,right,aqua,pleasantness,conservative,no,z,1,0.933562803411,1,237
2019_Nov_06,32,001,1,recog,49,BUILDING,HF,lure,-,-,-,conservative,no,m,1,0.833401277398,3,240
2019_Nov_06,32,001,1,recog,50,BETTER,HF,lure,-,-,-,conservative,no,m,1,0.900227074928,3,243
2019_Nov_06,32,001,1,recog,51,CALLED,HF,lure,-,-,-,liberal,no,m,1,1.06683826209,1,244
2019_Nov_06,32,001,1,recog,52,GANGWAY,LF,lure,-,-,-,conservative,no,m,1,0.916927017077,3,247
2019_Nov_06,32,001,1,recog,53,JOCKEYS,LF,target,left,yellow,imageability,liberal,no,z,1,0.883604852966,3,250
2019_Nov_06,32,001,1,recog,54,RASCAL,LF,lure,-,-,-,conservative,no,m,1,2.13357020883,3,253
2019_Nov_06,32,001,1,recog,55,IRATE,LF,lure,-,-,-,conservative,no,m,1,1.16684801377,3,256
2019_Nov_06,32,001,1,recog,56,IMPORTANT,HF,lure,-,-,-,conservative,no,m,1,3.08339156237,3,259
2019_Nov_06,32,001,1,recog,57,VOICE,HF,target,left,yellow,imageability,liberal,no,z,1,0.983524053298,3,262
2019_Nov_06,32,001,1,recog,58,DIFFERENT,HF,lure,-,-,-,conservative,no,m,1,2.883261711,3,265
2019_Nov_06,32,001,1,recog,59,UDDER,LF,target,right,aqua,pleasantness,liberal,no,z,1,1.3335270228,3,268
2019_Nov_06,32,001,1,recog,60,SOUND,HF,lure,-,-,-,liberal,no,m,1,2.01690377434,1,269
2019_Nov_06,32,001,1,recog,61,FAKING,LF,lure,-,-,-,liberal,no,m,1,0.750280269263,1,270
2019_Nov_06,32,001,1,recog,62,ARDENTLY,LF,target,right,aqua,pleasantness,conservative,no,z,1,0.850289287739,1,271
2019_Nov_06,32,001,1,recog,63,MEMBERS,HF,lure,-,-,-,liberal,no,m,1,1.53355569128,1,272
2019_Nov_06,32,001,1,recog,64,FABLE,LF,lure,-,-,-,liberal,no,m,1,0.850236863272,1,273
2019_Nov_06,32,001,1,recog,65,CARRIED,HF,lure,-,-,-,conservative,no,m,1,1.95028327542,3,276
2019_Nov_06,32,001,1,recog,66,TAKEN,HF,lure,-,-,-,liberal,no,m,1,1.10026564174,1,277
2019_Nov_06,32,001,1,recog,67,BURGH,LF,target,right,aqua,pleasantness,liberal,no,z,1,0.916821434935,3,280
2019_Nov_06,32,001,1,recog,68,FEVERS,LF,target,right,aqua,pleasantness,liberal,no,z,1,0.73366098014,3,283
2019_Nov_06,32,001,1,recog,69,TILTS,LF,target,right,aqua,pleasantness,liberal,no,z,1,0.850225131923,3,286
2019_Nov_06,32,001,1,recog,70,LICENSING,LF,target,left,yellow,imageability,conservative,no,z,1,0.933604229738,1,287
2019_Nov_06,32,001,1,recog,71,KENNEL,LF,lure,-,-,-,conservative,yes,z,0,0.7002500977,-3,284
2019_Nov_06,32,001,1,recog,72,AUBURN,LF,target,right,aqua,pleasantness,conservative,no,z,1,0.733528269252,1,285
2019_Nov_06,32,001,1,recog,73,FLOOR,HF,lure,-,-,-,liberal,no,m,1,0.933570868714,1,286
2019_Nov_06,32,001,1,recog,74,OUTSIDE,HF,target,left,yellow,imageability,liberal,no,z,1,0.633535014777,3,289
2019_Nov_06,32,001,1,recog,75,GIPSY,LF,target,left,yellow,imageability,liberal,no,z,1,0.716909713336,3,292
2019_Nov_06,32,001,1,recog,76,VARIOUS,HF,target,right,aqua,pleasantness,liberal,no,z,1,1.56686172479,3,295
2019_Nov_06,32,001,1,recog,77,WELCOMES,LF,target,left,yellow,imageability,conservative,no,z,1,1.50020713163,1,296
2019_Nov_06,32,001,1,recog,78,YOUNG,HF,lure,-,-,-,liberal,no,m,1,3.43342312703,1,297
2019_Nov_06,32,001,1,recog,79,HIGHER,HF,target,left,yellow,imageability,conservative,no,z,1,0.716970203107,1,298
2019_Nov_06,32,001,1,recog,80,CLOSE,HF,target,left,yellow,imageability,conservative,no,z,1,0.900192980695,1,299
2019_Nov_06,32,001,1,recog,81,ALMOST,HF,target,left,yellow,imageability,liberal,no,z,1,1.69999347444,3,302
2019_Nov_06,32,001,1,recog,82,ADDED,HF,target,left,yellow,imageability,liberal,no,z,1,0.933652254948,3,305
2019_Nov_06,32,001,1,recog,83,RESEARCH,HF,target,right,aqua,pleasantness,liberal,no,z,1,0.750389517453,3,308
2019_Nov_06,32,001,1,recog,84,LOCAL,HF,target,right,aqua,pleasantness,conservative,no,z,1,0.950190157838,1,309
2019_Nov_06,32,001,1,recog,85,OBSCURELY,LF,target,left,yellow,imageability,liberal,no,z,1,0.766914222574,3,312
2019_Nov_06,32,001,1,recog,86,ENTIRELY,HF,lure,-,-,-,liberal,no,m,1,1.0668393619,1,313
2019_Nov_06,32,001,1,recog,87,FATHER,HF,lure,-,-,-,liberal,no,m,1,0.783570172165,1,314
2019_Nov_06,32,001,1,recog,88,NEPHEWS,LF,lure,-,-,-,liberal,no,m,1,0.783621863422,1,315
2019_Nov_06,32,001,1,recog,89,BIBLES,LF,target,left,yellow,imageability,conservative,no,z,1,1.40021057772,1,316
2019_Nov_06,32,001,1,recog,90,TABLE,HF,target,right,aqua,pleasantness,liberal,no,z,1,1.7169067805,3,319
2019_Nov_06,32,001,1,recog,91,THANK,HF,lure,-,-,-,conservative,no,m,1,0.850186271829,3,322
2019_Nov_06,32,001,1,recog,92,TREES,HF,lure,-,-,-,liberal,no,m,1,0.983550448834,1,323
2019_Nov_06,32,001,1,recog,93,WETTER,LF,target,right,aqua,pleasantness,liberal,no,z,1,0.933530542201,3,326
2019_Nov_06,32,001,1,recog,94,CLEAR,HF,lure,-,-,-,conservative,no,m,1,1.18333899127,3,329
2019_Nov_06,32,001,1,recog,95,HARDLY,HF,target,left,yellow,imageability,conservative,no,z,1,1.25021757987,1,330
2019_Nov_06,32,001,2,source,0,CLICKS,LF,target,left,yellow,imageability,liberal,no,2,1,4.86669411314,-,-
2019_Nov_06,32,001,2,source,1,ACCORDING,HF,target,left,yellow,imageability,conservative,no,1,1,2.65013744009,-,-
2019_Nov_06,32,001,2,source,2,SNIGGERED,LF,target,right,aqua,pleasantness,conservative,no,9,1,1.30027891283,-,-
2019_Nov_06,32,001,2,source,3,INNATELY,LF,target,left,yellow,imageability,conservative,no,1,1,2.566846694,-,-
2019_Nov_06,32,001,2,source,4,CHOICE,HF,target,left,yellow,imageability,liberal,yes,1,1,0.866898311931,-,-
2019_Nov_06,32,001,2,source,5,METABOLIC,LF,target,left,yellow,imageability,liberal,no,1,1,0.850237596482,-,-
2019_Nov_06,32,001,2,source,6,BAFFLING,LF,target,left,yellow,imageability,liberal,no,8,0,3.9332867501,-,-
2019_Nov_06,32,001,2,source,7,SCHOOL,HF,target,right,aqua,pleasantness,liberal,no,1,0,1.73352753604,-,-
2019_Nov_06,32,001,2,source,8,USUAL,HF,target,right,aqua,pleasantness,liberal,no,9,1,4.31672846399,-,-
2019_Nov_06,32,001,2,source,9,RUPTURE,LF,target,left,yellow,imageability,conservative,no,1,1,1.26685923188,-,-
2019_Nov_06,32,001,2,source,10,POETICAL,LF,target,right,aqua,pleasantness,liberal,no,9,1,0.883568559105,-,-
2019_Nov_06,32,001,2,source,11,JOLLITY,LF,target,left,yellow,imageability,conservative,no,9,0,1.45019968956,-,-
2019_Nov_06,32,001,2,source,12,SPOKE,HF,target,left,yellow,imageability,conservative,no,1,1,2.66683921526,-,-
2019_Nov_06,32,001,2,source,13,MUSIC,HF,target,right,aqua,pleasantness,liberal,no,9,1,1.23329877473,-,-
2019_Nov_06,32,001,2,source,14,GENERAL,HF,target,right,aqua,pleasantness,conservative,no,9,1,2.5668312966,-,-
2019_Nov_06,32,001,2,source,15,MARKET,HF,target,left,yellow,imageability,conservative,no,1,1,1.75016112275,-,-
2019_Nov_06,32,001,2,source,16,OTHERS,HF,target,right,aqua,pleasantness,liberal,no,9,1,1.13353611459,-,-
2019_Nov_06,32,001,2,source,17,SUPPORT,HF,target,left,yellow,imageability,liberal,no,1,1,0.850228797969,-,-
2019_Nov_06,32,001,2,source,18,ITSELF,HF,target,left,yellow,imageability,conservative,no,1,1,1.31693156297,-,-
2019_Nov_06,32,001,2,source,19,OBTAINS,LF,target,left,yellow,imageability,liberal,no,1,1,1.36691994161,-,-
2019_Nov_06,32,001,2,source,20,EXECUTING,LF,target,right,aqua,pleasantness,liberal,no,9,1,0.900188581439,-,-
2019_Nov_06,32,001,2,source,21,SIBLINGS,LF,target,right,aqua,pleasantness,conservative,no,9,1,1.15019792986,-,-
2019_Nov_06,32,001,2,source,22,WHATEVER,HF,target,left,yellow,imageability,liberal,no,1,1,1.50018623517,-,-
2019_Nov_06,32,001,2,source,23,FUDGE,LF,target,right,aqua,pleasantness,conservative,no,9,1,0.916676259489,-,-
2019_Nov_06,32,001,2,source,24,THING,HF,target,right,aqua,pleasantness,conservative,yes,9,1,1.0002199628,-,-
2019_Nov_06,32,001,2,source,25,SITTING,HF,target,left,yellow,imageability,liberal,no,1,1,4.86665891909,-,-
2019_Nov_06,32,001,2,source,26,MERELY,HF,target,right,aqua,pleasantness,conservative,no,9,1,3.20012471891,-,-
2019_Nov_06,32,001,2,source,27,FORCE,HF,target,left,yellow,imageability,liberal,yes,9,0,0.566914882464,-,-
2019_Nov_06,32,001,2,source,28,TOLERABLY,LF,target,right,aqua,pleasantness,liberal,no,9,1,4.56673377976,-,-
2019_Nov_06,32,001,2,source,29,REJOICED,LF,target,right,aqua,pleasantness,conservative,no,9,1,1.28350308351,-,-
2019_Nov_06,32,001,2,source,30,EARLIER,HF,target,right,aqua,pleasantness,conservative,no,2,0,2.01662735443,-,-
2019_Nov_06,32,001,2,source,31,ABOVE,HF,target,left,yellow,imageability,conservative,no,1,1,1.60017655681,-,-
2019_Nov_06,32,001,2,source,32,PUTTS,LF,target,right,aqua,pleasantness,liberal,no,9,1,1.56686539083,-,-
2019_Nov_06,32,001,2,source,33,ANNALS,LF,target,right,aqua,pleasantness,liberal,no,9,1,1.16697925824,-,-
2019_Nov_06,32,001,2,source,34,HACKNEY,LF,target,left,yellow,imageability,conservative,no,1,1,1.85028378867,-,-
2019_Nov_06,32,001,2,source,35,CHROMIUM,LF,target,right,aqua,pleasantness,conservative,no,9,1,2.21680633082,-,-
2019_Nov_06,32,001,2,source,36,CAGED,LF,target,left,yellow,imageability,liberal,no,1,1,1.05023143752,-,-
2019_Nov_06,32,001,2,source,37,BUNGALOWS,LF,target,left,yellow,imageability,liberal,no,1,1,0.833370116001,-,-
2019_Nov_06,32,001,2,source,38,UNDER,HF,target,right,aqua,pleasantness,conservative,no,9,1,3.53344570988,-,-
2019_Nov_06,32,001,2,source,39,FOUND,HF,target,right,aqua,pleasantness,liberal,no,9,1,2.36682205816,-,-
2019_Nov_06,32,001,2,source,40,CAPITAL,HF,target,right,aqua,pleasantness,liberal,no,9,1,0.833535821308,-,-
2019_Nov_06,32,001,2,source,41,GATEHOUSE,LF,target,left,yellow,imageability,conservative,no,1,1,1.60020551857,-,-
2019_Nov_06,32,001,2,source,42,FECKLESS,LF,target,right,aqua,pleasantness,conservative,no,9,1,0.950273377096,-,-
2019_Nov_06,32,001,2,source,43,SUAVE,LF,target,left,yellow,imageability,conservative,no,1,1,1.95013846658,-,-
2019_Nov_06,32,001,2,source,44,DOUBT,HF,target,left,yellow,imageability,conservative,no,1,1,1.8333620507,-,-
2019_Nov_06,32,001,2,source,45,FONDLE,LF,target,right,aqua,pleasantness,liberal,no,9,1,2.81684981014,-,-
2019_Nov_06,32,001,2,source,46,GIVEN,HF,target,left,yellow,imageability,liberal,yes,1,1,1.46691869515,-,-
2019_Nov_06,32,001,2,source,47,BELIEVE,HF,target,right,aqua,pleasantness,conservative,no,9,1,2.63347819106,-,-
2019_Nov_06,32,001,2,recog,0,YEOMAN,LF,lure,-,-,-,liberal,no,m,1,1.533486403,1,331
2019_Nov_06,32,001,2,recog,1,HUNDRED,HF,lure,-,-,-,conservative,no,m,1,1.26687572908,3,334
2019_Nov_06,32,001,2,recog,2,DIABETIC,LF,lure,-,-,-,conservative,no,m,1,0.983529552368,3,337
2019_Nov_06,32,001,2,recog,3,FECKLESS,LF,target,right,aqua,pleasantness,conservative,no,z,1,1.38361328487,1,338
2019_Nov_06,32,001,2,recog,4,MAJOR,HF,lure,-,-,-,liberal,no,m,1,0.866908210258,1,339
2019_Nov_06,32,001,2,recog,5,BIRCHES,LF,lure,-,-,-,liberal,no,m,1,1.06691194963,1,340
2019_Nov_06,32,001,2,recog,6,SKIDDED,LF,lure,-,-,-,liberal,no,m,1,0.950024085926,1,341
2019_Nov_06,32,001,2,recog,7,VILLAGE,HF,lure,-,-,-,liberal,no,m,1,1.0835748647,1,342
2019_Nov_06,32,001,2,recog,8,MOVED,HF,lure,-,-,-,conservative,no,m,1,0.983558147532,3,345
2019_Nov_06,32,001,2,recog,9,PUPPETS,LF,lure,-,-,-,conservative,no,m,1,1.00023682661,3,348
2019_Nov_06,32,001,2,recog,10,NOMAD,LF,lure,-,-,-,conservative,no,m,1,1.05022630506,3,351
2019_Nov_06,32,001,2,recog,11,EXECUTING,LF,target,right,aqua,pleasantness,liberal,no,z,1,0.900355753163,3,354
2019_Nov_06,32,001,2,recog,12,MUSIC,HF,target,right,aqua,pleasantness,liberal,no,z,1,0.60025794304,3,357
2019_Nov_06,32,001,2,recog,13,EXPECT,HF,lure,-,-,-,liberal,no,m,1,1.40024540516,1,358
2019_Nov_06,32,001,2,recog,14,BEECHES,LF,lure,-,-,-,conservative,no,m,1,1.00020896466,3,361
2019_Nov_06,32,001,2,recog,15,OTHERS,HF,target,right,aqua,pleasantness,liberal,no,z,1,0.883561960221,3,364
2019_Nov_06,32,001,2,recog,16,FORCE,HF,target,left,yellow,imageability,liberal,no,z,1,1.31696675702,3,367
2019_Nov_06,32,001,2,recog,17,ABOVE,HF,target,left,yellow,imageability,conservative,no,z,1,0.667013352475,1,368
2019_Nov_06,32,001,2,recog,18,BLACK,HF,lure,-,-,-,liberal,yes,z,0,0.833468732655,-1,367
2019_Nov_06,32,001,2,recog,19,FUDGE,LF,target,right,aqua,pleasantness,conservative,no,z,1,1.15014990465,1,368
2019_Nov_06,32,001,2,recog,20,CAGED,LF,target,left,yellow,imageability,liberal,no,z,1,0.583582196798,3,371
2019_Nov_06,32,001,2,recog,21,OBTAINS,LF,target,left,yellow,imageability,liberal,no,z,1,0.983307023339,3,374
2019_Nov_06,32,001,2,recog,22,GAPED,LF,lure,-,-,-,liberal,no,m,1,0.933558404155,1,375
2019_Nov_06,32,001,2,recog,23,FONDLE,LF,target,right,aqua,pleasantness,liberal,no,z,1,1.23356822916,3,378
2019_Nov_06,32,001,2,recog,24,ACCORDING,HF,target,left,yellow,imageability,conservative,no,z,1,1.01668674438,1,379
2019_Nov_06,32,001,2,recog,25,LATER,HF,lure,-,-,-,conservative,no,z,0,1.38354253017,-3,376
2019_Nov_06,32,001,2,recog,26,RUMBLED,LF,lure,-,-,-,conservative,no,m,1,1.33364726913,3,379
2019_Nov_06,32,001,2,recog,27,REJOICED,LF,target,right,aqua,pleasantness,conservative,no,z,1,0.90016915139,1,380
2019_Nov_06,32,001,2,recog,28,IRISES,LF,lure,-,-,-,conservative,no,m,1,0.866877415467,3,383
2019_Nov_06,32,001,2,recog,29,HEALTH,HF,lure,-,-,-,conservative,no,m,1,1.06692734702,3,386
2019_Nov_06,32,001,2,recog,30,INDEED,HF,lure,-,-,-,liberal,no,m,1,1.33355525135,1,387
2019_Nov_06,32,001,2,recog,31,RUPTURE,LF,target,left,yellow,imageability,conservative,no,z,1,0.63357057543,1,388
2019_Nov_06,32,001,2,recog,32,SCHOOL,HF,target,right,aqua,pleasantness,liberal,no,z,1,0.816864474322,3,391
2019_Nov_06,32,001,2,recog,33,PULSAR,LF,lure,-,-,-,conservative,no,m,1,0.900175750275,3,394
2019_Nov_06,32,001,2,recog,34,HIPPY,LF,lure,-,-,-,liberal,no,m,1,1.65023532353,1,395
2019_Nov_06,32,001,2,recog,35,HAVING,HF,lure,-,-,-,liberal,no,m,1,0.90023514023,1,396
2019_Nov_06,32,001,2,recog,36,MILES,HF,lure,-,-,-,conservative,no,m,1,1.81659392008,3,399
2019_Nov_06,32,001,2,recog,37,BOOKS,HF,lure,-,-,-,conservative,no,m,1,1.05029486013,3,402
2019_Nov_06,32,001,2,recog,38,SNIGGERED,LF,target,right,aqua,pleasantness,conservative,no,z,1,1.01688654392,1,403
2019_Nov_06,32,001,2,recog,39,CENTRAL,HF,lure,-,-,-,liberal,yes,z,0,0.93354154034,-1,402
2019_Nov_06,32,001,2,recog,40,METABOLIC,LF,target,left,yellow,imageability,liberal,no,z,1,0.700221869141,3,405
2019_Nov_06,32,001,2,recog,41,POETICAL,LF,target,right,aqua,pleasantness,liberal,yes,z,1,0.966837675521,3,408
2019_Nov_06,32,001,2,recog,42,ZIPPED,LF,lure,-,-,-,conservative,no,z,0,1.63350018733,-3,405
2019_Nov_06,32,001,2,recog,43,TOLERABLY,LF,target,right,aqua,pleasantness,liberal,no,z,1,1.70022920123,3,408
2019_Nov_06,32,001,2,recog,44,AMONG,HF,lure,-,-,-,liberal,no,z,0,1.46689009999,-1,407
2019_Nov_06,32,001,2,recog,45,RALLIED,LF,lure,-,-,-,liberal,no,m,1,1.08358806247,1,408
2019_Nov_06,32,001,2,recog,46,PAINTWORK,LF,lure,-,-,-,conservative,no,m,1,0.783574938026,3,411
2019_Nov_06,32,001,2,recog,47,INROADS,LF,lure,-,-,-,conservative,no,m,1,1.00015507377,3,414
2019_Nov_06,32,001,2,recog,48,SAINTLY,LF,lure,-,-,-,liberal,no,m,1,1.29996473263,1,415
2019_Nov_06,32,001,2,recog,49,AGGRAVATE,LF,lure,-,-,-,liberal,no,m,1,1.5002518574,1,416
2019_Nov_06,32,001,2,recog,50,BELIEVE,HF,target,right,aqua,pleasantness,conservative,no,z,1,1.68351019564,1,417
2019_Nov_06,32,001,2,recog,51,MARKET,HF,target,left,yellow,imageability,conservative,no,z,1,0.650192430787,1,418
2019_Nov_06,32,001,2,recog,52,USUAL,HF,target,right,aqua,pleasantness,liberal,no,z,1,2.78351921412,3,421
2019_Nov_06,32,001,2,recog,53,WESTERN,HF,lure,-,-,-,conservative,no,m,1,2.56679610255,3,424
2019_Nov_06,32,001,2,recog,54,ANYONE,HF,lure,-,-,-,conservative,no,m,1,1.46681824547,3,427
2019_Nov_06,32,001,2,recog,55,SITTING,HF,target,left,yellow,imageability,liberal,no,z,1,0.983514154973,3,430
2019_Nov_06,32,001,2,recog,56,CYANIDE,LF,lure,-,-,-,liberal,no,m,1,0.866861651466,1,431
2019_Nov_06,32,001,2,recog,57,NUCLEAR,HF,lure,-,-,-,liberal,no,m,1,1.85023356383,1,432
2019_Nov_06,32,001,2,recog,58,FOUND,HF,target,right,aqua,pleasantness,liberal,no,z,1,0.700277226445,3,435
2019_Nov_06,32,001,2,recog,59,MAGGOT,LF,lure,-,-,-,liberal,yes,m,1,0.717072119202,1,436
2019_Nov_06,32,001,2,recog,60,ITSELF,HF,target,left,yellow,imageability,conservative,no,z,1,1.00029951601,1,437
2019_Nov_06,32,001,2,recog,61,CHOICE,HF,target,left,yellow,imageability,liberal,no,m,0,1.00027825294,-3,434
2019_Nov_06,32,001,2,recog,62,GATEHOUSE,LF,target,left,yellow,imageability,conservative,no,z,1,0.750218313075,1,435
2019_Nov_06,32,001,2,recog,63,WHATEVER,HF,target,left,yellow,imageability,liberal,no,z,1,1.13352658287,3,438
2019_Nov_06,32,001,2,recog,64,BUNGALOWS,LF,target,left,yellow,imageability,liberal,no,z,1,0.75024617503,3,441
2019_Nov_06,32,001,2,recog,65,SPOKE,HF,target,left,yellow,imageability,conservative,no,z,1,1.95007944323,1,442
2019_Nov_06,32,001,2,recog,66,GENERAL,HF,target,right,aqua,pleasantness,conservative,no,z,1,0.616956785376,1,443
2019_Nov_06,32,001,2,recog,67,ANNALS,LF,target,right,aqua,pleasantness,liberal,no,z,1,0.950018220252,3,446
2019_Nov_06,32,001,2,recog,68,EARLIER,HF,target,right,aqua,pleasantness,conservative,no,z,1,3.53349666793,1,447
2019_Nov_06,32,001,2,recog,69,GIVEN,HF,target,left,yellow,imageability,liberal,no,z,1,1.78326185764,3,450
2019_Nov_06,32,001,2,recog,70,UNDER,HF,target,right,aqua,pleasantness,conservative,no,z,1,0.983569878881,1,451
2019_Nov_06,32,001,2,recog,71,THING,HF,target,right,aqua,pleasantness,conservative,no,z,1,0.883663876317,1,452
2019_Nov_06,32,001,2,recog,72,SUPPORT,HF,target,left,yellow,imageability,liberal,no,z,1,0.916936548798,3,455
2019_Nov_06,32,001,2,recog,73,CHROMIUM,LF,target,right,aqua,pleasantness,conservative,no,z,1,0.900239172881,1,456
2019_Nov_06,32,001,2,recog,74,WISPY,LF,lure,-,-,-,conservative,no,m,1,0.83355561796,3,459
2019_Nov_06,32,001,2,recog,75,TONAL,LF,lure,-,-,-,liberal,no,m,1,0.716752073333,1,460
2019_Nov_06,32,001,2,recog,76,PAPER,HF,lure,-,-,-,conservative,no,m,1,1.11684167151,3,463
2019_Nov_06,32,001,2,recog,77,INVOLVED,HF,lure,-,-,-,conservative,no,m,1,1.41666672777,3,466
2019_Nov_06,32,001,2,recog,78,DOUBT,HF,target,left,yellow,imageability,conservative,no,z,1,0.667001621126,1,467
2019_Nov_06,32,001,2,recog,79,LEDGES,LF,lure,-,-,-,liberal,no,m,1,0.883575157988,1,468
2019_Nov_06,32,001,2,recog,80,CLICKS,LF,target,left,yellow,imageability,liberal,no,z,1,0.650368401024,3,471
2019_Nov_06,32,001,2,recog,81,TODAY,HF,lure,-,-,-,conservative,no,m,1,1.13355664445,3,474
2019_Nov_06,32,001,2,recog,82,SUAVE,LF,target,left,yellow,imageability,conservative,no,z,1,0.633561043709,1,475
2019_Nov_06,32,001,2,recog,83,BAFFLING,LF,target,left,yellow,imageability,liberal,no,z,1,1.13355334501,3,478
2019_Nov_06,32,001,2,recog,84,CRUCIALLY,LF,lure,-,-,-,conservative,no,m,1,0.73361148851,3,481
2019_Nov_06,32,001,2,recog,85,HACKNEY,LF,target,left,yellow,imageability,conservative,no,z,1,0.716868653615,1,482
2019_Nov_06,32,001,2,recog,86,HOTEL,HF,lure,-,-,-,liberal,no,m,1,1.13347232538,1,483
2019_Nov_06,32,001,2,recog,87,MERELY,HF,target,right,aqua,pleasantness,conservative,no,z,1,0.700242765607,1,484
2019_Nov_06,32,001,2,recog,88,SIBLINGS,LF,target,right,aqua,pleasantness,conservative,no,z,1,1.03355935733,1,485
2019_Nov_06,32,001,2,recog,89,WATCH,HF,lure,-,-,-,liberal,no,m,1,1.88350660292,1,486
2019_Nov_06,32,001,2,recog,90,CAPITAL,HF,target,right,aqua,pleasantness,liberal,no,z,1,1.63357167524,3,489
2019_Nov_06,32,001,2,recog,91,SHALL,HF,lure,-,-,-,liberal,no,m,1,0.833358751256,1,490
2019_Nov_06,32,001,2,recog,92,INNATELY,LF,target,left,yellow,imageability,conservative,no,z,1,0.900239172881,1,491
2019_Nov_06,32,001,2,recog,93,JOLLITY,LF,target,left,yellow,imageability,conservative,no,z,1,0.833566249495,1,492
2019_Nov_06,32,001,2,recog,94,LOOKED,HF,lure,-,-,-,conservative,no,m,1,1.53353956068,3,495
2019_Nov_06,32,001,2,recog,95,PUTTS,LF,target,right,aqua,pleasantness,liberal,no,z,1,1.16689457257,3,498
2019_Nov_06,32,001,3,source,0,SEVEN,HF,target,right,aqua,pleasantness,conservative,no,9,1,3.98319630873,-,-
2019_Nov_06,32,001,3,source,1,OXIDE,LF,target,right,aqua,pleasantness,liberal,no,9,1,1.16690373768,-,-
2019_Nov_06,32,001,3,source,2,GREATER,HF,target,right,aqua,pleasantness,liberal,no,9,1,2.70014378235,-,-
2019_Nov_06,32,001,3,source,3,UNION,HF,target,left,yellow,imageability,conservative,no,1,1,0.900002712874,-,-
2019_Nov_06,32,001,3,source,4,IGNOBLE,LF,target,right,aqua,pleasantness,liberal,no,9,1,4.16678349135,-,-
2019_Nov_06,32,001,3,source,5,BROUGHT,HF,target,right,aqua,pleasantness,liberal,no,9,1,2.11679511272,-,-
2019_Nov_06,32,001,3,source,6,SHORT,HF,target,right,aqua,pleasantness,liberal,no,9,1,1.13352218361,-,-
2019_Nov_06,32,001,3,source,7,CIRCUSES,LF,target,right,aqua,pleasantness,conservative,no,9,1,0.983618270697,-,-
2019_Nov_06,32,001,3,source,8,BAUXITE,LF,target,left,yellow,imageability,conservative,no,1,1,1.21688771706,-,-
2019_Nov_06,32,001,3,source,9,FREEDOM,HF,target,left,yellow,imageability,liberal,no,1,1,1.0002749535,-,-
2019_Nov_06,32,001,3,source,10,UPLIFT,LF,target,left,yellow,imageability,liberal,no,1,1,1.13358853906,-,-
2019_Nov_06,32,001,3,source,11,LARGE,HF,target,left,yellow,imageability,conservative,no,3,1,3.30009084464,-,-
2019_Nov_06,32,001,3,source,12,GROUND,HF,target,left,yellow,imageability,conservative,no,3,1,3.38318399081,-,-
2019_Nov_06,32,001,3,source,13,RAYON,LF,target,left,yellow,imageability,liberal,yes,9,0,1.58348981242,-,-
2019_Nov_06,32,001,3,source,14,JOTTED,LF,target,right,aqua,pleasantness,liberal,no,9,1,4.26667482973,-,-
2019_Nov_06,32,001,3,source,15,FLAGGED,LF,target,right,aqua,pleasantness,liberal,no,9,1,0.916949746566,-,-
2019_Nov_06,32,001,3,source,16,LIARS,LF,target,right,aqua,pleasantness,conservative,no,9,1,0.766904324249,-,-
2019_Nov_06,32,001,3,source,17,HOVELS,LF,target,left,yellow,imageability,liberal,no,1,1,1.08355616787,-,-
2019_Nov_06,32,001,3,source,18,SLOWLY,HF,target,right,aqua,pleasantness,conservative,no,None,-1,-1,-,-
2019_Nov_06,32,001,3,source,19,URBANE,LF,target,right,aqua,pleasantness,conservative,no,9,1,2.88347177547,-,-
2019_Nov_06,32,001,3,source,20,ORDER,HF,target,left,yellow,imageability,liberal,no,1,1,1.98361020539,-,-
2019_Nov_06,32,001,3,source,21,DUNGEON,LF,target,right,aqua,pleasantness,liberal,no,9,1,1.88347727454,-,-
2019_Nov_06,32,001,3,source,22,AFRAID,HF,target,right,aqua,pleasantness,liberal,no,9,1,0.966916862128,-,-
2019_Nov_06,32,001,3,source,23,TOWARDS,HF,target,left,yellow,imageability,conservative,no,1,1,1.41683609912,-,-
2019_Nov_06,32,001,3,source,24,BREAK,HF,target,right,aqua,pleasantness,conservative,no,9,1,4.00017120438,-,-
2019_Nov_06,32,001,3,source,25,ELECTING,LF,target,left,yellow,imageability,liberal,no,1,1,0.933559503969,-,-
2019_Nov_06,32,001,3,source,26,WALKED,HF,target,right,aqua,pleasantness,liberal,no,2,0,3.24990193325,-,-
2019_Nov_06,32,001,3,source,27,HOSPITAL,HF,target,left,yellow,imageability,conservative,no,1,1,2.08345168554,-,-
2019_Nov_06,32,001,3,source,28,GNARLED,LF,target,right,aqua,pleasantness,conservative,no,9,1,1.65023019107,-,-
2019_Nov_06,32,001,3,source,29,VIVACIOUS,LF,target,left,yellow,imageability,conservative,no,1,1,2.10022238239,-,-
2019_Nov_06,32,001,3,source,30,ACTION,HF,target,right,aqua,pleasantness,conservative,no,9,1,1.25005150795,-,-
2019_Nov_06,32,001,3,source,31,DOGMAS,LF,target,left,yellow,imageability,liberal,no,1,1,1.11666863411,-,-
2019_Nov_06,32,001,3,source,32,CHAIR,HF,target,left,yellow,imageability,conservative,yes,1,1,1.08335563512,-,-
2019_Nov_06,32,001,3,source,33,SIMILAR,HF,target,left,yellow,imageability,liberal,no,1,1,1.35025629332,-,-
2019_Nov_06,32,001,3,source,34,CREAK,LF,target,right,aqua,pleasantness,conservative,no,9,1,1.63364133013,-,-
2019_Nov_06,32,001,3,source,35,RATHER,HF,target,left,yellow,imageability,liberal,no,2,1,2.30019606017,-,-
2019_Nov_06,32,001,3,source,36,ERSTWHILE,LF,target,left,yellow,imageability,conservative,yes,1,1,1.41686102824,-,-
2019_Nov_06,32,001,3,source,37,PIECE,HF,target,right,aqua,pleasantness,conservative,no,9,1,1.06684962683,-,-
2019_Nov_06,32,001,3,source,38,SICKENED,LF,target,left,yellow,imageability,conservative,no,1,1,3.16674169842,-,-
2019_Nov_06,32,001,3,source,39,TYPHOID,LF,target,left,yellow,imageability,conservative,yes,9,0,1.16692536736,-,-
2019_Nov_06,32,001,3,source,40,WEEKS,HF,target,left,yellow,imageability,liberal,no,1,1,1.64998713218,-,-
2019_Nov_06,32,001,3,source,41,TETHER,LF,target,right,aqua,pleasantness,liberal,no,9,1,1.01669077703,-,-
2019_Nov_06,32,001,3,source,42,ATTACK,HF,target,right,aqua,pleasantness,conservative,no,9,1,0.883579557244,-,-
2019_Nov_06,32,001,3,source,43,FIELD,HF,target,left,yellow,imageability,liberal,no,1,1,1.15024962111,-,-
2019_Nov_06,32,001,3,source,44,UNOPENED,LF,target,right,aqua,pleasantness,conservative,no,9,1,0.933522476898,-,-
2019_Nov_06,32,001,3,source,45,SAYING,HF,target,right,aqua,pleasantness,liberal,no,9,1,1.5168693135,-,-
2019_Nov_06,32,001,3,source,46,NEURAL,LF,target,left,yellow,imageability,liberal,no,1,1,0.916758378932,-,-
2019_Nov_06,32,001,3,source,47,SKATES,LF,target,left,yellow,imageability,conservative,no,1,1,0.833553051728,-,-
2019_Nov_06,32,001,3,recog,0,URBANE,LF,target,right,aqua,pleasantness,conservative,no,z,1,1.31685310958,1,499
2019_Nov_06,32,001,3,recog,1,RUNNING,HF,lure,-,-,-,liberal,no,m,1,1.20016504542,1,500
2019_Nov_06,32,001,3,recog,2,ARBITER,LF,lure,-,-,-,conservative,no,m,1,1.60019085439,3,503
2019_Nov_06,32,001,3,recog,3,RAIDER,LF,lure,-,-,-,liberal,no,m,1,1.05017754664,1,504
2019_Nov_06,32,001,3,recog,4,SLOWLY,HF,target,right,aqua,pleasantness,conservative,no,z,1,1.20017274412,1,505
2019_Nov_06,32,001,3,recog,5,EFFECT,HF,lure,-,-,-,conservative,no,z,0,1.20021453705,-3,502
2019_Nov_06,32,001,3,recog,6,GADGET,LF,lure,-,-,-,liberal,no,m,1,0.883541430359,1,503
2019_Nov_06,32,001,3,recog,7,DIETING,LF,lure,-,-,-,conservative,no,m,1,1.35014924476,3,506
2019_Nov_06,32,001,3,recog,8,BAUXITE,LF,target,left,yellow,imageability,conservative,no,z,1,1.03356229016,1,507
2019_Nov_06,32,001,3,recog,9,OXIDE,LF,target,right,aqua,pleasantness,liberal,no,z,1,0.900234040416,3,510
2019_Nov_06,32,001,3,recog,10,WOMAN,HF,lure,-,-,-,conservative,no,m,1,1.61664920406,3,513
2019_Nov_06,32,001,3,recog,11,LAVISHED,LF,lure,-,-,-,conservative,no,m,1,1.0502926605,3,516
2019_Nov_06,32,001,3,recog,12,IGNOBLE,LF,target,right,aqua,pleasantness,liberal,no,z,1,1.05021237408,3,519
2019_Nov_06,32,001,3,recog,13,CHIEF,HF,lure,-,-,-,liberal,no,m,1,1.65011837664,1,520
2019_Nov_06,32,001,3,recog,14,FUMING,LF,lure,-,-,-,conservative,no,m,1,1.48357244511,3,523
2019_Nov_06,32,001,3,recog,15,SLIGHTLY,HF,lure,-,-,-,liberal,no,m,1,0.85033034746,1,524
2019_Nov_06,32,001,3,recog,16,OPPOSES,LF,lure,-,-,-,conservative,no,m,1,0.883563060035,3,527
2019_Nov_06,32,001,3,recog,17,MINISTER,HF,lure,-,-,-,conservative,no,m,1,1.03351573137,3,530
2019_Nov_06,32,001,3,recog,18,ORDER,HF,target,left,yellow,imageability,liberal,no,z,1,0.966741991705,3,533
2019_Nov_06,32,001,3,recog,19,CORNER,HF,lure,-,-,-,liberal,no,m,1,0.833553418332,1,534
2019_Nov_06,32,001,3,recog,20,WAXEN,LF,lure,-,-,-,conservative,no,m,1,1.11688859691,3,537
2019_Nov_06,32,001,3,recog,21,LIARS,LF,target,right,aqua,pleasantness,conservative,no,z,1,0.716870120033,1,538
2019_Nov_06,32,001,3,recog,22,FRIEND,HF,lure,-,-,-,liberal,no,m,1,1.03360738254,1,539
2019_Nov_06,32,001,3,recog,23,FLUFF,LF,lure,-,-,-,conservative,yes,m,1,1.28342499672,3,542
2019_Nov_06,32,001,3,recog,24,BUBBLED,LF,lure,-,-,-,liberal,no,m,1,1.5501588498,1,543
2019_Nov_06,32,001,3,recog,25,ELECTING,LF,target,left,yellow,imageability,liberal,no,z,1,2.00015140773,3,546
2019_Nov_06,32,001,3,recog,26,ABUSING,LF,lure,-,-,-,liberal,no,m,1,1.46686883692,1,547
2019_Nov_06,32,001,3,recog,27,LIGHT,HF,lure,-,-,-,conservative,no,m,1,1.10017765662,3,550
2019_Nov_06,32,001,3,recog,28,PIECE,HF,target,right,aqua,pleasantness,conservative,no,z,1,0.716907513709,1,551
2019_Nov_06,32,001,3,recog,29,SEEMED,HF,lure,-,-,-,conservative,no,m,1,0.766916055598,3,554
2019_Nov_06,32,001,3,recog,30,SWOOPING,LF,lure,-,-,-,liberal,no,m,1,0.666877708751,1,555
2019_Nov_06,32,001,3,recog,31,CREAK,LF,target,right,aqua,pleasantness,conservative,no,z,1,0.566885920694,1,556
2019_Nov_06,32,001,3,recog,32,UNION,HF,target,left,yellow,imageability,conservative,no,z,1,0.733598657347,1,557
2019_Nov_06,32,001,3,recog,33,RAYON,LF,target,left,yellow,imageability,liberal,no,z,1,1.20026769472,3,560
2019_Nov_06,32,001,3,recog,34,FREEDOM,HF,target,left,yellow,imageability,liberal,no,z,1,0.750246175031,3,563
2019_Nov_06,32,001,3,recog,35,CIRCUSES,LF,target,right,aqua,pleasantness,conservative,no,z,1,0.616919758305,1,564
2019_Nov_06,32,001,3,recog,36,NEURAL,LF,target,left,yellow,imageability,liberal,no,z,1,0.516967196948,3,567
2019_Nov_06,32,001,3,recog,37,HIKING,LF,lure,-,-,-,conservative,no,m,1,0.650336873024,3,570
2019_Nov_06,32,001,3,recog,38,WALKED,HF,target,right,aqua,pleasantness,liberal,no,z,1,1.18354538969,3,573
2019_Nov_06,32,001,3,recog,39,SEVEN,HF,target,right,aqua,pleasantness,conservative,no,z,1,1.15017043451,1,574
2019_Nov_06,32,001,3,recog,40,UPROOTED,LF,lure,-,-,-,conservative,yes,z,0,0.883564893057,-3,571
2019_Nov_06,32,001,3,recog,41,NATIONAL,HF,lure,-,-,-,conservative,no,m,1,0.950197856536,3,574
2019_Nov_06,32,001,3,recog,42,CHAIR,HF,target,left,yellow,imageability,conservative,no,z,1,0.616869533466,1,575
2019_Nov_06,32,001,3,recog,43,TARIFF,LF,lure,-,-,-,conservative,no,m,1,0.733563096695,3,578
2019_Nov_06,32,001,3,recog,44,LARGE,HF,target,left,yellow,imageability,conservative,no,z,1,1.01693236951,1,579
2019_Nov_06,32,001,3,recog,45,MAYBE,HF,lure,-,-,-,conservative,no,m,1,0.783606466026,3,582
2019_Nov_06,32,001,3,recog,46,SHRED,LF,lure,-,-,-,liberal,no,m,1,0.866926173886,1,583
2019_Nov_06,32,001,3,recog,47,TETHER,LF,target,right,aqua,pleasantness,liberal,no,z,1,0.616903261095,3,586
2019_Nov_06,32,001,3,recog,48,GNARLED,LF,target,right,aqua,pleasantness,conservative,no,z,1,0.550339952503,1,587
2019_Nov_06,32,001,3,recog,49,DUNGEON,LF,target,right,aqua,pleasantness,liberal,no,z,1,0.683584616389,3,590
2019_Nov_06,32,001,3,recog,50,SKATES,LF,target,left,yellow,imageability,conservative,yes,m,0,0.716904580871,-1,589
2019_Nov_06,32,001,3,recog,51,TROUBLE,HF,lure,-,-,-,liberal,no,m,1,1.06691854851,1,590
2019_Nov_06,32,001,3,recog,52,THEORY,HF,lure,-,-,-,liberal,no,m,1,0.650165668646,1,591
2019_Nov_06,32,001,3,recog,53,MORNING,HF,lure,-,-,-,liberal,no,m,1,0.750246908239,1,592
2019_Nov_06,32,001,3,recog,54,TOWARDS,HF,target,left,yellow,imageability,conservative,no,z,1,0.650242655625,1,593
2019_Nov_06,32,001,3,recog,55,RATHER,HF,target,left,yellow,imageability,liberal,no,z,1,0.833565882891,3,596
2019_Nov_06,32,001,3,recog,56,GULLIBLE,LF,lure,-,-,-,liberal,no,m,1,0.733525336414,1,597
2019_Nov_06,32,001,3,recog,57,HALLMARK,LF,lure,-,-,-,liberal,no,m,1,0.966900364918,1,598
2019_Nov_06,32,001,3,recog,58,VIVACIOUS,LF,target,left,yellow,imageability,conservative,no,z,1,0.816801784925,1,599
2019_Nov_06,32,001,3,recog,59,WEEKS,HF,target,left,yellow,imageability,liberal,no,z,1,1.00022472866,3,602
2019_Nov_06,32,001,3,recog,60,FIELD,HF,target,left,yellow,imageability,liberal,no,z,1,1.40019188088,3,605
2019_Nov_06,32,001,3,recog,61,DOING,HF,lure,-,-,-,conservative,no,m,1,0.799929905189,3,608
2019_Nov_06,32,001,3,recog,62,GROUND,HF,target,left,yellow,imageability,conservative,no,z,1,0.916900254937,1,609
2019_Nov_06,32,001,3,recog,63,SHORT,HF,target,right,aqua,pleasantness,liberal,no,z,1,0.583589528891,3,612
2019_Nov_06,32,001,3,recog,64,HOSPITAL,HF,target,left,yellow,imageability,conservative,no,z,1,0.833569182332,1,613
2019_Nov_06,32,001,3,recog,65,HOVELS,LF,target,left,yellow,imageability,liberal,no,z,1,0.583628388985,3,616
2019_Nov_06,32,001,3,recog,66,BROUGHT,HF,target,right,aqua,pleasantness,liberal,no,z,1,0.583564233169,3,619
2019_Nov_06,32,001,3,recog,67,AFRAID,HF,target,right,aqua,pleasantness,liberal,no,z,1,0.566900951486,3,622
2019_Nov_06,32,001,3,recog,68,SPEAK,HF,lure,-,-,-,conservative,no,m,1,0.68369789723,3,625
2019_Nov_06,32,001,3,recog,69,WRONG,HF,lure,-,-,-,conservative,no,m,1,1.53347613807,3,628
2019_Nov_06,32,001,3,recog,70,ZIGZAG,LF,lure,-,-,-,liberal,yes,z,0,0.86702002468,-1,627
2019_Nov_06,32,001,3,recog,71,NEITHER,HF,lure,-,-,-,liberal,no,m,1,0.966987616827,1,628
2019_Nov_06,32,001,3,recog,72,DOGMAS,LF,target,left,yellow,imageability,liberal,no,z,1,0.650281515719,3,631
2019_Nov_06,32,001,3,recog,73,HERSELF,HF,lure,-,-,-,liberal,no,m,1,0.716904214267,1,632
2019_Nov_06,32,001,3,recog,74,WANTED,HF,lure,-,-,-,conservative,no,m,1,1.08353270517,3,635
2019_Nov_06,32,001,3,recog,75,SICKENED,LF,target,left,yellow,imageability,conservative,no,z,1,0.700246798258,1,636
2019_Nov_06,32,001,3,recog,76,ATTACK,HF,target,right,aqua,pleasantness,conservative,no,z,1,0.61689262956,1,637
2019_Nov_06,32,001,3,recog,77,SENSE,HF,lure,-,-,-,liberal,no,m,1,0.666914002612,1,638
2019_Nov_06,32,001,3,recog,78,BIKINI,LF,lure,-,-,-,conservative,no,m,1,1.46687433599,3,641
2019_Nov_06,32,001,3,recog,79,ERSTWHILE,LF,target,left,yellow,imageability,conservative,no,m,0,0.716906413895,-1,640
2019_Nov_06,32,001,3,recog,80,UNOPENED,LF,target,right,aqua,pleasantness,conservative,no,z,1,1.55013648692,1,641
2019_Nov_06,32,001,3,recog,81,TRIED,HF,lure,-,-,-,liberal,no,m,1,0.916847463865,1,642
2019_Nov_06,32,001,3,recog,82,FOOLHARDY,LF,lure,-,-,-,conservative,no,m,1,0.766916422202,3,645
2019_Nov_06,32,001,3,recog,83,SARDINES,LF,lure,-,-,-,liberal,no,m,1,0.866932406166,1,646
2019_Nov_06,32,001,3,recog,84,TYPHOID,LF,target,left,yellow,imageability,conservative,no,z,1,0.750231144239,1,647
2019_Nov_06,32,001,3,recog,85,ESTRANGED,LF,lure,-,-,-,liberal,no,m,1,0.800268281291,1,648
2019_Nov_06,32,001,3,recog,86,BREAK,HF,target,right,aqua,pleasantness,conservative,no,z,1,0.650197929856,1,649
2019_Nov_06,32,001,3,recog,87,PERHAPS,HF,lure,-,-,-,conservative,no,z,0,1.05017937966,-3,646
2019_Nov_06,32,001,3,recog,88,HYACINTHS,LF,lure,-,-,-,liberal,no,m,1,0.900234773625,1,647
2019_Nov_06,32,001,3,recog,89,GREATER,HF,target,right,aqua,pleasantness,liberal,no,z,1,0.6002311809,3,650
2019_Nov_06,32,001,3,recog,90,ACTION,HF,target,right,aqua,pleasantness,conservative,no,z,1,0.600066575406,1,651
2019_Nov_06,32,001,3,recog,91,FLAGGED,LF,target,right,aqua,pleasantness,liberal,no,z,1,1.2334846433,3,654
2019_Nov_06,32,001,3,recog,92,UPLIFT,LF,target,left,yellow,imageability,liberal,no,z,1,0.633623366501,3,657
2019_Nov_06,32,001,3,recog,93,SIMILAR,HF,target,left,yellow,imageability,liberal,no,z,1,0.800440218878,3,660
2019_Nov_06,32,001,3,recog,94,JOTTED,LF,target,right,aqua,pleasantness,liberal,no,z,1,0.633612001757,3,663
2019_Nov_06,32,001,3,recog,95,SAYING,HF,target,right,aqua,pleasantness,liberal,no,z,1,1.95022828472,3,666
2019_Nov_06,32,001,4,source,0,OLDER,HF,target,left,yellow,imageability,liberal,yes,3,1,1.23330903967,-,-
2019_Nov_06,32,001,4,source,1,OBVIOUSLY,HF,target,right,aqua,pleasantness,conservative,no,9,1,1.93330398052,-,-
2019_Nov_06,32,001,4,source,2,ORCHARDS,LF,target,right,aqua,pleasantness,liberal,no,9,1,1.21692987659,-,-
2019_Nov_06,32,001,4,source,3,STOOD,HF,target,left,yellow,imageability,conservative,no,2,1,1.50023939284,-,-
2019_Nov_06,32,001,4,source,4,RETURN,HF,target,left,yellow,imageability,liberal,no,1,1,2.66678532438,-,-
2019_Nov_06,32,001,4,source,5,AFOOT,LF,target,left,yellow,imageability,conservative,no,1,1,1.18355602122,-,-
2019_Nov_06,32,001,4,source,6,HISTORY,HF,target,left,yellow,imageability,conservative,no,1,1,0.866867517141,-,-
2019_Nov_06,32,001,4,source,7,REPORT,HF,target,right,aqua,pleasantness,conservative,no,9,1,0.900221575857,-,-
2019_Nov_06,32,001,4,source,8,EASILY,HF,target,left,yellow,imageability,liberal,no,2,1,2.33331695832,-,-
2019_Nov_06,32,001,4,source,9,SIDED,LF,target,right,aqua,pleasantness,conservative,no,9,1,2.20016541202,-,-
2019_Nov_06,32,001,4,source,10,PASSED,HF,target,left,yellow,imageability,conservative,no,2,1,2.70008989146,-,-
2019_Nov_06,32,001,4,source,11,PHANTOMS,LF,target,right,aqua,pleasantness,conservative,no,9,1,0.800196793382,-,-
2019_Nov_06,32,001,4,source,12,GLASS,HF,target,left,yellow,imageability,conservative,no,1,1,1.01685574913,-,-
2019_Nov_06,32,001,4,source,13,HUDDLE,LF,target,left,yellow,imageability,liberal,no,1,1,0.716914845802,-,-
2019_Nov_06,32,001,4,source,14,BENIGNLY,LF,target,left,yellow,imageability,conservative,no,1,1,2.50013161107,-,-
2019_Nov_06,32,001,4,source,15,JUBILANT,LF,target,right,aqua,pleasantness,liberal,no,9,1,1.73351580469,-,-
2019_Nov_06,32,001,4,source,16,QUICKLY,HF,target,right,aqua,pleasantness,liberal,yes,9,1,0.900033507666,-,-
2019_Nov_06,32,001,4,source,17,FIFTIETH,LF,target,right,aqua,pleasantness,liberal,no,9,1,0.916898788519,-,-
2019_Nov_06,32,001,4,source,18,UPTIGHT,LF,target,left,yellow,imageability,conservative,no,1,1,0.93356903569,-,-
2019_Nov_06,32,001,4,source,19,OCTAGONAL,LF,target,left,yellow,imageability,liberal,no,1,1,0.850263992017,-,-
2019_Nov_06,32,001,4,source,20,STRAIGHT,HF,target,left,yellow,imageability,liberal,no,1,1,1.18334045768,-,-
2019_Nov_06,32,001,4,source,21,CITES,LF,target,left,yellow,imageability,liberal,no,1,1,0.900243572137,-,-
2019_Nov_06,32,001,4,source,22,GIRLS,HF,target,right,aqua,pleasantness,liberal,no,9,1,0.833364983536,-,-
2019_Nov_06,32,001,4,source,23,WRITE,HF,target,left,yellow,imageability,conservative,no,1,1,2.9834613639,-,-
2019_Nov_06,32,001,4,source,24,GNOMES,LF,target,right,aqua,pleasantness,conservative,no,9,1,1.11671885895,-,-
2019_Nov_06,32,001,4,source,25,INTEREST,HF,target,right,aqua,pleasantness,conservative,no,9,1,1.15021259404,-,-
2019_Nov_06,32,001,4,source,26,RAPACIOUS,LF,target,right,aqua,pleasantness,liberal,no,3,0,2.2835023503,-,-
2019_Nov_06,32,001,4,source,27,VIBRATE,LF,target,right,aqua,pleasantness,liberal,no,9,1,1.43351697783,-,-
2019_Nov_06,32,001,4,source,28,PROBABLY,HF,target,right,aqua,pleasantness,liberal,no,9,1,1.80002852184,-,-
2019_Nov_06,32,001,4,source,29,FIGURE,HF,target,left,yellow,imageability,liberal,no,1,1,2.1001758236,-,-
2019_Nov_06,32,001,4,source,30,EGGSHELL,LF,target,right,aqua,pleasantness,liberal,no,9,1,1.98353761767,-,-
2019_Nov_06,32,001,4,source,31,DOODLE,LF,target,left,yellow,imageability,conservative,no,1,1,0.88357369157,-,-
2019_Nov_06,32,001,4,source,32,YEARN,LF,target,right,aqua,pleasantness,conservative,no,9,1,0.966668304168,-,-
2019_Nov_06,32,001,4,source,33,EIGHT,HF,target,right,aqua,pleasantness,conservative,no,9,1,0.816867773764,-,-
2019_Nov_06,32,001,4,source,34,PARENTS,HF,target,left,yellow,imageability,conservative,yes,9,0,0.83351785768,-,-
2019_Nov_06,32,001,4,source,35,RUDIMENTS,LF,target,left,yellow,imageability,conservative,no,1,1,2.31662324845,-,-
2019_Nov_06,32,001,4,source,36,MEETING,HF,target,left,yellow,imageability,liberal,no,1,1,0.816854575996,-,-
2019_Nov_06,32,001,4,source,37,HECTOR,LF,target,left,yellow,imageability,liberal,no,1,1,0.816948426789,-,-
2019_Nov_06,32,001,4,source,38,HELICAL,LF,target,right,aqua,pleasantness,conservative,no,9,1,2.60012963141,-,-
2019_Nov_06,32,001,4,source,39,CANNOT,HF,target,right,aqua,pleasantness,liberal,no,9,1,1.78347265533,-,-
2019_Nov_06,32,001,4,source,40,HANDS,HF,target,right,aqua,pleasantness,conservative,no,1,0,3.2502120808,-,-
2019_Nov_06,32,001,4,source,41,MAMMAL,LF,target,left,yellow,imageability,liberal,no,1,1,1.75022601177,-,-
2019_Nov_06,32,001,4,source,42,AGILITY,LF,target,left,yellow,imageability,conservative,no,1,1,1.51687334616,-,-
2019_Nov_06,32,001,4,source,43,HOURS,HF,target,right,aqua,pleasantness,liberal,yes,1,0,1.15021955953,-,-
2019_Nov_06,32,001,4,source,44,WHITE,HF,target,right,aqua,pleasantness,liberal,no,9,1,0.766655033079,-,-
2019_Nov_06,32,001,4,source,45,FAILINGS,LF,target,right,aqua,pleasantness,conservative,no,9,1,3.01653790289,-,-
2019_Nov_06,32,001,4,source,46,AHEAD,HF,target,right,aqua,pleasantness,conservative,no,8,1,2.36677879881,-,-
2019_Nov_06,32,001,4,source,47,APTLY,LF,target,left,yellow,imageability,liberal,no,2,1,2.8167838213,-,-
2019_Nov_06,32,001,4,recog,0,KITCHEN,HF,lure,-,-,-,liberal,no,m,1,3.21656547156,1,667
2019_Nov_06,32,001,4,recog,1,EQUALLED,LF,lure,-,-,-,conservative,no,m,1,1.21691777864,3,670
2019_Nov_06,32,001,4,recog,2,HOURS,HF,target,right,aqua,pleasantness,liberal,no,z,1,1.75019008452,3,673
2019_Nov_06,32,001,4,recog,3,PASSED,HF,target,left,yellow,imageability,conservative,no,z,1,3.45012160277,1,674
2019_Nov_06,32,001,4,recog,4,GLASS,HF,target,left,yellow,imageability,conservative,no,z,1,0.666662878418,1,675
2019_Nov_06,32,001,4,recog,5,ICILY,LF,lure,-,-,-,liberal,no,m,1,1.41688119149,1,676
2019_Nov_06,32,001,4,recog,6,STOOD,HF,target,left,yellow,imageability,conservative,no,z,1,3.56680123502,1,677
2019_Nov_06,32,001,4,recog,7,POSITION,HF,lure,-,-,-,liberal,no,m,1,1.71675903882,1,678
2019_Nov_06,32,001,4,recog,8,GETTING,HF,lure,-,-,-,conservative,no,m,1,1.66688247461,3,681
2019_Nov_06,32,001,4,recog,9,EIGHT,HF,target,right,aqua,pleasantness,conservative,no,z,1,1.05021750655,1,682
2019_Nov_06,32,001,4,recog,10,BEAUTIFUL,HF,lure,-,-,-,conservative,no,m,1,3.08342455679,3,685
2019_Nov_06,32,001,4,recog,11,AMBIENCE,LF,lure,-,-,-,conservative,no,m,1,0.800190927708,3,688
2019_Nov_06,32,001,4,recog,12,ENERGY,HF,lure,-,-,-,conservative,no,m,1,1.00021079768,3,691
2019_Nov_06,32,001,4,recog,13,JOBLESS,LF,lure,-,-,-,conservative,no,m,1,0.683518627549,3,694
2019_Nov_06,32,001,4,recog,14,LADDIE,LF,lure,-,-,-,liberal,no,m,1,0.6835384242,1,695
2019_Nov_06,32,001,4,recog,15,OCTAGONAL,LF,target,left,yellow,imageability,liberal,no,z,1,0.600203318945,3,698
2019_Nov_06,32,001,4,recog,16,BUSINESS,HF,lure,-,-,-,liberal,no,m,1,0.766949416622,1,699
2019_Nov_06,32,001,4,recog,17,ENROLMENT,LF,lure,-,-,-,conservative,no,m,1,1.36687888188,3,702
2019_Nov_06,32,001,4,recog,18,HISTORY,HF,target,left,yellow,imageability,conservative,no,z,1,0.68355565462,1,703
2019_Nov_06,32,001,4,recog,19,HELICAL,LF,target,right,aqua,pleasantness,conservative,no,z,1,0.616873566118,1,704
2019_Nov_06,32,001,4,recog,20,PRACTICE,HF,lure,-,-,-,liberal,no,m,1,0.750290900799,1,705
2019_Nov_06,32,001,4,recog,21,FAILINGS,LF,target,right,aqua,pleasantness,conservative,no,z,1,0.533644776214,1,706
2019_Nov_06,32,001,4,recog,22,AHEAD,HF,target,right,aqua,pleasantness,conservative,no,z,1,0.583643419776,1,707
2019_Nov_06,32,001,4,recog,23,QUICKLY,HF,target,right,aqua,pleasantness,liberal,no,z,1,0.866897945327,3,710
2019_Nov_06,32,001,4,recog,24,CANNOT,HF,target,right,aqua,pleasantness,liberal,no,z,1,0.766908723504,3,713
2019_Nov_06,32,001,4,recog,25,ATROCITY,LF,lure,-,-,-,conservative,no,m,1,0.833702993034,3,716
2019_Nov_06,32,001,4,recog,26,PARENTS,HF,target,left,yellow,imageability,conservative,no,z,1,0.750237743123,1,717
2019_Nov_06,32,001,4,recog,27,REDDENED,LF,lure,-,-,-,conservative,no,m,1,0.750248374658,3,720
2019_Nov_06,32,001,4,recog,28,SUBJECT,HF,lure,-,-,-,conservative,no,m,1,1.05018487873,3,723
2019_Nov_06,32,001,4,recog,29,OLDER,HF,target,left,yellow,imageability,liberal,no,z,1,0.983515621391,3,726
2019_Nov_06,32,001,4,recog,30,HANDS,HF,target,right,aqua,pleasantness,conservative,no,z,1,0.567021931024,1,727
2019_Nov_06,32,001,4,recog,31,STRAIGHT,HF,target,left,yellow,imageability,liberal,no,z,1,0.600291304064,3,730
2019_Nov_06,32,001,4,recog,32,RETURN,HF,target,left,yellow,imageability,liberal,no,z,1,1.01689130978,3,733
2019_Nov_06,32,001,4,recog,33,TELEPHONE,HF,lure,-,-,-,liberal,no,m,1,0.616907293746,1,734
2019_Nov_06,32,001,4,recog,34,LIKELY,HF,lure,-,-,-,liberal,no,m,1,1.96689009999,1,735
2019_Nov_06,32,001,4,recog,35,GIRLS,HF,target,right,aqua,pleasantness,liberal,no,z,1,0.650255120184,3,738
2019_Nov_06,32,001,4,recog,36,DEGREE,HF,lure,-,-,-,liberal,no,m,1,1.16687074326,1,739
2019_Nov_06,32,001,4,recog,37,GNOMES,LF,target,right,aqua,pleasantness,conservative,no,z,1,0.600200019503,1,740
2019_Nov_06,32,001,4,recog,38,EASILY,HF,target,left,yellow,imageability,liberal,no,z,1,0.733514338275,3,743
2019_Nov_06,32,001,4,recog,39,PEOPLED,LF,lure,-,-,-,liberal,no,m,1,0.617012509284,1,744
2019_Nov_06,32,001,4,recog,40,REPORT,HF,target,right,aqua,pleasantness,conservative,no,z,1,0.683573251644,1,745
2019_Nov_06,32,001,4,recog,41,AFTERNOON,HF,lure,-,-,-,conservative,no,m,1,0.66686817703,3,748
2019_Nov_06,32,001,4,recog,42,STUDENT,HF,lure,-,-,-,conservative,no,m,1,2.38345601147,3,751
2019_Nov_06,32,001,4,recog,43,HUDDLE,LF,target,left,yellow,imageability,liberal,no,z,1,0.766907257086,3,754
2019_Nov_06,32,001,4,recog,44,TUFTS,LF,lure,-,-,-,liberal,no,m,1,1.03351353174,1,755
2019_Nov_06,32,001,4,recog,45,SLEEP,HF,lure,-,-,-,liberal,no,m,1,1.05021054106,1,756
2019_Nov_06,32,001,4,recog,46,ELUDE,LF,lure,-,-,-,conservative,no,m,1,0.800346368083,3,759
2019_Nov_06,32,001,4,recog,47,HECTOR,LF,target,left,yellow,imageability,liberal,yes,m,0,1.06687712218,-3,756
2019_Nov_06,32,001,4,recog,48,DECIDED,HF,lure,-,-,-,liberal,no,z,0,6.09984661261,-1,755
2019_Nov_06,32,001,4,recog,49,WHETHER,HF,lure,-,-,-,liberal,no,m,1,1.73350224032,1,756
2019_Nov_06,32,001,4,recog,50,ECONOMIC,HF,lure,-,-,-,conservative,no,m,1,1.81683771218,3,759
2019_Nov_06,32,001,4,recog,51,VIBRATE,LF,target,right,aqua,pleasantness,liberal,no,z,1,0.600241079225,3,762
2019_Nov_06,32,001,4,recog,52,HILLSIDES,LF,lure,-,-,-,liberal,no,m,1,0.666878441959,1,763
2019_Nov_06,32,001,4,recog,53,APTLY,LF,target,left,yellow,imageability,liberal,no,z,1,1.41686909354,3,766
2019_Nov_06,32,001,4,recog,54,ERADICATE,LF,lure,-,-,-,conservative,no,m,1,1.23354843251,3,769
2019_Nov_06,32,001,4,recog,55,UNLESS,HF,lure,-,-,-,conservative,no,z,0,0.733668312233,-3,766
2019_Nov_06,32,001,4,recog,56,EMULATION,LF,lure,-,-,-,conservative,no,m,1,0.950306371516,3,769
2019_Nov_06,32,001,4,recog,57,SPUDS,LF,lure,-,-,-,liberal,no,m,1,2.00001209795,1,770
2019_Nov_06,32,001,4,recog,58,EGGSHELL,LF,target,right,aqua,pleasantness,liberal,yes,z,1,2.30006738194,3,773
2019_Nov_06,32,001,4,recog,59,STEADFAST,LF,lure,-,-,-,liberal,no,m,1,3.91677634256,1,774
2019_Nov_06,32,001,4,recog,60,CITES,LF,target,left,yellow,imageability,liberal,no,z,1,1.0669174487,3,777
2019_Nov_06,32,001,4,recog,61,TICKLE,LF,lure,-,-,-,liberal,yes,z,0,1.55020467538,-1,776
2019_Nov_06,32,001,4,recog,62,ALTHOUGH,HF,lure,-,-,-,liberal,no,m,1,1.93348068397,1,777
2019_Nov_06,32,001,4,recog,63,BENIGNLY,LF,target,left,yellow,imageability,conservative,no,z,1,1.56684339455,1,778
2019_Nov_06,32,001,4,recog,64,WHITE,HF,target,right,aqua,pleasantness,liberal,no,z,1,0.750009715023,3,781
2019_Nov_06,32,001,4,recog,65,RUDIMENTS,LF,target,left,yellow,imageability,conservative,no,z,1,0.783540110582,1,782
2019_Nov_06,32,001,4,recog,66,TACITLY,LF,lure,-,-,-,liberal,no,m,1,1.06696987316,1,783
2019_Nov_06,32,001,4,recog,67,JUBILANT,LF,target,right,aqua,pleasantness,liberal,no,z,1,0.733569328974,3,786
2019_Nov_06,32,001,4,recog,68,SERIOUS,HF,lure,-,-,-,conservative,no,m,1,0.983509389112,3,789
2019_Nov_06,32,001,4,recog,69,PROBABLY,HF,target,right,aqua,pleasantness,liberal,no,z,1,1.15021662669,3,792
2019_Nov_06,32,001,4,recog,70,TURNED,HF,lure,-,-,-,conservative,yes,m,1,0.966888266965,3,795
2019_Nov_06,32,001,4,recog,71,AGILITY,LF,target,left,yellow,imageability,conservative,no,z,1,1.75019595019,1,796
2019_Nov_06,32,001,4,recog,72,OBVIOUSLY,HF,target,right,aqua,pleasantness,conservative,no,z,1,1.18354758932,1,797
2019_Nov_06,32,001,4,recog,73,PHANTOMS,LF,target,right,aqua,pleasantness,conservative,no,z,1,0.716912646175,1,798
2019_Nov_06,32,001,4,recog,74,TRUTH,HF,lure,-,-,-,conservative,no,m,1,0.916892922844,3,801
2019_Nov_06,32,001,4,recog,75,FIGURE,HF,target,left,yellow,imageability,liberal,no,z,1,0.900243572137,3,804
2019_Nov_06,32,001,4,recog,76,CAKED,LF,lure,-,-,-,liberal,no,m,1,0.666915835635,1,805
2019_Nov_06,32,001,4,recog,77,ORCHARDS,LF,target,right,aqua,pleasantness,liberal,no,z,1,0.566969873162,3,808
2019_Nov_06,32,001,4,recog,78,INTEREST,HF,target,right,aqua,pleasantness,conservative,no,z,1,2.31685384279,1,809
2019_Nov_06,32,001,4,recog,79,DRAFTING,LF,lure,-,-,-,liberal,no,m,1,0.666959828194,1,810
2019_Nov_06,32,001,4,recog,80,MAMMAL,LF,target,left,yellow,imageability,liberal,no,z,1,0.566925880602,3,813
2019_Nov_06,32,001,4,recog,81,UPTIGHT,LF,target,left,yellow,imageability,conservative,no,z,1,2.10016959132,1,814
2019_Nov_06,32,001,4,recog,82,AUSPICES,LF,lure,-,-,-,conservative,no,m,1,0.733551731951,3,817
2019_Nov_06,32,001,4,recog,83,YEARN,LF,target,right,aqua,pleasantness,conservative,no,z,1,1.20022150254,1,818
2019_Nov_06,32,001,4,recog,84,LUSCIOUS,LF,lure,-,-,-,conservative,no,m,1,0.750142059306,3,821
2019_Nov_06,32,001,4,recog,85,ENFORCING,LF,lure,-,-,-,conservative,no,m,1,0.650197196647,3,824
2019_Nov_06,32,001,4,recog,86,ASKED,HF,lure,-,-,-,conservative,no,m,1,0.683533658341,3,827
2019_Nov_06,32,001,4,recog,87,PUBLIC,HF,lure,-,-,-,liberal,no,m,1,2.15018986455,1,828
2019_Nov_06,32,001,4,recog,88,SIDED,LF,target,right,aqua,pleasantness,conservative,no,z,1,0.616873566118,1,829
2019_Nov_06,32,001,4,recog,89,FIFTIETH,LF,target,right,aqua,pleasantness,liberal,no,z,1,0.650254753579,3,832
2019_Nov_06,32,001,4,recog,90,DOODLE,LF,target,left,yellow,imageability,conservative,no,z,1,0.666908503542,1,833
2019_Nov_06,32,001,4,recog,91,AFOOT,LF,target,left,yellow,imageability,conservative,no,z,1,0.7333354352,1,834
2019_Nov_06,32,001,4,recog,92,TOADS,LF,lure,-,-,-,liberal,no,m,1,0.650078416737,1,835
2019_Nov_06,32,001,4,recog,93,MEETING,HF,target,left,yellow,imageability,liberal,no,z,1,0.566948610092,3,838
2019_Nov_06,32,001,4,recog,94,WRITE,HF,target,left,yellow,imageability,conservative,no,z,1,0.616960818027,1,839
2019_Nov_06,32,001,4,recog,95,RAPACIOUS,LF,target,right,aqua,pleasantness,liberal,no,z,1,1.55028752804,3,842
