date,subj,session,cycle,task,trial,item,wf,type,source,colour,encoding,bias,null,response,corr,rt,points,total
2019_Nov_08,33,001,0,source,0,SUAVE,LF,target,right,yellow,imageability,liberal,no,None,-1,-1,-,-
2019_Nov_08,33,001,0,source,1,ROCKER,LF,target,left,aqua,pleasantness,conservative,no,7,0,4.76672322155,-,-
2019_Nov_08,33,001,0,source,2,AMEND,LF,target,right,yellow,imageability,liberal,no,9,1,4.41676754405,-,-
2019_Nov_08,33,001,0,source,3,ALLOWED,HF,target,right,yellow,imageability,liberal,no,9,1,1.63357974055,-,-
2019_Nov_08,33,001,0,source,4,ALREADY,HF,target,left,aqua,pleasantness,conservative,no,1,1,3.56678033855,-,-
2019_Nov_08,33,001,0,source,5,KERNEL,LF,target,right,yellow,imageability,conservative,no,2,0,5.61648386536,-,-
2019_Nov_08,33,001,0,source,6,MAYBE,HF,target,right,yellow,imageability,conservative,no,1,0,5.4666708704,-,-
2019_Nov_08,33,001,0,source,7,CLEAR,HF,target,right,yellow,imageability,liberal,no,7,1,2.06686685725,-,-
2019_Nov_08,33,001,0,source,8,LOOKED,HF,target,right,yellow,imageability,liberal,no,9,1,3.56676457455,-,-
2019_Nov_08,33,001,0,source,9,SINCE,HF,target,left,aqua,pleasantness,conservative,no,1,1,3.20020133928,-,-
2019_Nov_08,33,001,0,source,10,EITHER,HF,target,right,yellow,imageability,conservative,no,9,1,2.50018586856,-,-
2019_Nov_08,33,001,0,source,11,PARENTS,HF,target,left,aqua,pleasantness,conservative,no,1,1,3.45011463728,-,-
2019_Nov_08,33,001,0,source,12,WITHIN,HF,target,left,aqua,pleasantness,liberal,no,1,1,1.36694487072,-,-
2019_Nov_08,33,001,0,source,13,FIVER,LF,target,left,aqua,pleasantness,liberal,no,1,1,0.966910263244,-,-
2019_Nov_08,33,001,0,source,14,SLOWLY,HF,target,right,yellow,imageability,conservative,no,9,1,5.35002496578,-,-
2019_Nov_08,33,001,0,source,15,CEMENTED,LF,target,right,yellow,imageability,liberal,no,9,1,1.3668326897,-,-
2019_Nov_08,33,001,0,source,16,AREAS,HF,target,left,aqua,pleasantness,liberal,no,9,0,4.91668982386,-,-
2019_Nov_08,33,001,0,source,17,ENTIRELY,HF,target,right,yellow,imageability,conservative,no,9,1,2.70011408737,-,-
2019_Nov_08,33,001,0,source,18,ATROCITY,LF,target,right,yellow,imageability,liberal,no,9,1,1.63351411831,-,-
2019_Nov_08,33,001,0,source,19,YEOMAN,LF,target,left,aqua,pleasantness,liberal,no,1,1,2.66682895033,-,-
2019_Nov_08,33,001,0,source,20,SEDAN,LF,target,left,aqua,pleasantness,conservative,no,1,1,1.38359825408,-,-
2019_Nov_08,33,001,0,source,21,SPACE,HF,target,right,yellow,imageability,liberal,no,9,1,1.28335130918,-,-
2019_Nov_08,33,001,0,source,22,SIZZLING,LF,target,left,aqua,pleasantness,conservative,no,9,0,5.28337000602,-,-
2019_Nov_08,33,001,0,source,23,USING,HF,target,left,aqua,pleasantness,liberal,no,1,1,1.60021211746,-,-
2019_Nov_08,33,001,0,source,24,FIANCE,LF,target,left,aqua,pleasantness,liberal,no,1,1,0.816874006043,-,-
2019_Nov_08,33,001,0,source,25,LEVEL,HF,target,left,aqua,pleasantness,liberal,no,3,1,2.81680178492,-,-
2019_Nov_08,33,001,0,source,26,BECAME,HF,target,right,yellow,imageability,conservative,no,9,1,1.56688298786,-,-
2019_Nov_08,33,001,0,source,27,SOYBEAN,LF,target,right,yellow,imageability,conservative,yes,2,0,2.34994687898,-,-
2019_Nov_08,33,001,0,source,28,HOURS,HF,target,right,yellow,imageability,liberal,no,9,1,1.63354564631,-,-
2019_Nov_08,33,001,0,source,29,LEMURS,LF,target,left,aqua,pleasantness,conservative,yes,8,0,3.60009993643,-,-
2019_Nov_08,33,001,0,source,30,MIMICKED,LF,target,left,aqua,pleasantness,liberal,no,9,0,1.98330738994,-,-
2019_Nov_08,33,001,0,source,31,ALMOST,HF,target,right,yellow,imageability,conservative,no,9,1,1.43330104768,-,-
2019_Nov_08,33,001,0,source,32,PROBABLY,HF,target,left,aqua,pleasantness,conservative,yes,2,1,1.61690069486,-,-
2019_Nov_08,33,001,0,source,33,QUESTION,HF,target,right,yellow,imageability,liberal,no,9,1,1.95019199086,-,-
2019_Nov_08,33,001,0,source,34,MITIGATE,LF,target,left,aqua,pleasantness,conservative,no,3,1,3.58348321354,-,-
2019_Nov_08,33,001,0,source,35,CITES,LF,target,right,yellow,imageability,conservative,no,9,1,0.966867737103,-,-
2019_Nov_08,33,001,0,source,36,IDYLL,LF,target,right,yellow,imageability,liberal,no,1,0,1.91686689391,-,-
2019_Nov_08,33,001,0,source,37,GYPSIES,LF,target,right,yellow,imageability,conservative,no,1,0,1.00026578838,-,-
2019_Nov_08,33,001,0,source,38,LOITERING,LF,target,right,yellow,imageability,conservative,yes,2,0,1.00027128745,-,-
2019_Nov_08,33,001,0,source,39,PUFFS,LF,target,left,aqua,pleasantness,liberal,no,9,0,1.23360892228,-,-
2019_Nov_08,33,001,0,source,40,ANAEMIC,LF,target,left,aqua,pleasantness,conservative,no,9,0,1.83358421312,-,-
2019_Nov_08,33,001,0,source,41,SECOND,HF,target,left,aqua,pleasantness,liberal,no,9,0,1.31692093144,-,-
2019_Nov_08,33,001,0,source,42,SWOOPING,LF,target,right,yellow,imageability,conservative,no,9,1,1.26690615727,-,-
2019_Nov_08,33,001,0,source,43,AIDING,LF,target,right,yellow,imageability,liberal,no,9,1,0.816930829766,-,-
2019_Nov_08,33,001,0,source,44,RANGE,HF,target,left,aqua,pleasantness,conservative,no,9,0,1.55021897296,-,-
2019_Nov_08,33,001,0,source,45,GIVEN,HF,target,left,aqua,pleasantness,conservative,no,9,0,1.2502751368,-,-
2019_Nov_08,33,001,0,source,46,IMPORTANT,HF,target,left,aqua,pleasantness,liberal,no,1,1,0.966939591617,-,-
2019_Nov_08,33,001,0,source,47,DARKEN,LF,target,left,aqua,pleasantness,liberal,no,1,1,0.916952679403,-,-
2019_Nov_08,33,001,0,recog,0,UNBEATEN,LF,lure,-,-,-,liberal,no,m,1,4.36676156839,1,1
2019_Nov_08,33,001,0,recog,1,ENZYME,LF,lure,-,-,-,conservative,no,m,1,2.53353736105,3,4
2019_Nov_08,33,001,0,recog,2,ASSERTIVE,LF,lure,-,-,-,liberal,no,m,1,2.08326251753,1,5
2019_Nov_08,33,001,0,recog,3,SINCE,HF,target,left,aqua,pleasantness,conservative,no,z,1,2.4834452333,1,6
2019_Nov_08,33,001,0,recog,4,WOMAN,HF,lure,-,-,-,conservative,no,m,1,1.50024159247,3,9
2019_Nov_08,33,001,0,recog,5,SUMMER,HF,lure,-,-,-,liberal,no,z,0,1.0669258806,-1,8
2019_Nov_08,33,001,0,recog,6,AIDING,LF,target,right,yellow,imageability,liberal,yes,m,0,1.28351518147,-3,5
2019_Nov_08,33,001,0,recog,7,GIRLS,HF,lure,-,-,-,liberal,no,m,1,4.1667321667,1,6
2019_Nov_08,33,001,0,recog,8,ANAEMIC,LF,target,left,aqua,pleasantness,conservative,yes,m,0,1.26688966006,-1,5
2019_Nov_08,33,001,0,recog,9,EMPATHY,LF,lure,-,-,-,liberal,no,m,1,1.76689992499,1,6
2019_Nov_08,33,001,0,recog,10,ATROCITY,LF,target,right,yellow,imageability,liberal,no,z,1,1.03342151397,3,9
2019_Nov_08,33,001,0,recog,11,SIMILAR,HF,lure,-,-,-,liberal,no,z,0,0.750286134939,-1,8
2019_Nov_08,33,001,0,recog,12,ETHER,LF,lure,-,-,-,conservative,no,z,0,1.11688383105,-3,5
2019_Nov_08,33,001,0,recog,13,EFFECT,HF,lure,-,-,-,conservative,no,z,0,2.50015800661,-3,2
2019_Nov_08,33,001,0,recog,14,SOYBEAN,LF,target,right,yellow,imageability,conservative,no,z,1,2.88347140887,1,3
2019_Nov_08,33,001,0,recog,15,STRAIGHT,HF,lure,-,-,-,liberal,no,m,1,2.40022084265,1,4
2019_Nov_08,33,001,0,recog,16,CEMENTED,LF,target,right,yellow,imageability,liberal,no,z,1,1.01691733871,3,7
2019_Nov_08,33,001,0,recog,17,LEVEL,HF,target,left,aqua,pleasantness,liberal,no,z,1,0.800049051704,3,10
2019_Nov_08,33,001,0,recog,18,TUFTS,LF,lure,-,-,-,liberal,no,m,1,1.33358421312,1,11
2019_Nov_08,33,001,0,recog,19,DARKEN,LF,target,left,aqua,pleasantness,liberal,no,z,1,0.966917595337,3,14
2019_Nov_08,33,001,0,recog,20,AEGIS,LF,lure,-,-,-,liberal,no,m,1,1.73348830934,1,15
2019_Nov_08,33,001,0,recog,21,FLOOR,HF,lure,-,-,-,conservative,no,m,1,0.833563683262,3,18
2019_Nov_08,33,001,0,recog,22,USING,HF,target,left,aqua,pleasantness,liberal,no,z,1,2.08330247744,3,21
2019_Nov_08,33,001,0,recog,23,MORNING,HF,lure,-,-,-,liberal,no,m,1,1.56697903828,1,22
2019_Nov_08,33,001,0,recog,24,ARMAMENT,LF,lure,-,-,-,liberal,no,z,0,1.25022601177,-1,21
2019_Nov_08,33,001,0,recog,25,WRITE,HF,lure,-,-,-,conservative,no,m,1,2.55019404385,3,24
2019_Nov_08,33,001,0,recog,26,NATIONAL,HF,lure,-,-,-,liberal,no,m,1,4.29999992668,1,25
2019_Nov_08,33,001,0,recog,27,LEMURS,LF,target,left,aqua,pleasantness,conservative,no,z,1,1.70014084951,1,26
2019_Nov_08,33,001,0,recog,28,ALMOST,HF,target,right,yellow,imageability,conservative,no,z,1,1.10027920611,1,27
2019_Nov_08,33,001,0,recog,29,SECOND,HF,target,left,aqua,pleasantness,liberal,no,z,1,0.633618600641,3,30
2019_Nov_08,33,001,0,recog,30,LOOKED,HF,target,right,yellow,imageability,liberal,no,z,1,0.650045055713,3,33
2019_Nov_08,33,001,0,recog,31,CUPID,LF,lure,-,-,-,conservative,no,m,1,2.05024280227,3,36
2019_Nov_08,33,001,0,recog,32,KERNEL,LF,target,right,yellow,imageability,conservative,yes,m,0,1.70010235602,-1,35
2019_Nov_08,33,001,0,recog,33,EITHER,HF,target,right,yellow,imageability,conservative,no,z,1,5.33337488186,1,36
2019_Nov_08,33,001,0,recog,34,LOITERING,LF,target,right,yellow,imageability,conservative,no,z,1,1.45017329402,1,37
2019_Nov_08,33,001,0,recog,35,AREAS,HF,target,left,aqua,pleasantness,liberal,no,z,1,3.66675966205,3,40
2019_Nov_08,33,001,0,recog,36,DEJECTED,LF,lure,-,-,-,conservative,no,z,0,2.95014103281,-3,37
2019_Nov_08,33,001,0,recog,37,BEAUTIFUL,HF,lure,-,-,-,conservative,no,m,1,1.31692276446,3,40
2019_Nov_08,33,001,0,recog,38,FIANCE,LF,target,left,aqua,pleasantness,liberal,no,z,1,1.20022773482,3,43
2019_Nov_08,33,001,0,recog,39,WITHIN,HF,target,left,aqua,pleasantness,liberal,no,z,1,1.78352471319,3,46
2019_Nov_08,33,001,0,recog,40,EVIDENCE,HF,lure,-,-,-,conservative,no,z,0,1.71691007994,-3,43
2019_Nov_08,33,001,0,recog,41,FINAL,HF,lure,-,-,-,liberal,no,m,1,1.23351433827,1,44
2019_Nov_08,33,001,0,recog,42,ALLOWED,HF,target,right,yellow,imageability,liberal,no,z,1,0.916928116891,3,47
2019_Nov_08,33,001,0,recog,43,NOMAD,LF,lure,-,-,-,conservative,no,m,1,1.90019994618,3,50
2019_Nov_08,33,001,0,recog,44,DOSSIERS,LF,lure,-,-,-,liberal,yes,z,0,1.13366625925,-1,49
2019_Nov_08,33,001,0,recog,45,SYSTEM,HF,lure,-,-,-,conservative,no,m,1,1.68332469368,3,52
2019_Nov_08,33,001,0,recog,46,QUESTION,HF,target,right,yellow,imageability,liberal,no,z,1,0.933587365924,3,55
2019_Nov_08,33,001,0,recog,47,INSIDE,HF,lure,-,-,-,conservative,no,z,0,1.63327802491,-3,52
2019_Nov_08,33,001,0,recog,48,SIZZLING,LF,target,left,aqua,pleasantness,conservative,no,z,1,1.03335515853,1,53
2019_Nov_08,33,001,0,recog,49,SUAVE,LF,target,right,yellow,imageability,liberal,no,m,0,2.71682172822,-3,50
2019_Nov_08,33,001,0,recog,50,CITES,LF,target,right,yellow,imageability,conservative,no,z,1,1.26689112648,1,51
2019_Nov_08,33,001,0,recog,51,CLEAR,HF,target,right,yellow,imageability,liberal,no,z,1,1.35021926625,3,54
2019_Nov_08,33,001,0,recog,52,WARDROBES,LF,lure,-,-,-,conservative,no,m,1,1.33353362168,3,57
2019_Nov_08,33,001,0,recog,53,AIRBED,LF,lure,-,-,-,conservative,no,z,0,1.58348541317,-3,54
2019_Nov_08,33,001,0,recog,54,OUTSIDE,HF,lure,-,-,-,conservative,no,m,1,1.86685688561,3,57
2019_Nov_08,33,001,0,recog,55,MIMICKED,LF,target,left,aqua,pleasantness,liberal,no,z,1,0.966660972074,3,60
2019_Nov_08,33,001,0,recog,56,DODGED,LF,lure,-,-,-,liberal,no,m,1,1.26689552574,1,61
2019_Nov_08,33,001,0,recog,57,HOURS,HF,target,right,yellow,imageability,liberal,no,z,1,0.850235763458,3,64
2019_Nov_08,33,001,0,recog,58,PUFFS,LF,target,left,aqua,pleasantness,liberal,no,z,1,1.05023876962,3,67
2019_Nov_08,33,001,0,recog,59,BECAME,HF,target,right,yellow,imageability,conservative,no,z,1,1.08352867252,1,68
2019_Nov_08,33,001,0,recog,60,ROCKER,LF,target,left,aqua,pleasantness,conservative,no,z,1,1.0002280281,1,69
2019_Nov_08,33,001,0,recog,61,FEUDALISM,LF,lure,-,-,-,liberal,no,m,1,1.28359033542,1,70
2019_Nov_08,33,001,0,recog,62,DIOCESE,LF,lure,-,-,-,conservative,no,m,1,2.20017677677,3,73
2019_Nov_08,33,001,0,recog,63,JABBED,LF,lure,-,-,-,conservative,no,m,1,1.0337301951,3,76
2019_Nov_08,33,001,0,recog,64,SPACE,HF,target,right,yellow,imageability,liberal,no,z,1,1.86665012058,3,79
2019_Nov_08,33,001,0,recog,65,RANGE,HF,target,left,aqua,pleasantness,conservative,no,z,1,1.15024155581,1,80
2019_Nov_08,33,001,0,recog,66,GIVEN,HF,target,left,aqua,pleasantness,conservative,no,z,1,1.03359601779,1,81
2019_Nov_08,33,001,0,recog,67,RAPACIOUS,LF,lure,-,-,-,conservative,no,m,1,1.11689299616,3,84
2019_Nov_08,33,001,0,recog,68,YEOMAN,LF,target,left,aqua,pleasantness,liberal,no,z,1,0.933614494669,3,87
2019_Nov_08,33,001,0,recog,69,MAYBE,HF,target,right,yellow,imageability,conservative,no,z,1,3.11681930863,1,88
2019_Nov_08,33,001,0,recog,70,VORACIOUS,LF,lure,-,-,-,conservative,no,m,1,1.21692584394,3,91
2019_Nov_08,33,001,0,recog,71,PROBABLY,HF,target,left,aqua,pleasantness,conservative,no,z,1,1.10023594676,1,92
2019_Nov_08,33,001,0,recog,72,AMEND,LF,target,right,yellow,imageability,liberal,no,z,1,0.966908063616,3,95
2019_Nov_08,33,001,0,recog,73,ACCORDING,HF,lure,-,-,-,conservative,no,m,1,1.40001847687,3,98
2019_Nov_08,33,001,0,recog,74,MITIGATE,LF,target,left,aqua,pleasantness,conservative,no,z,1,1.2002343337,1,99
2019_Nov_08,33,001,0,recog,75,MATERIAL,HF,lure,-,-,-,liberal,no,m,1,1.38355719436,1,100
2019_Nov_08,33,001,0,recog,76,IMPORTANT,HF,target,left,aqua,pleasantness,liberal,no,z,1,2.76682330462,3,103
2019_Nov_08,33,001,0,recog,77,MOMENT,HF,lure,-,-,-,conservative,no,m,1,3.66679632252,3,106
2019_Nov_08,33,001,0,recog,78,ITSELF,HF,lure,-,-,-,liberal,no,m,1,1.03356448979,1,107
2019_Nov_08,33,001,0,recog,79,IDYLL,LF,target,right,yellow,imageability,liberal,no,z,1,0.883545829615,3,110
2019_Nov_08,33,001,0,recog,80,PARENTS,HF,target,left,aqua,pleasantness,conservative,no,z,1,0.733633118185,1,111
2019_Nov_08,33,001,0,recog,81,GYPSIES,LF,target,right,yellow,imageability,conservative,no,z,1,0.95029647319,1,112
2019_Nov_08,33,001,0,recog,82,SWOOPING,LF,target,right,yellow,imageability,conservative,no,z,1,0.733594258091,1,113
2019_Nov_08,33,001,0,recog,83,KOSHER,LF,lure,-,-,-,liberal,no,m,1,0.933356771591,1,114
2019_Nov_08,33,001,0,recog,84,ALREADY,HF,target,left,aqua,pleasantness,conservative,no,z,1,0.783621496817,1,115
2019_Nov_08,33,001,0,recog,85,PAVILIONS,LF,lure,-,-,-,liberal,no,z,0,2.95014249923,-1,114
2019_Nov_08,33,001,0,recog,86,ENTIRELY,HF,target,right,yellow,imageability,conservative,no,z,1,2.08351547475,1,115
2019_Nov_08,33,001,0,recog,87,SLOWLY,HF,target,right,yellow,imageability,conservative,no,z,1,0.666978525032,1,116
2019_Nov_08,33,001,0,recog,88,SEDAN,LF,target,left,aqua,pleasantness,conservative,no,z,1,0.766984244065,1,117
2019_Nov_08,33,001,0,recog,89,NECESSARY,HF,lure,-,-,-,liberal,no,m,1,2.21684702394,1,118
2019_Nov_08,33,001,0,recog,90,VERBALLY,LF,lure,-,-,-,liberal,no,m,1,1.48357537795,1,119
2019_Nov_08,33,001,0,recog,91,UNLESS,HF,lure,-,-,-,liberal,no,m,1,1.66687074326,1,120
2019_Nov_08,33,001,0,recog,92,GORGED,LF,lure,-,-,-,conservative,no,z,0,0.850294786808,-3,117
2019_Nov_08,33,001,0,recog,93,FIVER,LF,target,left,aqua,pleasantness,liberal,no,z,1,1.20011372077,3,120
2019_Nov_08,33,001,0,recog,94,LARGE,HF,lure,-,-,-,liberal,no,m,1,1.00027018764,1,121
2019_Nov_08,33,001,0,recog,95,EXPECT,HF,lure,-,-,-,conservative,no,z,0,1.1500043626,-3,118
2019_Nov_08,33,001,1,source,0,NAUGHT,LF,target,right,yellow,imageability,liberal,no,9,1,4.299820657,-,-
2019_Nov_08,33,001,1,source,1,LASER,LF,target,left,aqua,pleasantness,liberal,no,1,1,0.933582600063,-,-
2019_Nov_08,33,001,1,source,2,SAGES,LF,target,left,aqua,pleasantness,liberal,no,1,1,0.816706834317,-,-
2019_Nov_08,33,001,1,source,3,FIELD,HF,target,right,yellow,imageability,conservative,no,9,1,0.900280232603,-,-
2019_Nov_08,33,001,1,source,4,AHEAD,HF,target,right,yellow,imageability,conservative,no,9,1,2.78327138937,-,-
2019_Nov_08,33,001,1,source,5,SHALL,HF,target,right,yellow,imageability,liberal,no,9,1,0.666735832746,-,-
2019_Nov_08,33,001,1,source,6,NEMESIS,LF,target,right,yellow,imageability,liberal,no,9,1,0.80024775143,-,-
2019_Nov_08,33,001,1,source,7,DEXTERITY,LF,target,right,yellow,imageability,liberal,no,9,1,0.8002532505,-,-
2019_Nov_08,33,001,1,source,8,PAPER,HF,target,right,yellow,imageability,liberal,no,9,1,1.56683862869,-,-
2019_Nov_08,33,001,1,source,9,LENGTHEN,LF,target,left,aqua,pleasantness,conservative,no,9,0,2.08354260349,-,-
2019_Nov_08,33,001,1,source,10,WHITE,HF,target,right,yellow,imageability,liberal,no,9,1,0.650266118324,-,-
2019_Nov_08,33,001,1,source,11,BIRCHES,LF,target,right,yellow,imageability,liberal,no,9,1,1.11690472751,-,-
2019_Nov_08,33,001,1,source,12,MOUTH,HF,target,left,aqua,pleasantness,conservative,no,9,0,1.08361959047,-,-
2019_Nov_08,33,001,1,source,13,REACHED,HF,target,left,aqua,pleasantness,conservative,yes,9,0,1.13356654278,-,-
2019_Nov_08,33,001,1,source,14,PUBLIC,HF,target,left,aqua,pleasantness,conservative,no,9,0,0.916919684984,-,-
2019_Nov_08,33,001,1,source,15,BORAX,LF,target,left,aqua,pleasantness,conservative,no,1,1,2.60024584509,-,-
2019_Nov_08,33,001,1,source,16,HOWEVER,HF,target,right,yellow,imageability,liberal,no,1,0,3.65012900818,-,-
2019_Nov_08,33,001,1,source,17,TRADE,HF,target,left,aqua,pleasantness,liberal,no,1,1,1.4669142959,-,-
2019_Nov_08,33,001,1,source,18,TANGIER,LF,target,left,aqua,pleasantness,liberal,no,1,1,0.916965510567,-,-
2019_Nov_08,33,001,1,source,19,GEARING,LF,target,right,yellow,imageability,conservative,no,1,0,0.633388006308,-,-
2019_Nov_08,33,001,1,source,20,NEEDED,HF,target,left,aqua,pleasantness,liberal,no,1,1,1.00024085926,-,-
2019_Nov_08,33,001,1,source,21,WISPY,LF,target,left,aqua,pleasantness,liberal,no,9,0,1.65021845972,-,-
2019_Nov_08,33,001,1,source,22,ABATED,LF,target,right,yellow,imageability,liberal,yes,1,0,0.683622743273,-,-
2019_Nov_08,33,001,1,source,23,FOLLOWED,HF,target,left,aqua,pleasantness,conservative,no,2,1,2.43349571476,-,-
2019_Nov_08,33,001,1,source,24,FECKLESS,LF,target,left,aqua,pleasantness,conservative,no,1,1,2.91679100675,-,-
2019_Nov_08,33,001,1,source,25,CASES,HF,target,left,aqua,pleasantness,liberal,no,1,1,0.883317434911,-,-
2019_Nov_08,33,001,1,source,26,FERRET,LF,target,left,aqua,pleasantness,conservative,no,1,1,0.750289067776,-,-
2019_Nov_08,33,001,1,source,27,REVERE,LF,target,right,yellow,imageability,conservative,no,1,0,0.65022102595,-,-
2019_Nov_08,33,001,1,source,28,BUTCHERED,LF,target,right,yellow,imageability,conservative,yes,9,1,0.766932552807,-,-
2019_Nov_08,33,001,1,source,29,ARRIVED,HF,target,left,aqua,pleasantness,liberal,yes,9,0,0.383594588036,-,-
2019_Nov_08,33,001,1,source,30,BOOKS,HF,target,left,aqua,pleasantness,liberal,no,9,0,1.1668898067,-,-
2019_Nov_08,33,001,1,source,31,BLOOD,HF,target,right,yellow,imageability,liberal,no,1,0,0.850251894063,-,-
2019_Nov_08,33,001,1,source,32,CERTAIN,HF,target,right,yellow,imageability,conservative,no,2,0,1.81690736707,-,-
2019_Nov_08,33,001,1,source,33,BRACES,LF,target,left,aqua,pleasantness,conservative,no,1,1,1.38333173249,-,-
2019_Nov_08,33,001,1,source,34,FRONT,HF,target,left,aqua,pleasantness,conservative,no,9,0,2.35012358243,-,-
2019_Nov_08,33,001,1,source,35,SLEEP,HF,target,right,yellow,imageability,conservative,no,9,1,0.650272350603,-,-
2019_Nov_08,33,001,1,source,36,SLIGHTLY,HF,target,left,aqua,pleasantness,liberal,no,9,0,1.033360291,-,-
2019_Nov_08,33,001,1,source,37,CAUGHT,HF,target,left,aqua,pleasantness,conservative,no,9,0,0.933602763319,-,-
2019_Nov_08,33,001,1,source,38,NEBULOUS,LF,target,right,yellow,imageability,conservative,no,9,1,1.48351488818,-,-
2019_Nov_08,33,001,1,source,39,JAUNDICE,LF,target,left,aqua,pleasantness,liberal,no,9,0,1.18335255564,-,-
2019_Nov_08,33,001,1,source,40,REQUIRED,HF,target,right,yellow,imageability,conservative,no,9,1,1.00028815126,-,-
2019_Nov_08,33,001,1,source,41,YACHTING,LF,target,left,aqua,pleasantness,conservative,no,1,1,0.766918988435,-,-
2019_Nov_08,33,001,1,source,42,ENAMELLED,LF,target,left,aqua,pleasantness,liberal,no,1,1,0.700232134072,-,-
2019_Nov_08,33,001,1,source,43,SKYLIGHT,LF,target,right,yellow,imageability,conservative,no,1,0,0.683617244203,-,-
2019_Nov_08,33,001,1,source,44,SUBJECT,HF,target,right,yellow,imageability,conservative,no,9,1,0.583384596885,-,-
2019_Nov_08,33,001,1,source,45,MEANS,HF,target,right,yellow,imageability,liberal,no,9,1,1.03335699155,-,-
2019_Nov_08,33,001,1,source,46,ALABASTER,LF,target,right,yellow,imageability,liberal,no,9,1,0.750267804705,-,-
2019_Nov_08,33,001,1,source,47,DICHOTOMY,LF,target,right,yellow,imageability,conservative,no,9,1,0.833580547077,-,-
2019_Nov_08,33,001,1,recog,0,ABATED,LF,target,right,yellow,imageability,liberal,no,m,0,1.98348775944,-3,115
2019_Nov_08,33,001,1,recog,1,AVIDLY,LF,lure,-,-,-,liberal,no,m,1,1.20023103426,1,116
2019_Nov_08,33,001,1,recog,2,AFOOT,LF,lure,-,-,-,conservative,no,m,1,1.6833257935,3,119
2019_Nov_08,33,001,1,recog,3,MAVIS,LF,lure,-,-,-,conservative,no,m,1,0.950225351886,3,122
2019_Nov_08,33,001,1,recog,4,HOWEVER,HF,target,right,yellow,imageability,liberal,no,z,1,3.76680717401,3,125
2019_Nov_08,33,001,1,recog,5,DIVAN,LF,lure,-,-,-,liberal,no,m,1,1.2168675538,1,126
2019_Nov_08,33,001,1,recog,6,DEXTERITY,LF,target,right,yellow,imageability,liberal,no,z,1,1.416842698,3,129
2019_Nov_08,33,001,1,recog,7,MOUTH,HF,target,left,aqua,pleasantness,conservative,no,z,1,2.86681509267,1,130
2019_Nov_08,33,001,1,recog,8,NAUGHT,LF,target,right,yellow,imageability,liberal,no,z,1,0.850286354901,3,133
2019_Nov_08,33,001,1,recog,9,WHITE,HF,target,right,yellow,imageability,liberal,no,z,1,0.566922581161,3,136
2019_Nov_08,33,001,1,recog,10,WHOLE,HF,lure,-,-,-,conservative,no,m,1,0.983574278137,3,139
2019_Nov_08,33,001,1,recog,11,REACHED,HF,target,left,aqua,pleasantness,conservative,yes,m,0,0.75031143066,-1,138
2019_Nov_08,33,001,1,recog,12,LANGUAGE,HF,lure,-,-,-,liberal,no,m,1,2.96680211487,1,139
2019_Nov_08,33,001,1,recog,13,SLEEP,HF,target,right,yellow,imageability,conservative,no,m,0,0.766953082669,-1,138
2019_Nov_08,33,001,1,recog,14,AFRAID,HF,lure,-,-,-,conservative,no,m,1,1.35012468225,3,141
2019_Nov_08,33,001,1,recog,15,WISPY,LF,target,left,aqua,pleasantness,liberal,no,z,1,0.983611305208,3,144
2019_Nov_08,33,001,1,recog,16,NEEDED,HF,target,left,aqua,pleasantness,liberal,no,z,1,0.65025402037,3,147
2019_Nov_08,33,001,1,recog,17,ENAMELLED,LF,target,left,aqua,pleasantness,liberal,no,z,1,0.633655627712,3,150
2019_Nov_08,33,001,1,recog,18,DOING,HF,lure,-,-,-,conservative,no,m,1,1.08354993559,3,153
2019_Nov_08,33,001,1,recog,19,SUBJECT,HF,target,right,yellow,imageability,conservative,no,m,0,2.6668502134,-1,152
2019_Nov_08,33,001,1,recog,20,ALABASTER,LF,target,right,yellow,imageability,liberal,no,z,1,1.35021816643,3,155
2019_Nov_08,33,001,1,recog,21,BLOOD,HF,target,right,yellow,imageability,liberal,no,m,0,2.00018733498,-3,152
2019_Nov_08,33,001,1,recog,22,TANGIER,LF,target,left,aqua,pleasantness,liberal,no,z,1,0.916930683124,3,155
2019_Nov_08,33,001,1,recog,23,OPULENCE,LF,lure,-,-,-,liberal,no,m,1,1.41699887159,1,156
2019_Nov_08,33,001,1,recog,24,TOWARDS,HF,lure,-,-,-,conservative,no,z,0,1.33343793786,-3,153
2019_Nov_08,33,001,1,recog,25,BORAX,LF,target,left,aqua,pleasantness,conservative,no,z,1,0.866890979839,1,154
2019_Nov_08,33,001,1,recog,26,AHEAD,HF,target,right,yellow,imageability,conservative,no,z,1,1.33350429331,1,155
2019_Nov_08,33,001,1,recog,27,SPEAK,HF,lure,-,-,-,liberal,no,m,1,1.3503098176,1,156
2019_Nov_08,33,001,1,recog,28,POINT,HF,lure,-,-,-,liberal,no,m,1,0.883640047013,1,157
2019_Nov_08,33,001,1,recog,29,DICHOTOMY,LF,target,right,yellow,imageability,conservative,no,z,1,1.10013256425,1,158
2019_Nov_08,33,001,1,recog,30,PIRACY,LF,lure,-,-,-,conservative,no,m,1,1.10024474527,3,161
2019_Nov_08,33,001,1,recog,31,ARRIVED,HF,target,left,aqua,pleasantness,liberal,no,z,1,1.20030435519,3,164
2019_Nov_08,33,001,1,recog,32,ENOUGH,HF,lure,-,-,-,liberal,no,z,0,1.30023858631,-1,163
2019_Nov_08,33,001,1,recog,33,FERRET,LF,target,left,aqua,pleasantness,conservative,no,z,1,1.0002676214,1,164
2019_Nov_08,33,001,1,recog,34,OFFER,HF,lure,-,-,-,liberal,yes,z,0,2.25012702852,-1,163
2019_Nov_08,33,001,1,recog,35,ARCADES,LF,lure,-,-,-,liberal,no,m,1,1.4835874759,1,164
2019_Nov_08,33,001,1,recog,36,THING,HF,lure,-,-,-,conservative,no,z,0,2.54995135156,-3,161
2019_Nov_08,33,001,1,recog,37,AILMENT,LF,lure,-,-,-,liberal,no,m,1,1.50000183302,1,162
2019_Nov_08,33,001,1,recog,38,REWRITE,LF,lure,-,-,-,conservative,no,m,1,1.16690593731,3,165
2019_Nov_08,33,001,1,recog,39,KICKER,LF,lure,-,-,-,liberal,no,m,1,1.53359308496,1,166
2019_Nov_08,33,001,1,recog,40,NEGATION,LF,lure,-,-,-,liberal,no,m,1,0.950192357466,1,167
2019_Nov_08,33,001,1,recog,41,LASER,LF,target,left,aqua,pleasantness,liberal,no,z,1,0.833533988285,3,170
2019_Nov_08,33,001,1,recog,42,MOVED,HF,lure,-,-,-,conservative,no,z,0,0.950240749281,-3,167
2019_Nov_08,33,001,1,recog,43,WEEKS,HF,lure,-,-,-,conservative,no,m,1,0.866911876305,3,170
2019_Nov_08,33,001,1,recog,44,OLDER,HF,lure,-,-,-,liberal,no,z,0,0.900252004044,-1,169
2019_Nov_08,33,001,1,recog,45,CASES,HF,target,left,aqua,pleasantness,liberal,no,z,1,1.8002140238,3,172
2019_Nov_08,33,001,1,recog,46,GEARING,LF,target,right,yellow,imageability,conservative,no,z,1,1.15023862297,1,173
2019_Nov_08,33,001,1,recog,47,JAUNDICE,LF,target,left,aqua,pleasantness,liberal,no,z,1,2.66682235145,3,176
2019_Nov_08,33,001,1,recog,48,YACHTING,LF,target,left,aqua,pleasantness,conservative,no,z,1,0.900284998464,1,177
2019_Nov_08,33,001,1,recog,49,SAGES,LF,target,left,aqua,pleasantness,liberal,no,z,1,0.683381150801,3,180
2019_Nov_08,33,001,1,recog,50,FIELD,HF,target,right,yellow,imageability,conservative,no,z,1,0.683315895172,1,181
2019_Nov_08,33,001,1,recog,51,ELLIPSE,LF,lure,-,-,-,liberal,no,m,1,1.03360811575,1,182
2019_Nov_08,33,001,1,recog,52,MOCCASINS,LF,lure,-,-,-,liberal,no,m,1,1.01686638067,1,183
2019_Nov_08,33,001,1,recog,53,FOLLOWED,HF,target,left,aqua,pleasantness,conservative,no,z,1,0.916906487216,1,184
2019_Nov_08,33,001,1,recog,54,BUTCHERED,LF,target,right,yellow,imageability,conservative,no,z,1,1.5169631643,1,185
2019_Nov_08,33,001,1,recog,55,REQUIRED,HF,target,right,yellow,imageability,conservative,no,z,1,0.833367916373,1,186
2019_Nov_08,33,001,1,recog,56,CHIEF,HF,lure,-,-,-,liberal,no,m,1,0.883614751292,1,187
2019_Nov_08,33,001,1,recog,57,MALIGNED,LF,lure,-,-,-,liberal,no,z,0,0.966902564546,-1,186
2019_Nov_08,33,001,1,recog,58,FRONT,HF,target,left,aqua,pleasantness,conservative,no,z,1,1.23356273009,1,187
2019_Nov_08,33,001,1,recog,59,NEBULOUS,LF,target,right,yellow,imageability,conservative,no,z,1,0.983576477765,1,188
2019_Nov_08,33,001,1,recog,60,BIRCHES,LF,target,right,yellow,imageability,liberal,no,z,1,1.18356408653,3,191
2019_Nov_08,33,001,1,recog,61,WEDGES,LF,lure,-,-,-,conservative,no,m,1,1.78357787086,3,194
2019_Nov_08,33,001,1,recog,62,BOOKS,HF,target,left,aqua,pleasantness,liberal,no,z,1,0.716845924126,3,197
2019_Nov_08,33,001,1,recog,63,SUCCESS,HF,lure,-,-,-,liberal,no,m,1,1.31688793702,1,198
2019_Nov_08,33,001,1,recog,64,FECKLESS,LF,target,left,aqua,pleasantness,conservative,no,z,1,1.01686014839,1,199
2019_Nov_08,33,001,1,recog,65,DRINK,HF,lure,-,-,-,liberal,no,m,1,1.11695018649,1,200
2019_Nov_08,33,001,1,recog,66,DWINDLE,LF,lure,-,-,-,conservative,no,m,1,2.85016720839,3,203
2019_Nov_08,33,001,1,recog,67,UNWARY,LF,lure,-,-,-,conservative,no,m,1,0.900204345438,3,206
2019_Nov_08,33,001,1,recog,68,DRUDGERY,LF,lure,-,-,-,conservative,no,m,1,1.01694300104,3,209
2019_Nov_08,33,001,1,recog,69,BRING,HF,lure,-,-,-,conservative,no,m,1,1.03360151686,3,212
2019_Nov_08,33,001,1,recog,70,BRACES,LF,target,left,aqua,pleasantness,conservative,no,z,1,1.50021556354,1,213
2019_Nov_08,33,001,1,recog,71,NEMESIS,LF,target,right,yellow,imageability,liberal,no,z,1,0.966935558966,3,216
2019_Nov_08,33,001,1,recog,72,SHALL,HF,target,right,yellow,imageability,liberal,no,z,1,0.700046632113,3,219
2019_Nov_08,33,001,1,recog,73,CERTAIN,HF,target,right,yellow,imageability,conservative,no,z,1,0.833577247635,1,220
2019_Nov_08,33,001,1,recog,74,REIGNING,LF,lure,-,-,-,conservative,yes,m,1,1.38353959734,3,223
2019_Nov_08,33,001,1,recog,75,PUBLIC,HF,target,left,aqua,pleasantness,conservative,no,z,1,2.88355682776,1,224
2019_Nov_08,33,001,1,recog,76,REVERE,LF,target,right,yellow,imageability,conservative,no,m,0,1.25024690824,-1,223
2019_Nov_08,33,001,1,recog,77,RESEARCH,HF,lure,-,-,-,liberal,yes,z,0,1.01699102625,-1,222
2019_Nov_08,33,001,1,recog,78,KIPPERS,LF,lure,-,-,-,liberal,no,z,0,3.04986923212,-1,221
2019_Nov_08,33,001,1,recog,79,PLACE,HF,lure,-,-,-,conservative,no,z,0,1.09997859029,-3,218
2019_Nov_08,33,001,1,recog,80,PAPER,HF,target,right,yellow,imageability,liberal,no,z,1,1.06668685436,3,221
2019_Nov_08,33,001,1,recog,81,CAUGHT,HF,target,left,aqua,pleasantness,conservative,no,m,0,1.01689497583,-1,220
2019_Nov_08,33,001,1,recog,82,SLIGHTLY,HF,target,left,aqua,pleasantness,liberal,no,z,1,0.933576734388,3,223
2019_Nov_08,33,001,1,recog,83,FIGURE,HF,lure,-,-,-,liberal,no,z,0,3.10008123959,-1,222
2019_Nov_08,33,001,1,recog,84,WANTED,HF,lure,-,-,-,liberal,no,m,1,0.650261352463,1,223
2019_Nov_08,33,001,1,recog,85,OUGHT,HF,lure,-,-,-,conservative,no,m,1,1.40025713651,3,226
2019_Nov_08,33,001,1,recog,86,LIFEBOAT,LF,lure,-,-,-,conservative,no,m,1,0.766958215134,3,229
2019_Nov_08,33,001,1,recog,87,LENGTHEN,LF,target,left,aqua,pleasantness,conservative,no,m,0,0.633593671524,-1,228
2019_Nov_08,33,001,1,recog,88,HIGHER,HF,lure,-,-,-,conservative,no,m,1,1.60023008109,3,231
2019_Nov_08,33,001,1,recog,89,SKYLIGHT,LF,target,right,yellow,imageability,conservative,no,z,1,0.800257283151,1,232
2019_Nov_08,33,001,1,recog,90,VARIOUS,HF,lure,-,-,-,conservative,no,m,1,1.48355008223,3,235
2019_Nov_08,33,001,1,recog,91,BEREAVED,LF,lure,-,-,-,conservative,no,m,1,1.86691444254,3,238
2019_Nov_08,33,001,1,recog,92,TRADE,HF,target,left,aqua,pleasantness,liberal,no,z,1,0.966918695151,3,241
2019_Nov_08,33,001,1,recog,93,FRUGAL,LF,lure,-,-,-,liberal,no,z,0,1.25022454536,-1,240
2019_Nov_08,33,001,1,recog,94,MEANS,HF,target,right,yellow,imageability,liberal,no,z,1,0.950251380817,3,243
2019_Nov_08,33,001,1,recog,95,SAINTLY,LF,lure,-,-,-,conservative,no,m,1,1.33350722614,3,246
2019_Nov_08,33,001,2,source,0,GIPSY,LF,target,left,aqua,pleasantness,conservative,no,1,1,2.11682370788,-,-
2019_Nov_08,33,001,2,source,1,DONATE,LF,target,left,aqua,pleasantness,conservative,no,1,1,1.36695403584,-,-
2019_Nov_08,33,001,2,source,2,THANK,HF,target,left,aqua,pleasantness,conservative,no,1,1,1.03353406161,-,-
2019_Nov_08,33,001,2,source,3,AROUND,HF,target,left,aqua,pleasantness,conservative,no,1,1,1.15001975999,-,-
2019_Nov_08,33,001,2,source,4,WAITING,HF,target,left,aqua,pleasantness,liberal,no,2,1,2.18357985053,-,-
2019_Nov_08,33,001,2,source,5,LIVED,HF,target,left,aqua,pleasantness,conservative,no,1,1,2.71684005845,-,-
2019_Nov_08,33,001,2,source,6,LABOUR,HF,target,right,yellow,imageability,liberal,no,9,1,1.58356973224,-,-
2019_Nov_08,33,001,2,source,7,HERSELF,HF,target,right,yellow,imageability,liberal,no,9,1,1.08347771447,-,-
2019_Nov_08,33,001,2,source,8,NIPPED,LF,target,left,aqua,pleasantness,liberal,no,9,0,0.78359180184,-,-
2019_Nov_08,33,001,2,source,9,DUELLING,LF,target,left,aqua,pleasantness,conservative,no,8,0,2.4666155131,-,-
2019_Nov_08,33,001,2,source,10,COBALT,LF,target,right,yellow,imageability,conservative,no,9,1,1.11693185626,-,-
2019_Nov_08,33,001,2,source,11,UNKEMPT,LF,target,left,aqua,pleasantness,liberal,no,8,0,0.916907953635,-,-
2019_Nov_08,33,001,2,source,12,IRONICAL,LF,target,right,yellow,imageability,conservative,no,1,0,2.06684596079,-,-
2019_Nov_08,33,001,2,source,13,BUILDING,HF,target,right,yellow,imageability,liberal,no,9,1,0.916930316519,-,-
2019_Nov_08,33,001,2,source,14,MILES,HF,target,right,yellow,imageability,liberal,no,9,1,2.74994592581,-,-
2019_Nov_08,33,001,2,source,15,QUALITY,HF,target,left,aqua,pleasantness,liberal,no,9,0,0.83359887731,-,-
2019_Nov_08,33,001,2,source,16,WETTER,LF,target,right,yellow,imageability,liberal,no,9,1,0.916667460977,-,-
2019_Nov_08,33,001,2,source,17,WALKED,HF,target,left,aqua,pleasantness,liberal,yes,9,0,0.766917522017,-,-
2019_Nov_08,33,001,2,source,18,MAPPED,LF,target,left,aqua,pleasantness,liberal,yes,9,0,0.350281589041,-,-
2019_Nov_08,33,001,2,source,19,INUNDATED,LF,target,left,aqua,pleasantness,conservative,no,3,1,1.46688826696,-,-
2019_Nov_08,33,001,2,source,20,BOILERS,LF,target,right,yellow,imageability,liberal,no,3,0,1.20027905947,-,-
2019_Nov_08,33,001,2,source,21,HUDDLE,LF,target,right,yellow,imageability,conservative,no,1,0,1.68358828244,-,-
2019_Nov_08,33,001,2,source,22,ANSWER,HF,target,left,aqua,pleasantness,conservative,no,1,1,0.616925257375,-,-
2019_Nov_08,33,001,2,source,23,CHAIR,HF,target,right,yellow,imageability,conservative,no,1,0,0.600223848806,-,-
2019_Nov_08,33,001,2,source,24,UNION,HF,target,right,yellow,imageability,conservative,no,1,0,0.416954512427,-,-
2019_Nov_08,33,001,2,source,25,USELESSLY,LF,target,right,yellow,imageability,conservative,no,1,0,1.23356053046,-,-
2019_Nov_08,33,001,2,source,26,ASKED,HF,target,right,yellow,imageability,conservative,no,1,0,0.633634364641,-,-
2019_Nov_08,33,001,2,source,27,FREEDOM,HF,target,right,yellow,imageability,liberal,yes,9,1,0.900275100138,-,-
2019_Nov_08,33,001,2,source,28,ROOFED,LF,target,left,aqua,pleasantness,liberal,no,9,0,0.266952716064,-,-
2019_Nov_08,33,001,2,source,29,VALUE,HF,target,right,yellow,imageability,liberal,no,1,0,0.383610352036,-,-
2019_Nov_08,33,001,2,source,30,NORTH,HF,target,right,yellow,imageability,conservative,no,9,1,0.96693592557,-,-
2019_Nov_08,33,001,2,source,31,FASCINATE,LF,target,right,yellow,imageability,liberal,no,1,0,1.11690656054,-,-
2019_Nov_08,33,001,2,source,32,AFTERNOON,HF,target,left,aqua,pleasantness,liberal,no,9,0,1.64998529915,-,-
2019_Nov_08,33,001,2,source,33,CICADAS,LF,target,left,aqua,pleasantness,liberal,no,9,0,0.350276456576,-,-
2019_Nov_08,33,001,2,source,34,COMES,HF,target,right,yellow,imageability,conservative,no,1,0,0.200115187185,-,-
2019_Nov_08,33,001,2,source,35,ALONE,HF,target,left,aqua,pleasantness,conservative,no,9,0,0.800278179617,-,-
2019_Nov_08,33,001,2,source,36,ANEMONES,LF,target,right,yellow,imageability,liberal,no,1,0,0.616882731234,-,-
2019_Nov_08,33,001,2,source,37,ECHELONS,LF,target,right,yellow,imageability,conservative,yes,9,1,0.500256989867,-,-
2019_Nov_08,33,001,2,source,38,HYPNOSIS,LF,target,left,aqua,pleasantness,liberal,no,9,0,0.450254313654,-,-
2019_Nov_08,33,001,2,source,39,IDEAS,HF,target,right,yellow,imageability,conservative,no,1,0,0.483624502976,-,-
2019_Nov_08,33,001,2,source,40,DIFFERENT,HF,target,left,aqua,pleasantness,conservative,no,1,1,0.300332803712,-,-
2019_Nov_08,33,001,2,source,41,VIGILANT,LF,target,right,yellow,imageability,liberal,no,1,0,0.417017568428,-,-
2019_Nov_08,33,001,2,source,42,APART,HF,target,left,aqua,pleasantness,liberal,no,9,0,0.100227881458,-,-
2019_Nov_08,33,001,2,source,43,SORRY,HF,target,left,aqua,pleasantness,liberal,no,1,1,0.33362014038,-,-
2019_Nov_08,33,001,2,source,44,INLAID,LF,target,right,yellow,imageability,liberal,no,9,1,1.70022773482,-,-
2019_Nov_08,33,001,2,source,45,NIBBLE,LF,target,right,yellow,imageability,conservative,no,9,1,0.800296143246,-,-
2019_Nov_08,33,001,2,source,46,FALCON,LF,target,left,aqua,pleasantness,conservative,no,1,1,0.966901831337,-,-
2019_Nov_08,33,001,2,source,47,INHABITS,LF,target,left,aqua,pleasantness,conservative,no,1,1,1.63354894575,-,-
2019_Nov_08,33,001,2,recog,0,VIGILANT,LF,target,right,yellow,imageability,liberal,no,z,1,1.46687873524,3,249
2019_Nov_08,33,001,2,recog,1,AFTERNOON,HF,target,left,aqua,pleasantness,liberal,no,m,0,3.7835181143,-3,246
2019_Nov_08,33,001,2,recog,2,TRUTH,HF,lure,-,-,-,conservative,no,m,1,1.40023037437,3,249
2019_Nov_08,33,001,2,recog,3,ALONE,HF,target,left,aqua,pleasantness,conservative,no,z,1,1.00019210084,1,250
2019_Nov_08,33,001,2,recog,4,FUNNILY,LF,lure,-,-,-,liberal,no,m,1,1.58349457828,1,251
2019_Nov_08,33,001,2,recog,5,YANKED,LF,lure,-,-,-,conservative,no,m,1,1.23356456311,3,254
2019_Nov_08,33,001,2,recog,6,EQUALLED,LF,lure,-,-,-,conservative,no,m,1,1.34998097322,3,257
2019_Nov_08,33,001,2,recog,7,ANEMONES,LF,target,right,yellow,imageability,liberal,no,z,1,1.96696635376,3,260
2019_Nov_08,33,001,2,recog,8,ASKED,HF,target,right,yellow,imageability,conservative,no,z,1,0.85023283062,1,261
2019_Nov_08,33,001,2,recog,9,HUNDRED,HF,lure,-,-,-,conservative,no,m,1,1.0835748647,3,264
2019_Nov_08,33,001,2,recog,10,INEDIBLE,LF,lure,-,-,-,conservative,no,z,0,1.21682282803,-3,261
2019_Nov_08,33,001,2,recog,11,DOUBT,HF,lure,-,-,-,liberal,no,m,1,1.65020452874,1,262
2019_Nov_08,33,001,2,recog,12,AMONG,HF,lure,-,-,-,liberal,no,z,0,1.61688529747,-1,261
2019_Nov_08,33,001,2,recog,13,TODAY,HF,lure,-,-,-,liberal,no,m,1,1.51666731433,1,262
2019_Nov_08,33,001,2,recog,14,HOSPITAL,HF,lure,-,-,-,conservative,no,z,0,1.06668905399,-3,259
2019_Nov_08,33,001,2,recog,15,SPOKE,HF,lure,-,-,-,conservative,no,m,1,1.95021911961,3,262
2019_Nov_08,33,001,2,recog,16,DIFFERENT,HF,target,left,aqua,pleasantness,conservative,no,m,0,1.00027678652,-1,261
2019_Nov_08,33,001,2,recog,17,INHABITS,LF,target,left,aqua,pleasantness,conservative,no,z,1,1.40025053763,1,262
2019_Nov_08,33,001,2,recog,18,COMES,HF,target,right,yellow,imageability,conservative,no,m,0,1.2668687636,-1,261
2019_Nov_08,33,001,2,recog,19,COBALT,LF,target,right,yellow,imageability,conservative,no,z,1,1.0335732883,1,262
2019_Nov_08,33,001,2,recog,20,GARDEN,HF,lure,-,-,-,liberal,no,m,1,1.36675167007,1,263
2019_Nov_08,33,001,2,recog,21,ROPED,LF,lure,-,-,-,liberal,no,m,1,1.08353453819,1,264
2019_Nov_08,33,001,2,recog,22,IRONICAL,LF,target,right,yellow,imageability,conservative,no,z,1,0.983610205394,1,265
2019_Nov_08,33,001,2,recog,23,VAINLY,LF,lure,-,-,-,liberal,no,z,0,1.54996454933,-1,264
2019_Nov_08,33,001,2,recog,24,NIPPED,LF,target,left,aqua,pleasantness,liberal,no,z,1,0.750257906379,3,267
2019_Nov_08,33,001,2,recog,25,ENERGY,HF,lure,-,-,-,conservative,no,m,1,1.66687697554,3,270
2019_Nov_08,33,001,2,recog,26,SORRY,HF,target,left,aqua,pleasantness,liberal,no,z,1,1.20029445686,3,273
2019_Nov_08,33,001,2,recog,27,AROUND,HF,target,left,aqua,pleasantness,conservative,no,z,1,0.950298306213,1,274
2019_Nov_08,33,001,2,recog,28,BOILERS,LF,target,right,yellow,imageability,liberal,no,z,1,0.916938015217,3,277
2019_Nov_08,33,001,2,recog,29,DUELLING,LF,target,left,aqua,pleasantness,conservative,no,z,1,1.03355569128,1,278
2019_Nov_08,33,001,2,recog,30,DAFFODILS,LF,lure,-,-,-,liberal,no,m,1,1.03357365491,1,279
2019_Nov_08,33,001,2,recog,31,EDUCATION,HF,lure,-,-,-,conservative,no,m,1,1.05019074441,3,282
2019_Nov_08,33,001,2,recog,32,AMICABLY,LF,lure,-,-,-,conservative,no,m,1,1.8335273894,3,285
2019_Nov_08,33,001,2,recog,33,CHAIR,HF,target,right,yellow,imageability,conservative,no,m,0,0.933572335132,-1,284
2019_Nov_08,33,001,2,recog,34,TALKING,HF,lure,-,-,-,liberal,no,z,0,0.70023360049,-1,283
2019_Nov_08,33,001,2,recog,35,WAITING,HF,target,left,aqua,pleasantness,liberal,no,m,0,0.666927933589,-3,280
2019_Nov_08,33,001,2,recog,36,WETTER,LF,target,right,yellow,imageability,liberal,no,z,1,0.850246394993,3,283
2019_Nov_08,33,001,2,recog,37,ANYONE,HF,lure,-,-,-,liberal,no,m,1,1.31683001348,1,284
2019_Nov_08,33,001,2,recog,38,BUILDING,HF,target,right,yellow,imageability,liberal,no,z,1,0.950207021652,3,287
2019_Nov_08,33,001,2,recog,39,BAGGY,LF,lure,-,-,-,liberal,no,z,0,2.81659355348,-1,286
2019_Nov_08,33,001,2,recog,40,TOUSLED,LF,lure,-,-,-,liberal,no,z,0,0.983588942323,-1,285
2019_Nov_08,33,001,2,recog,41,POWER,HF,lure,-,-,-,conservative,no,z,0,0.916912719495,-3,282
2019_Nov_08,33,001,2,recog,42,HUDDLE,LF,target,right,yellow,imageability,conservative,no,z,1,0.983603973115,1,283
2019_Nov_08,33,001,2,recog,43,UNION,HF,target,right,yellow,imageability,conservative,no,z,1,0.766909090109,1,284
2019_Nov_08,33,001,2,recog,44,SITTING,HF,lure,-,-,-,conservative,yes,m,1,0.783536444536,3,287
2019_Nov_08,33,001,2,recog,45,POUNDS,HF,lure,-,-,-,liberal,no,z,0,0.916908686844,-1,286
2019_Nov_08,33,001,2,recog,46,USELESSLY,LF,target,right,yellow,imageability,conservative,no,z,1,0.966945090687,1,287
2019_Nov_08,33,001,2,recog,47,UPDATE,LF,lure,-,-,-,liberal,no,z,0,1.01674796736,-1,286
2019_Nov_08,33,001,2,recog,48,CONCERNED,HF,lure,-,-,-,conservative,no,z,0,1.06672424804,-3,283
2019_Nov_08,33,001,2,recog,49,ANSWER,HF,target,left,aqua,pleasantness,conservative,no,z,1,1.11690252789,1,284
2019_Nov_08,33,001,2,recog,50,APART,HF,target,left,aqua,pleasantness,liberal,no,z,1,1.01664531806,3,287
2019_Nov_08,33,001,2,recog,51,TWENTY,HF,lure,-,-,-,liberal,no,m,1,1.01690120811,1,288
2019_Nov_08,33,001,2,recog,52,LABOUR,HF,target,right,yellow,imageability,liberal,no,z,1,1.65017630018,3,291
2019_Nov_08,33,001,2,recog,53,MAPPED,LF,target,left,aqua,pleasantness,liberal,yes,z,1,0.966985783804,3,294
2019_Nov_08,33,001,2,recog,54,ROOFED,LF,target,left,aqua,pleasantness,liberal,no,z,1,1.13359513794,3,297
2019_Nov_08,33,001,2,recog,55,IDEAS,HF,target,right,yellow,imageability,conservative,no,z,1,1.03356595621,1,298
2019_Nov_08,33,001,2,recog,56,JUBILANT,LF,lure,-,-,-,conservative,no,m,1,1.06691231623,3,301
2019_Nov_08,33,001,2,recog,57,HUMAN,HF,lure,-,-,-,liberal,no,m,1,1.2502282114,1,302
2019_Nov_08,33,001,2,recog,58,INUNDATED,LF,target,left,aqua,pleasantness,conservative,no,z,1,1.43359506462,1,303
2019_Nov_08,33,001,2,recog,59,SOVIET,HF,lure,-,-,-,conservative,no,m,1,1.45024588175,3,306
2019_Nov_08,33,001,2,recog,60,THANK,HF,target,left,aqua,pleasantness,conservative,no,z,1,0.766922654481,1,307
2019_Nov_08,33,001,2,recog,61,NOTHING,HF,lure,-,-,-,liberal,no,m,1,1.70021417044,1,308
2019_Nov_08,33,001,2,recog,62,DONATE,LF,target,left,aqua,pleasantness,conservative,no,m,0,2.33351565805,-1,307
2019_Nov_08,33,001,2,recog,63,CEASELESS,LF,lure,-,-,-,conservative,no,m,1,1.05019147761,3,310
2019_Nov_08,33,001,2,recog,64,GIPSY,LF,target,left,aqua,pleasantness,conservative,no,z,1,0.733614054743,1,311
2019_Nov_08,33,001,2,recog,65,CYANIDE,LF,lure,-,-,-,conservative,no,m,1,0.933553638295,3,314
2019_Nov_08,33,001,2,recog,66,METABOLIC,LF,lure,-,-,-,liberal,no,m,1,1.08352354005,1,315
2019_Nov_08,33,001,2,recog,67,LIVED,HF,target,left,aqua,pleasantness,conservative,no,z,1,0.900245405161,1,316
2019_Nov_08,33,001,2,recog,68,PASSED,HF,lure,-,-,-,liberal,yes,z,0,1.0835664328,-1,315
2019_Nov_08,33,001,2,recog,69,UNKEMPT,LF,target,left,aqua,pleasantness,liberal,no,m,0,1.53328843648,-3,312
2019_Nov_08,33,001,2,recog,70,NORTH,HF,target,right,yellow,imageability,conservative,no,z,1,1.30022832138,1,313
2019_Nov_08,33,001,2,recog,71,MILES,HF,target,right,yellow,imageability,liberal,yes,z,1,1.01685538253,3,316
2019_Nov_08,33,001,2,recog,72,ADVERSELY,LF,lure,-,-,-,conservative,no,m,1,3.58343445512,3,319
2019_Nov_08,33,001,2,recog,73,QUALITY,HF,target,left,aqua,pleasantness,liberal,no,z,1,1.15023935618,3,322
2019_Nov_08,33,001,2,recog,74,HERSELF,HF,target,right,yellow,imageability,liberal,no,z,1,0.883528599196,3,325
2019_Nov_08,33,001,2,recog,75,FALCON,LF,target,left,aqua,pleasantness,conservative,no,z,1,0.800314106874,1,326
2019_Nov_08,33,001,2,recog,76,CICADAS,LF,target,left,aqua,pleasantness,liberal,no,m,0,0.983574278137,-3,323
2019_Nov_08,33,001,2,recog,77,ZIPPED,LF,lure,-,-,-,liberal,no,m,1,1.26679360964,1,324
2019_Nov_08,33,001,2,recog,78,VANDALS,LF,lure,-,-,-,liberal,no,m,1,1.1669206015,1,325
2019_Nov_08,33,001,2,recog,79,ECHELONS,LF,target,right,yellow,imageability,conservative,no,m,0,1.533596751,-1,324
2019_Nov_08,33,001,2,recog,80,FASCINATE,LF,target,right,yellow,imageability,liberal,no,z,1,1.55020650841,3,327
2019_Nov_08,33,001,2,recog,81,NIBBLE,LF,target,right,yellow,imageability,conservative,no,z,1,1.13359917059,1,328
2019_Nov_08,33,001,2,recog,82,VALUE,HF,target,right,yellow,imageability,liberal,no,z,1,0.750250207682,3,331
2019_Nov_08,33,001,2,recog,83,KRONOR,LF,lure,-,-,-,liberal,no,m,1,1.10022678164,1,332
2019_Nov_08,33,001,2,recog,84,PERHAPS,HF,lure,-,-,-,liberal,no,m,1,1.13356544296,1,333
2019_Nov_08,33,001,2,recog,85,AGONIZED,LF,lure,-,-,-,conservative,no,m,1,1.25022857801,3,336
2019_Nov_08,33,001,2,recog,86,RAGES,LF,lure,-,-,-,liberal,no,m,1,0.933544106574,1,337
2019_Nov_08,33,001,2,recog,87,HYPNOSIS,LF,target,left,aqua,pleasantness,liberal,no,z,1,1.01693676876,3,340
2019_Nov_08,33,001,2,recog,88,WALKED,HF,target,left,aqua,pleasantness,liberal,no,z,1,0.966913196081,3,343
2019_Nov_08,33,001,2,recog,89,LOYALIST,LF,lure,-,-,-,conservative,no,m,1,2.53349080226,3,346
2019_Nov_08,33,001,2,recog,90,FREEDOM,HF,target,right,yellow,imageability,liberal,no,m,0,1.15024118921,-3,343
2019_Nov_08,33,001,2,recog,91,EXCEPT,HF,lure,-,-,-,conservative,no,m,1,1.48354055051,3,346
2019_Nov_08,33,001,2,recog,92,GLEANED,LF,lure,-,-,-,conservative,no,m,1,2.76680974025,3,349
2019_Nov_08,33,001,2,recog,93,JEALOUSLY,LF,lure,-,-,-,conservative,no,m,1,1.58354626954,3,352
2019_Nov_08,33,001,2,recog,94,LONGER,HF,lure,-,-,-,conservative,no,m,1,1.41698824006,3,355
2019_Nov_08,33,001,2,recog,95,INLAID,LF,target,right,yellow,imageability,liberal,no,z,1,1.20024753147,3,358
2019_Nov_08,33,001,3,source,0,CANNOT,HF,target,left,aqua,pleasantness,liberal,no,3,1,3.56676420795,-,-
2019_Nov_08,33,001,3,source,1,REBATE,LF,target,right,yellow,imageability,liberal,no,1,0,1.3335512187,-,-
2019_Nov_08,33,001,3,source,2,FONDLE,LF,target,right,yellow,imageability,liberal,no,9,1,0.350259592761,-,-
2019_Nov_08,33,001,3,source,3,IRATE,LF,target,left,aqua,pleasantness,conservative,no,1,1,0.600053011034,-,-
2019_Nov_08,33,001,3,source,4,WINDOW,HF,target,left,aqua,pleasantness,liberal,no,1,1,0.78353204528,-,-
2019_Nov_08,33,001,3,source,5,EYEBALL,LF,target,left,aqua,pleasantness,liberal,no,1,1,0.816939261673,-,-
2019_Nov_08,33,001,3,source,6,JANGLING,LF,target,left,aqua,pleasantness,conservative,no,1,1,0.650273083812,-,-
2019_Nov_08,33,001,3,source,7,ERRANT,LF,target,right,yellow,imageability,liberal,no,1,0,1.0669332127,-,-
2019_Nov_08,33,001,3,source,8,LIZARD,LF,target,left,aqua,pleasantness,conservative,no,1,1,0.70026109584,-,-
2019_Nov_08,33,001,3,source,9,VICEREGAL,LF,target,right,yellow,imageability,conservative,no,9,1,1.45022755151,-,-
2019_Nov_08,33,001,3,source,10,ENDEARING,LF,target,right,yellow,imageability,conservative,no,9,1,1.03357658775,-,-
2019_Nov_08,33,001,3,source,11,HISTORY,HF,target,right,yellow,imageability,liberal,no,9,1,1.00026982103,-,-
2019_Nov_08,33,001,3,source,12,DUBIOUSLY,LF,target,left,aqua,pleasantness,liberal,no,9,0,0.566719482178,-,-
2019_Nov_08,33,001,3,source,13,COUNCIL,HF,target,left,aqua,pleasantness,liberal,no,1,1,0.68359891397,-,-
2019_Nov_08,33,001,3,source,14,DEGREE,HF,target,right,yellow,imageability,conservative,yes,9,1,1.23360708925,-,-
2019_Nov_08,33,001,3,source,15,MOTHER,HF,target,left,aqua,pleasantness,conservative,no,1,1,0.683579850528,-,-
2019_Nov_08,33,001,3,source,16,TIDILY,LF,target,right,yellow,imageability,liberal,no,1,0,1.40023037437,-,-
2019_Nov_08,33,001,3,source,17,TUCKER,LF,target,left,aqua,pleasantness,conservative,no,9,0,0.683586816016,-,-
2019_Nov_08,33,001,3,source,18,PESTERED,LF,target,left,aqua,pleasantness,liberal,no,1,1,0.466724394681,-,-
2019_Nov_08,33,001,3,source,19,THOUSAND,HF,target,left,aqua,pleasantness,liberal,no,1,1,1.25022967782,-,-
2019_Nov_08,33,001,3,source,20,FENCED,LF,target,right,yellow,imageability,conservative,no,2,0,0.983574644742,-,-
2019_Nov_08,33,001,3,source,21,INTEREST,HF,target,left,aqua,pleasantness,conservative,no,8,0,0.700322685423,-,-
2019_Nov_08,33,001,3,source,22,GYMKHANA,LF,target,left,aqua,pleasantness,liberal,no,1,1,1.43237683733,-,-
2019_Nov_08,33,001,3,source,23,RUNNING,HF,target,right,yellow,imageability,liberal,no,9,1,1.10020918462,-,-
2019_Nov_08,33,001,3,source,24,CLASS,HF,target,left,aqua,pleasantness,liberal,no,9,0,0.933361904057,-,-
2019_Nov_08,33,001,3,source,25,FATHER,HF,target,right,yellow,imageability,conservative,no,2,0,0.883582856686,-,-
2019_Nov_08,33,001,3,source,26,EARLIER,HF,target,left,aqua,pleasantness,conservative,no,2,1,1.16686744382,-,-
2019_Nov_08,33,001,3,source,27,DOCTOR,HF,target,right,yellow,imageability,conservative,no,None,-1,-1,-,-
2019_Nov_08,33,001,3,source,28,UNOPENED,LF,target,right,yellow,imageability,conservative,no,9,1,1.71687341948,-,-
2019_Nov_08,33,001,3,source,29,YEARN,LF,target,right,yellow,imageability,conservative,no,1,0,5.99999816698,-,-
2019_Nov_08,33,001,3,source,30,DECIDED,HF,target,right,yellow,imageability,liberal,yes,9,1,0.850067125314,-,-
2019_Nov_08,33,001,3,source,31,TUMBLER,LF,target,left,aqua,pleasantness,liberal,no,9,0,2.29995336789,-,-
2019_Nov_08,33,001,3,source,32,DETACH,LF,target,right,yellow,imageability,liberal,no,1,0,1.75019778321,-,-
2019_Nov_08,33,001,3,source,33,NUCLEAR,HF,target,left,aqua,pleasantness,liberal,no,1,1,1.483500224,-,-
2019_Nov_08,33,001,3,source,34,WEBBED,LF,target,right,yellow,imageability,liberal,no,1,0,0.766747784058,-,-
2019_Nov_08,33,001,3,source,35,SUGARY,LF,target,left,aqua,pleasantness,liberal,no,1,1,0.733535601345,-,-
2019_Nov_08,33,001,3,source,36,PIECE,HF,target,right,yellow,imageability,liberal,yes,9,1,0.500244158704,-,-
2019_Nov_08,33,001,3,source,37,FUTURE,HF,target,left,aqua,pleasantness,conservative,no,9,0,0.683595614528,-,-
2019_Nov_08,33,001,3,source,38,MARKET,HF,target,left,aqua,pleasantness,conservative,no,9,0,0.800035120727,-,-
2019_Nov_08,33,001,3,source,39,PALATABLE,LF,target,right,yellow,imageability,conservative,no,9,1,0.800276346594,-,-
2019_Nov_08,33,001,3,source,40,FEELING,HF,target,right,yellow,imageability,conservative,no,1,0,1.18356042048,-,-
2019_Nov_08,33,001,3,source,41,JEERED,LF,target,left,aqua,pleasantness,conservative,no,2,1,0.500261389124,-,-
2019_Nov_08,33,001,3,source,42,HUBBUB,LF,target,left,aqua,pleasantness,conservative,no,8,0,0.283606466026,-,-
2019_Nov_08,33,001,3,source,43,UNDER,HF,target,right,yellow,imageability,liberal,yes,8,1,0.366973465888,-,-
2019_Nov_08,33,001,3,source,44,HAPPEN,HF,target,right,yellow,imageability,liberal,no,2,0,0.650261352464,-,-
2019_Nov_08,33,001,3,source,45,TURNED,HF,target,right,yellow,imageability,conservative,no,9,1,1.28335057597,-,-
2019_Nov_08,33,001,3,source,46,GLASS,HF,target,left,aqua,pleasantness,conservative,no,8,0,0.600055577267,-,-
2019_Nov_08,33,001,3,source,47,QUICKLY,HF,target,right,yellow,imageability,conservative,no,1,0,0.583643786381,-,-
2019_Nov_08,33,001,3,recog,0,SENSE,HF,lure,-,-,-,conservative,no,z,0,2.15013744009,-3,355
2019_Nov_08,33,001,3,recog,1,FRIEND,HF,lure,-,-,-,liberal,no,z,0,1.91685516256,-1,354
2019_Nov_08,33,001,3,recog,2,CANNOT,HF,target,left,aqua,pleasantness,liberal,no,m,0,1.03357035547,-3,351
2019_Nov_08,33,001,3,recog,3,REBATE,LF,target,right,yellow,imageability,liberal,no,z,1,0.683583516574,3,354
2019_Nov_08,33,001,3,recog,4,WHETHER,HF,lure,-,-,-,liberal,no,z,0,0.933574168156,-1,353
2019_Nov_08,33,001,3,recog,5,COUNCIL,HF,target,left,aqua,pleasantness,liberal,no,z,1,2.93349974741,3,356
2019_Nov_08,33,001,3,recog,6,GYMKHANA,LF,target,left,aqua,pleasantness,liberal,no,z,1,0.65029727972,3,359
2019_Nov_08,33,001,3,recog,7,DECIDED,HF,target,right,yellow,imageability,liberal,no,z,1,1.46691539571,3,362
2019_Nov_08,33,001,3,recog,8,ORDER,HF,lure,-,-,-,liberal,yes,z,0,0.900223775486,-1,361
2019_Nov_08,33,001,3,recog,9,HISTORY,HF,target,right,yellow,imageability,liberal,no,z,1,0.700208304769,3,364
2019_Nov_08,33,001,3,recog,10,WATCH,HF,lure,-,-,-,liberal,no,m,1,1.5168377855,1,365
2019_Nov_08,33,001,3,recog,11,HONKING,LF,lure,-,-,-,conservative,no,m,1,0.66692720038,3,368
2019_Nov_08,33,001,3,recog,12,VETOED,LF,lure,-,-,-,liberal,no,m,1,1.36686568412,1,369
2019_Nov_08,33,001,3,recog,13,PIECE,HF,target,right,yellow,imageability,liberal,no,m,0,0.633541613662,-3,366
2019_Nov_08,33,001,3,recog,14,DURING,HF,lure,-,-,-,conservative,no,z,0,2.48348995907,-3,363
2019_Nov_08,33,001,3,recog,15,WINDOW,HF,target,left,aqua,pleasantness,liberal,no,z,1,1.21667215352,3,366
2019_Nov_08,33,001,3,recog,16,CLOSE,HF,lure,-,-,-,conservative,no,z,0,2.08350850926,-3,363
2019_Nov_08,33,001,3,recog,17,BEYOND,HF,lure,-,-,-,liberal,no,m,1,0.716885150825,1,364
2019_Nov_08,33,001,3,recog,18,TIERS,LF,lure,-,-,-,conservative,no,m,1,0.816910666509,3,367
2019_Nov_08,33,001,3,recog,19,CLASS,HF,target,left,aqua,pleasantness,liberal,no,z,1,0.93354850583,3,370
2019_Nov_08,33,001,3,recog,20,LEARN,HF,lure,-,-,-,conservative,no,z,0,0.883622083385,-3,367
2019_Nov_08,33,001,3,recog,21,HAPPEN,HF,target,right,yellow,imageability,liberal,no,m,0,1.30027084752,-3,364
2019_Nov_08,33,001,3,recog,22,FONDLE,LF,target,right,yellow,imageability,liberal,no,z,1,0.983566579439,3,367
2019_Nov_08,33,001,3,recog,23,BOMBARDED,LF,lure,-,-,-,conservative,no,m,1,1.16693086643,3,370
2019_Nov_08,33,001,3,recog,24,TIDILY,LF,target,right,yellow,imageability,liberal,no,z,1,1.05027249724,3,373
2019_Nov_08,33,001,3,recog,25,TUMBLER,LF,target,left,aqua,pleasantness,liberal,no,z,1,2.45013626695,3,376
2019_Nov_08,33,001,3,recog,26,SUGARY,LF,target,left,aqua,pleasantness,liberal,no,z,1,1.36685761881,3,379
2019_Nov_08,33,001,3,recog,27,CUCKOO,LF,lure,-,-,-,conservative,no,m,1,1.05005180124,3,382
2019_Nov_08,33,001,3,recog,28,IDIOCY,LF,lure,-,-,-,conservative,no,m,1,1.10023558016,3,385
2019_Nov_08,33,001,3,recog,29,DETACH,LF,target,right,yellow,imageability,liberal,no,z,1,0.666744631258,3,388
2019_Nov_08,33,001,3,recog,30,SUSPEND,LF,lure,-,-,-,conservative,no,z,0,2.3168787719,-3,385
2019_Nov_08,33,001,3,recog,31,KITCHEN,HF,lure,-,-,-,conservative,no,m,1,0.533635244492,3,388
2019_Nov_08,33,001,3,recog,32,VICEREGAL,LF,target,right,yellow,imageability,conservative,no,m,0,0.816940361487,-1,387
2019_Nov_08,33,001,3,recog,33,HEALTH,HF,lure,-,-,-,conservative,no,m,1,0.916820701725,3,390
2019_Nov_08,33,001,3,recog,34,PALATABLE,LF,target,right,yellow,imageability,conservative,no,m,0,0.666970459729,-1,389
2019_Nov_08,33,001,3,recog,35,STUDENT,HF,lure,-,-,-,conservative,no,m,1,0.666960194799,3,392
2019_Nov_08,33,001,3,recog,36,TYRANTS,LF,lure,-,-,-,conservative,no,z,0,1.31688867023,-3,389
2019_Nov_08,33,001,3,recog,37,TURNED,HF,target,right,yellow,imageability,conservative,no,m,0,0.75024617503,-1,388
2019_Nov_08,33,001,3,recog,38,BETTER,HF,lure,-,-,-,conservative,no,m,1,0.650255486789,3,391
2019_Nov_08,33,001,3,recog,39,SPUDS,LF,lure,-,-,-,liberal,no,z,0,0.76691935504,-1,390
2019_Nov_08,33,001,3,recog,40,JOSTLED,LF,lure,-,-,-,liberal,no,z,0,0.983632201674,-1,389
2019_Nov_08,33,001,3,recog,41,DOCTOR,HF,target,right,yellow,imageability,conservative,no,z,1,2.7999541011,1,390
2019_Nov_08,33,001,3,recog,42,TAVERNS,LF,lure,-,-,-,liberal,no,m,1,1.68353915741,1,391
2019_Nov_08,33,001,3,recog,43,UNOPENED,LF,target,right,yellow,imageability,conservative,no,m,0,1.61690802696,-1,390
2019_Nov_08,33,001,3,recog,44,REFECTORY,LF,lure,-,-,-,conservative,no,z,0,3.13319920491,-3,387
2019_Nov_08,33,001,3,recog,45,EYEBALL,LF,target,left,aqua,pleasantness,liberal,no,z,1,1.00033471006,3,390
2019_Nov_08,33,001,3,recog,46,OPENED,HF,lure,-,-,-,liberal,no,z,0,1.90026043595,-1,389
2019_Nov_08,33,001,3,recog,47,PRACTICE,HF,lure,-,-,-,liberal,no,z,0,0.766888193643,-1,388
2019_Nov_08,33,001,3,recog,48,DEGREE,HF,target,right,yellow,imageability,conservative,no,m,0,2.53352636291,-1,387
2019_Nov_08,33,001,3,recog,49,DEVELOPED,HF,lure,-,-,-,conservative,no,m,1,1.03356632282,3,390
2019_Nov_08,33,001,3,recog,50,MOTHER,HF,target,left,aqua,pleasantness,conservative,no,z,1,0.850257393133,1,391
2019_Nov_08,33,001,3,recog,51,DUBIOUSLY,LF,target,left,aqua,pleasantness,liberal,no,z,1,2.20019694002,3,394
2019_Nov_08,33,001,3,recog,52,DEBACLE,LF,lure,-,-,-,liberal,no,z,0,0.816915798974,-1,393
2019_Nov_08,33,001,3,recog,53,JANGLING,LF,target,left,aqua,pleasantness,conservative,no,z,1,2.43347115225,1,394
2019_Nov_08,33,001,3,recog,54,CHLORIDE,LF,lure,-,-,-,liberal,no,m,1,0.900255303486,1,395
2019_Nov_08,33,001,3,recog,55,INCLUDING,HF,lure,-,-,-,liberal,no,m,1,1.46684317459,1,396
2019_Nov_08,33,001,3,recog,56,FORCE,HF,lure,-,-,-,liberal,no,m,1,1.10023374713,1,397
2019_Nov_08,33,001,3,recog,57,ENDEARING,LF,target,right,yellow,imageability,conservative,no,z,1,0.883321100958,1,398
2019_Nov_08,33,001,3,recog,58,QUICKLY,HF,target,right,yellow,imageability,conservative,no,z,1,0.616909126769,1,399
2019_Nov_08,33,001,3,recog,59,TIRADE,LF,lure,-,-,-,conservative,no,z,0,0.500241592472,-3,396
2019_Nov_08,33,001,3,recog,60,LIZARD,LF,target,left,aqua,pleasantness,conservative,no,z,1,0.800321438967,1,397
2019_Nov_08,33,001,3,recog,61,YEARN,LF,target,right,yellow,imageability,conservative,no,m,0,1.25023664331,-1,396
2019_Nov_08,33,001,3,recog,62,EARLIER,HF,target,left,aqua,pleasantness,conservative,no,m,0,0.883532998452,-1,395
2019_Nov_08,33,001,3,recog,63,PESTERED,LF,target,left,aqua,pleasantness,liberal,no,z,1,0.650247421486,3,398
2019_Nov_08,33,001,3,recog,64,JEERED,LF,target,left,aqua,pleasantness,conservative,no,z,1,1.99996957181,1,399
2019_Nov_08,33,001,3,recog,65,MARKET,HF,target,left,aqua,pleasantness,conservative,no,z,1,1.06668465474,1,400
2019_Nov_08,33,001,3,recog,66,CARRIED,HF,lure,-,-,-,liberal,no,z,0,1.68353879081,-1,399
2019_Nov_08,33,001,3,recog,67,BUCKED,LF,lure,-,-,-,liberal,no,z,0,0.883582856686,-1,398
2019_Nov_08,33,001,3,recog,68,CENTRAL,HF,lure,-,-,-,conservative,no,m,1,1.11692855682,3,401
2019_Nov_08,33,001,3,recog,69,OVENS,LF,lure,-,-,-,liberal,no,m,1,0.766918255226,1,402
2019_Nov_08,33,001,3,recog,70,UNDER,HF,target,right,yellow,imageability,liberal,no,m,0,1.51690634057,-3,399
2019_Nov_08,33,001,3,recog,71,ERODE,LF,lure,-,-,-,conservative,no,z,0,1.13360796911,-3,396
2019_Nov_08,33,001,3,recog,72,RUNNING,HF,target,right,yellow,imageability,liberal,no,z,1,0.749992851209,3,399
2019_Nov_08,33,001,3,recog,73,SAYING,HF,lure,-,-,-,liberal,no,z,0,1.38358322329,-1,398
2019_Nov_08,33,001,3,recog,74,INTEREST,HF,target,left,aqua,pleasantness,conservative,no,m,0,0.716937941896,-1,397
2019_Nov_08,33,001,3,recog,75,GLASS,HF,target,left,aqua,pleasantness,conservative,no,m,0,0.900239906091,-1,396
2019_Nov_08,33,001,3,recog,76,LEFTISTS,LF,lure,-,-,-,liberal,no,m,1,0.916940214845,1,397
2019_Nov_08,33,001,3,recog,77,NUCLEAR,HF,target,left,aqua,pleasantness,liberal,no,m,0,0.600254276993,-3,394
2019_Nov_08,33,001,3,recog,78,FIXTURE,LF,lure,-,-,-,liberal,no,z,0,0.616915725654,-1,393
2019_Nov_08,33,001,3,recog,79,THOUSAND,HF,target,left,aqua,pleasantness,liberal,no,m,0,3.01682715397,-3,390
2019_Nov_08,33,001,3,recog,80,MESSED,LF,lure,-,-,-,conservative,yes,m,1,0.866991062911,3,393
2019_Nov_08,33,001,3,recog,81,PHRASED,LF,lure,-,-,-,liberal,no,z,0,0.850252627272,-1,392
2019_Nov_08,33,001,3,recog,82,AGILITY,LF,lure,-,-,-,conservative,no,z,0,1.25023297726,-3,389
2019_Nov_08,33,001,3,recog,83,FUTURE,HF,target,left,aqua,pleasantness,conservative,yes,m,0,1.05002870514,-1,388
2019_Nov_08,33,001,3,recog,84,BLACK,HF,lure,-,-,-,liberal,no,z,0,0.433604229738,-1,387
2019_Nov_08,33,001,3,recog,85,NEITHER,HF,lure,-,-,-,conservative,no,z,0,3.31656679134,-3,384
2019_Nov_08,33,001,3,recog,86,IRATE,LF,target,left,aqua,pleasantness,conservative,no,z,1,1.28356980556,1,385
2019_Nov_08,33,001,3,recog,87,WHATEVER,HF,lure,-,-,-,conservative,no,z,0,0.833338588,-3,382
2019_Nov_08,33,001,3,recog,88,TUCKER,LF,target,left,aqua,pleasantness,conservative,yes,z,1,0.583542603494,1,383
2019_Nov_08,33,001,3,recog,89,FEELING,HF,target,right,yellow,imageability,conservative,no,m,0,0.650216626695,-1,382
2019_Nov_08,33,001,3,recog,90,ERRANT,LF,target,right,yellow,imageability,liberal,no,z,1,0.433581500249,3,385
2019_Nov_08,33,001,3,recog,91,FATHER,HF,target,right,yellow,imageability,conservative,no,m,0,0.766921188063,-1,384
2019_Nov_08,33,001,3,recog,92,WEBBED,LF,target,right,yellow,imageability,liberal,no,z,1,0.666955428938,3,387
2019_Nov_08,33,001,3,recog,93,SANDAL,LF,lure,-,-,-,liberal,no,z,0,0.666923900937,-1,386
2019_Nov_08,33,001,3,recog,94,FENCED,LF,target,right,yellow,imageability,conservative,no,m,0,1.15026685153,-1,385
2019_Nov_08,33,001,3,recog,95,HUBBUB,LF,target,left,aqua,pleasantness,conservative,no,m,0,0.933573434946,-1,384
2019_Nov_08,33,001,4,source,0,ANGERS,LF,target,right,yellow,imageability,conservative,no,8,1,2.30014436892,-,-
2019_Nov_08,33,001,4,source,1,LOCAL,HF,target,left,aqua,pleasantness,conservative,no,2,1,0.316937795254,-,-
2019_Nov_08,33,001,4,source,2,BACHELORS,LF,target,left,aqua,pleasantness,conservative,no,8,0,0.216956638734,-,-
2019_Nov_08,33,001,4,source,3,FITFUL,LF,target,right,yellow,imageability,conservative,no,2,0,0.96696891999,-,-
2019_Nov_08,33,001,4,source,4,TROUBLE,HF,target,left,aqua,pleasantness,conservative,yes,8,0,0.550253800407,-,-
2019_Nov_08,33,001,4,source,5,UNTIL,HF,target,right,yellow,imageability,liberal,yes,8,1,0.550206508406,-,-
2019_Nov_08,33,001,4,source,6,AVAILABLE,HF,target,right,yellow,imageability,conservative,no,2,0,1.46687433599,-,-
2019_Nov_08,33,001,4,source,7,TREES,HF,target,right,yellow,imageability,liberal,no,2,0,0.817016615256,-,-
2019_Nov_08,33,001,4,source,8,MELODIC,LF,target,left,aqua,pleasantness,liberal,no,8,0,0.816922764463,-,-
2019_Nov_08,33,001,4,source,9,SCHOOL,HF,target,right,yellow,imageability,liberal,no,2,0,0.466992016084,-,-
2019_Nov_08,33,001,4,source,10,WAXEN,LF,target,left,aqua,pleasantness,conservative,no,8,0,0.666709803815,-,-
2019_Nov_08,33,001,4,source,11,RIMMED,LF,target,left,aqua,pleasantness,liberal,no,2,1,0.90019188088,-,-
2019_Nov_08,33,001,4,source,12,OUSTED,LF,target,right,yellow,imageability,liberal,no,8,1,0.366970166446,-,-
2019_Nov_08,33,001,4,source,13,COFFINS,LF,target,left,aqua,pleasantness,liberal,no,2,1,3.45013590035,-,-
2019_Nov_08,33,001,4,source,14,MUSIC,HF,target,right,yellow,imageability,conservative,yes,8,1,0.566997735117,-,-
2019_Nov_08,33,001,4,source,15,HIMSELF,HF,target,right,yellow,imageability,conservative,no,8,1,0.583599060612,-,-
2019_Nov_08,33,001,4,source,16,PIQUE,LF,target,right,yellow,imageability,conservative,no,8,1,0.316946593766,-,-
2019_Nov_08,33,001,4,source,17,ENSCONCED,LF,target,left,aqua,pleasantness,liberal,no,2,1,0.300276713198,-,-
2019_Nov_08,33,001,4,source,18,SEVEN,HF,target,left,aqua,pleasantness,conservative,no,8,0,0.316946593766,-,-
2019_Nov_08,33,001,4,source,19,SOMEONE,HF,target,left,aqua,pleasantness,liberal,no,2,1,0.416925550659,-,-
2019_Nov_08,33,001,4,source,20,BELIEVE,HF,target,left,aqua,pleasantness,liberal,no,8,0,0.750248374658,-,-
2019_Nov_08,33,001,4,source,21,SARDINES,LF,target,right,yellow,imageability,conservative,no,2,0,0.550088461704,-,-
2019_Nov_08,33,001,4,source,22,AVOCADO,LF,target,left,aqua,pleasantness,liberal,no,1,1,0.616960818027,-,-
2019_Nov_08,33,001,4,source,23,MERELY,HF,target,left,aqua,pleasantness,conservative,no,2,1,0.250276236613,-,-
2019_Nov_08,33,001,4,source,24,TIMES,HF,target,right,yellow,imageability,conservative,no,8,1,0.0836254561477,-,-
2019_Nov_08,33,001,4,source,25,CAVERN,LF,target,right,yellow,imageability,liberal,no,2,0,0.400274366929,-,-
2019_Nov_08,33,001,4,source,26,ADDED,HF,target,right,yellow,imageability,liberal,no,8,1,0.61693112305,-,-
2019_Nov_08,33,001,4,source,27,ESTRANGED,LF,target,left,aqua,pleasantness,liberal,no,2,1,0.850250794249,-,-
2019_Nov_08,33,001,4,source,28,STAFF,HF,target,left,aqua,pleasantness,liberal,no,2,1,0.583634621265,-,-
2019_Nov_08,33,001,4,source,29,ROUND,HF,target,left,aqua,pleasantness,liberal,no,8,0,0.533391818997,-,-
2019_Nov_08,33,001,4,source,30,ANIMAL,HF,target,left,aqua,pleasantness,liberal,no,8,0,0.516935302343,-,-
2019_Nov_08,33,001,4,source,31,AEROSOL,LF,target,right,yellow,imageability,conservative,no,2,0,0.916958545078,-,-
2019_Nov_08,33,001,4,source,32,FELLS,LF,target,right,yellow,imageability,liberal,no,8,1,0.366971999469,-,-
2019_Nov_08,33,001,4,source,33,TUBERS,LF,target,right,yellow,imageability,liberal,no,8,1,0.416730516979,-,-
2019_Nov_08,33,001,4,source,34,HAIRDO,LF,target,left,aqua,pleasantness,conservative,no,8,0,0.800244451988,-,-
2019_Nov_08,33,001,4,source,35,PREPARED,HF,target,right,yellow,imageability,liberal,no,8,1,0.800255083524,-,-
2019_Nov_08,33,001,4,source,36,RUGGER,LF,target,left,aqua,pleasantness,conservative,no,8,0,0.350264358621,-,-
2019_Nov_08,33,001,4,source,37,BOVINE,LF,target,left,aqua,pleasantness,conservative,no,2,1,0.133608702315,-,-
2019_Nov_08,33,001,4,source,38,ORIGINALS,LF,target,left,aqua,pleasantness,conservative,yes,2,1,0.25002437921,-,-
2019_Nov_08,33,001,4,source,39,TOGETHER,HF,target,right,yellow,imageability,conservative,no,2,0,0.383625016222,-,-
2019_Nov_08,33,001,4,source,40,SEEMED,HF,target,left,aqua,pleasantness,conservative,no,8,0,0.116738288998,-,-
2019_Nov_08,33,001,4,source,41,OTHERS,HF,target,left,aqua,pleasantness,liberal,no,2,1,0.166972292753,-,-
2019_Nov_08,33,001,4,source,42,OCHRE,LF,target,right,yellow,imageability,liberal,no,8,1,0.26670232508,-,-
2019_Nov_08,33,001,4,source,43,PIZZA,LF,target,right,yellow,imageability,conservative,no,8,1,0.56696657372,-,-
2019_Nov_08,33,001,4,source,44,VOICE,HF,target,right,yellow,imageability,liberal,no,2,0,0.28356430649,-,-
2019_Nov_08,33,001,4,source,45,ALTHOUGH,HF,target,right,yellow,imageability,conservative,no,2,0,0.416729417165,-,-
2019_Nov_08,33,001,4,source,46,NINETIES,LF,target,right,yellow,imageability,liberal,no,2,0,0.266978011785,-,-
2019_Nov_08,33,001,4,source,47,ABOVE,HF,target,left,aqua,pleasantness,conservative,no,2,1,0.200270627561,-,-
2019_Nov_08,33,001,4,recog,0,CADDIE,LF,lure,-,-,-,liberal,no,z,0,1.30022722157,-1,383
2019_Nov_08,33,001,4,recog,1,BELIEVE,HF,target,left,aqua,pleasantness,liberal,no,m,0,0.933567569272,-3,380
2019_Nov_08,33,001,4,recog,2,ADDED,HF,target,right,yellow,imageability,liberal,no,m,0,1.51687774541,-3,377
2019_Nov_08,33,001,4,recog,3,OTHERS,HF,target,left,aqua,pleasantness,liberal,no,z,1,1.21668241845,3,380
2019_Nov_08,33,001,4,recog,4,VILLAGE,HF,lure,-,-,-,conservative,no,m,1,0.566954109162,3,383
2019_Nov_08,33,001,4,recog,5,BROUGHT,HF,lure,-,-,-,conservative,no,m,1,0.416917485356,3,386
2019_Nov_08,33,001,4,recog,6,GLIDED,LF,lure,-,-,-,liberal,no,z,0,0.46689266622,-1,385
2019_Nov_08,33,001,4,recog,7,ANIMAL,HF,target,left,aqua,pleasantness,liberal,no,z,1,0.200280525887,3,388
2019_Nov_08,33,001,4,recog,8,RUGGER,LF,target,left,aqua,pleasantness,conservative,no,m,0,0.350272790529,-1,387
2019_Nov_08,33,001,4,recog,9,SCHOOL,HF,target,right,yellow,imageability,liberal,no,z,1,0.250259006193,3,390
2019_Nov_08,33,001,4,recog,10,BREAK,HF,lure,-,-,-,liberal,no,z,0,0.0835865960535,-1,389
2019_Nov_08,33,001,4,recog,11,MUSIC,HF,target,right,yellow,imageability,conservative,no,m,0,0.850280855831,-1,388
2019_Nov_08,33,001,4,recog,12,TUBERS,LF,target,right,yellow,imageability,liberal,no,z,1,0.633588539058,3,391
2019_Nov_08,33,001,4,recog,13,SERIOUS,HF,lure,-,-,-,liberal,no,z,0,1.233571162,-1,390
2019_Nov_08,33,001,4,recog,14,DAWDLING,LF,lure,-,-,-,liberal,no,z,0,0.533601150259,-1,389
2019_Nov_08,33,001,4,recog,15,ACTION,HF,lure,-,-,-,liberal,no,m,1,1.40000931176,1,390
2019_Nov_08,33,001,4,recog,16,SOMEONE,HF,target,left,aqua,pleasantness,liberal,no,m,0,1.2168987152,-3,387
2019_Nov_08,33,001,4,recog,17,SEVEN,HF,target,left,aqua,pleasantness,conservative,no,m,0,1.11691315942,-1,386
2019_Nov_08,33,001,4,recog,18,BIOLOGIST,LF,lure,-,-,-,conservative,no,z,0,0.333590445402,-3,383
2019_Nov_08,33,001,4,recog,19,FITFUL,LF,target,right,yellow,imageability,conservative,no,m,0,0.183628608948,-1,382
2019_Nov_08,33,001,4,recog,20,YOUNG,HF,lure,-,-,-,liberal,no,m,1,0.000298416194255,1,383
2019_Nov_08,33,001,4,recog,21,PHANTOMS,LF,lure,-,-,-,conservative,yes,m,1,1.06689985167,3,386
2019_Nov_08,33,001,4,recog,22,ROUND,HF,target,left,aqua,pleasantness,liberal,no,z,1,0.866958435097,3,389
2019_Nov_08,33,001,4,recog,23,ESTRANGED,LF,target,left,aqua,pleasantness,liberal,no,z,1,1.68354135704,3,392
2019_Nov_08,33,001,4,recog,24,FELLS,LF,target,right,yellow,imageability,liberal,no,z,1,0.600266741552,3,395
2019_Nov_08,33,001,4,recog,25,ALTHOUGH,HF,target,right,yellow,imageability,conservative,no,m,0,0.28334800974,-1,394
2019_Nov_08,33,001,4,recog,26,DILATED,LF,lure,-,-,-,liberal,no,z,0,0.250326094847,-1,393
2019_Nov_08,33,001,4,recog,27,BACHELORS,LF,target,left,aqua,pleasantness,conservative,no,m,0,1.16695029647,-1,392
2019_Nov_08,33,001,4,recog,28,BUZZARD,LF,lure,-,-,-,liberal,no,m,1,0.816913965951,1,393
2019_Nov_08,33,001,4,recog,29,CHROMIUM,LF,lure,-,-,-,liberal,no,m,1,0.733624686278,1,394
2019_Nov_08,33,001,4,recog,30,OUSTED,LF,target,right,yellow,imageability,liberal,no,m,0,0.73357446144,-3,391
2019_Nov_08,33,001,4,recog,31,VINEYARDS,LF,lure,-,-,-,liberal,no,z,0,0.550239502825,-1,390
2019_Nov_08,33,001,4,recog,32,NEARLY,HF,lure,-,-,-,conservative,no,z,0,1.8335270228,-3,387
2019_Nov_08,33,001,4,recog,33,LOLLED,LF,lure,-,-,-,conservative,no,m,1,0.566926247207,3,390
2019_Nov_08,33,001,4,recog,34,POETICAL,LF,lure,-,-,-,liberal,no,m,1,1.23362102023,1,391
2019_Nov_08,33,001,4,recog,35,EASILY,HF,lure,-,-,-,liberal,no,m,1,0.966960488083,1,392
2019_Nov_08,33,001,4,recog,36,CHURCH,HF,lure,-,-,-,liberal,no,m,1,0.566924414184,1,393
2019_Nov_08,33,001,4,recog,37,BOVINE,LF,target,left,aqua,pleasantness,conservative,no,m,0,0.750356523034,-1,392
2019_Nov_08,33,001,4,recog,38,TREES,HF,target,right,yellow,imageability,liberal,no,z,1,0.450261645747,3,395
2019_Nov_08,33,001,4,recog,39,USUAL,HF,lure,-,-,-,conservative,no,m,1,0.266941717924,3,398
2019_Nov_08,33,001,4,recog,40,UTILIZE,LF,lure,-,-,-,conservative,no,m,1,0.583639387125,3,401
2019_Nov_08,33,001,4,recog,41,SEEMED,HF,target,left,aqua,pleasantness,conservative,no,m,0,0.966959754874,-1,400
2019_Nov_08,33,001,4,recog,42,SARDINES,LF,target,right,yellow,imageability,conservative,no,z,1,1.51693896839,1,401
2019_Nov_08,33,001,4,recog,43,PREPARED,HF,target,right,yellow,imageability,liberal,no,z,1,0.866794562813,3,404
2019_Nov_08,33,001,4,recog,44,JAILS,LF,lure,-,-,-,conservative,no,z,0,1.10031366695,-3,401
2019_Nov_08,33,001,4,recog,45,COFFINS,LF,target,left,aqua,pleasantness,liberal,no,m,0,0.833545353029,-3,398
2019_Nov_08,33,001,4,recog,46,SUDDENLY,HF,lure,-,-,-,liberal,no,m,1,0.850242728946,1,399
2019_Nov_08,33,001,4,recog,47,RECENT,HF,lure,-,-,-,liberal,no,z,0,0.81696419079,-1,398
2019_Nov_08,33,001,4,recog,48,AVAILABLE,HF,target,right,yellow,imageability,conservative,no,z,1,1.03351939742,1,399
2019_Nov_08,33,001,4,recog,49,UTTERANCE,LF,lure,-,-,-,conservative,no,m,1,1.50021739656,3,402
2019_Nov_08,33,001,4,recog,50,EXECUTING,LF,lure,-,-,-,liberal,no,m,1,0.950033251042,1,403
2019_Nov_08,33,001,4,recog,51,TROUBLE,HF,target,left,aqua,pleasantness,conservative,no,m,0,0.883652144967,-1,402
2019_Nov_08,33,001,4,recog,52,ELECTING,LF,lure,-,-,-,conservative,no,m,1,0.916893656053,3,405
2019_Nov_08,33,001,4,recog,53,MELODIC,LF,target,left,aqua,pleasantness,liberal,no,z,1,0.883612551664,3,408
2019_Nov_08,33,001,4,recog,54,ORIGINALS,LF,target,left,aqua,pleasantness,conservative,no,m,0,2.71684225808,-1,407
2019_Nov_08,33,001,4,recog,55,URBANE,LF,lure,-,-,-,liberal,no,m,1,0.55037038069,1,408
2019_Nov_08,33,001,4,recog,56,STAFF,HF,target,left,aqua,pleasantness,liberal,yes,z,1,0.883366193331,3,411
2019_Nov_08,33,001,4,recog,57,HANDS,HF,lure,-,-,-,conservative,no,m,1,0.683411945593,3,414
2019_Nov_08,33,001,4,recog,58,ABOVE,HF,target,left,aqua,pleasantness,conservative,no,z,1,1.20018777491,1,415
2019_Nov_08,33,001,4,recog,59,HIMSELF,HF,target,right,yellow,imageability,conservative,no,z,1,1.46687470259,1,416
2019_Nov_08,33,001,4,recog,60,TOGETHER,HF,target,right,yellow,imageability,conservative,no,z,1,0.633552611802,1,417
2019_Nov_08,33,001,4,recog,61,CAVERN,LF,target,right,yellow,imageability,liberal,no,z,1,0.9669146625,3,420
2019_Nov_08,33,001,4,recog,62,TIMES,HF,target,right,yellow,imageability,conservative,no,z,1,1.0168924096,1,421
2019_Nov_08,33,001,4,recog,63,WRONG,HF,lure,-,-,-,liberal,no,m,1,1.36688584737,1,422
2019_Nov_08,33,001,4,recog,64,MONEY,HF,lure,-,-,-,conservative,no,m,1,0.800082412728,3,425
2019_Nov_08,33,001,4,recog,65,FOUND,HF,lure,-,-,-,conservative,no,z,0,0.78358630277,-3,422
2019_Nov_08,33,001,4,recog,66,VOICE,HF,target,right,yellow,imageability,liberal,no,z,1,0.816918365208,3,425
2019_Nov_08,33,001,4,recog,67,PLEASE,HF,lure,-,-,-,conservative,no,z,0,0.883611085245,-3,422
2019_Nov_08,33,001,4,recog,68,WAXEN,LF,target,left,aqua,pleasantness,conservative,no,m,0,1.05028422859,-1,421
2019_Nov_08,33,001,4,recog,69,SWIFTNESS,LF,lure,-,-,-,liberal,no,m,1,0.700321952214,1,422
2019_Nov_08,33,001,4,recog,70,ENSCONCED,LF,target,left,aqua,pleasantness,liberal,no,m,0,0.95023671663,-3,419
2019_Nov_08,33,001,4,recog,71,PIZZA,LF,target,right,yellow,imageability,conservative,no,z,1,0.933583699877,1,420
2019_Nov_08,33,001,4,recog,72,ANGERS,LF,target,right,yellow,imageability,conservative,no,z,1,1.08357229847,1,421
2019_Nov_08,33,001,4,recog,73,MINISTER,HF,lure,-,-,-,conservative,yes,m,1,0.816746061017,3,424
2019_Nov_08,33,001,4,recog,74,AVOCADO,LF,target,left,aqua,pleasantness,liberal,no,z,1,1.08351327512,3,427
2019_Nov_08,33,001,4,recog,75,AEROSOL,LF,target,right,yellow,imageability,conservative,no,z,1,0.966810546776,1,428
2019_Nov_08,33,001,4,recog,76,MERELY,HF,target,left,aqua,pleasantness,conservative,no,z,1,1.70022480198,1,429
2019_Nov_08,33,001,4,recog,77,DAUGHTER,HF,lure,-,-,-,conservative,no,z,0,1.21689468255,-3,426
2019_Nov_08,33,001,4,recog,78,INVOLVED,HF,lure,-,-,-,liberal,no,z,0,0.750245441821,-1,425
2019_Nov_08,33,001,4,recog,79,RIMMED,LF,target,left,aqua,pleasantness,liberal,no,m,0,0.250275870008,-3,422
2019_Nov_08,33,001,4,recog,80,BAPTIZED,LF,lure,-,-,-,conservative,no,m,1,1.66686121154,3,425
2019_Nov_08,33,001,4,recog,81,GUSHED,LF,lure,-,-,-,conservative,no,m,1,0.883568559104,3,428
2019_Nov_08,33,001,4,recog,82,UNTIL,HF,target,right,yellow,imageability,liberal,no,z,1,1.95019345728,3,431
2019_Nov_08,33,001,4,recog,83,RIVER,HF,lure,-,-,-,conservative,no,m,1,0.533600417049,3,434
2019_Nov_08,33,001,4,recog,84,NINETIES,LF,target,right,yellow,imageability,liberal,yes,z,1,1.93331754489,3,437
2019_Nov_08,33,001,4,recog,85,PIQUE,LF,target,right,yellow,imageability,conservative,no,m,0,1.00024855796,-1,436
2019_Nov_08,33,001,4,recog,86,BEHIND,HF,lure,-,-,-,liberal,no,z,0,0.166947730241,-1,435
2019_Nov_08,33,001,4,recog,87,MODERN,HF,lure,-,-,-,liberal,no,z,0,0.166946630427,-1,434
2019_Nov_08,33,001,4,recog,88,LOCAL,HF,target,left,aqua,pleasantness,conservative,no,m,0,0.9169130861,-1,433
2019_Nov_08,33,001,4,recog,89,OCHRE,LF,target,right,yellow,imageability,liberal,no,z,1,0.300281845664,3,436
2019_Nov_08,33,001,4,recog,90,ADMIRALS,LF,lure,-,-,-,conservative,no,m,1,0.316939628278,3,439
2019_Nov_08,33,001,4,recog,91,PHOBIC,LF,lure,-,-,-,conservative,no,m,1,2.45017329402,3,442
2019_Nov_08,33,001,4,recog,92,SOUND,HF,lure,-,-,-,conservative,no,m,1,0.83355561796,3,445
2019_Nov_08,33,001,4,recog,93,BOWER,LF,lure,-,-,-,conservative,no,m,1,0.600308534483,3,448
2019_Nov_08,33,001,4,recog,94,HAIRDO,LF,target,left,aqua,pleasantness,conservative,no,m,0,0.616958618399,-1,447
2019_Nov_08,33,001,4,recog,95,UNPACK,LF,lure,-,-,-,liberal,no,z,0,0.550264065338,-1,446
