date,subj,session,cycle,task,trial,item,wf,type,source,colour,encoding,bias,null,response,corr,rt,points,total
2019_Nov_08,34,001,0,source,0,TOTAL,HF,target,right,aqua,imageability,liberal,no,9,1,6.7166237617,-,-
2019_Nov_08,34,001,0,source,1,DAUGHTER,HF,target,right,aqua,imageability,conservative,no,9,1,2.53346037407,-,-
2019_Nov_08,34,001,0,source,2,GROUND,HF,target,left,yellow,pleasantness,liberal,no,1,1,2.18352595964,-,-
2019_Nov_08,34,001,0,source,3,NIGHT,HF,target,right,aqua,imageability,liberal,no,9,1,2.83330596018,-,-
2019_Nov_08,34,001,0,source,4,BUGGED,LF,target,right,aqua,imageability,conservative,yes,9,1,6.69993958355,-,-
2019_Nov_08,34,001,0,source,5,POPES,LF,target,right,aqua,imageability,liberal,no,2,0,3.44988917541,-,-
2019_Nov_08,34,001,0,source,6,PARENTS,HF,target,right,aqua,imageability,liberal,no,9,1,3.71673630933,-,-
2019_Nov_08,34,001,0,source,7,THEORY,HF,target,left,yellow,pleasantness,liberal,no,8,0,6.01637696344,-,-
2019_Nov_08,34,001,0,source,8,FULCRUM,LF,target,left,yellow,pleasantness,conservative,yes,8,0,1.06673084692,-,-
2019_Nov_08,34,001,0,source,9,EDICT,LF,target,right,aqua,imageability,conservative,no,1,0,2.55010129287,-,-
2019_Nov_08,34,001,0,source,10,PURCHASER,LF,target,right,aqua,imageability,liberal,yes,1,0,0.983595174603,-,-
2019_Nov_08,34,001,0,source,11,LANGUAGE,HF,target,left,yellow,pleasantness,conservative,no,3,1,3.7667037915,-,-
2019_Nov_08,34,001,0,source,12,MORNING,HF,target,left,yellow,pleasantness,conservative,no,1,1,4.06669345325,-,-
2019_Nov_08,34,001,0,source,13,DINER,LF,target,right,aqua,imageability,conservative,no,9,1,3.18323634196,-,-
2019_Nov_08,34,001,0,source,14,APART,HF,target,left,yellow,pleasantness,conservative,no,1,1,2.28328422053,-,-
2019_Nov_08,34,001,0,source,15,NUMBER,HF,target,right,aqua,imageability,conservative,yes,3,0,1.21688478422,-,-
2019_Nov_08,34,001,0,source,16,JOCKEYS,LF,target,right,aqua,imageability,conservative,no,3,0,4.11678301477,-,-
2019_Nov_08,34,001,0,source,17,DAFFODILS,LF,target,right,aqua,imageability,liberal,no,7,1,4.68341744466,-,-
2019_Nov_08,34,001,0,source,18,IRONICAL,LF,target,left,yellow,pleasantness,conservative,no,None,-1,-1,-,-
2019_Nov_08,34,001,0,source,19,EMOTIVE,LF,target,left,yellow,pleasantness,liberal,no,1,1,1.75015452386,-,-
2019_Nov_08,34,001,0,source,20,KNUCKLE,LF,target,right,aqua,imageability,liberal,no,3,0,2.28349355179,-,-
2019_Nov_08,34,001,0,source,21,WELCOMES,LF,target,left,yellow,pleasantness,conservative,no,9,0,2.05017021454,-,-
2019_Nov_08,34,001,0,source,22,BOOKS,HF,target,left,yellow,pleasantness,conservative,no,1,1,1.85033108067,-,-
2019_Nov_08,34,001,0,source,23,TOILED,LF,target,left,yellow,pleasantness,conservative,no,3,1,2.58347844768,-,-
2019_Nov_08,34,001,0,source,24,HAVING,HF,target,left,yellow,pleasantness,liberal,no,3,1,0.983624502976,-,-
2019_Nov_08,34,001,0,source,25,UNHEEDED,LF,target,left,yellow,pleasantness,conservative,no,7,0,1.85018480541,-,-
2019_Nov_08,34,001,0,source,26,DESERTER,LF,target,right,aqua,imageability,conservative,no,2,0,3.68336282057,-,-
2019_Nov_08,34,001,0,source,27,MEETING,HF,target,right,aqua,imageability,liberal,no,2,0,1.81659465329,-,-
2019_Nov_08,34,001,0,source,28,STRAIGHT,HF,target,right,aqua,imageability,conservative,no,8,1,2.03345780784,-,-
2019_Nov_08,34,001,0,source,29,UNDER,HF,target,left,yellow,pleasantness,conservative,no,8,0,1.43352211029,-,-
2019_Nov_08,34,001,0,source,30,ROUND,HF,target,right,aqua,imageability,conservative,no,8,1,3.0834091594,-,-
2019_Nov_08,34,001,0,source,31,MUMBLES,LF,target,right,aqua,imageability,liberal,no,8,1,1.81682378121,-,-
2019_Nov_08,34,001,0,source,32,MARKET,HF,target,right,aqua,imageability,liberal,no,8,1,0.933561703598,-,-
2019_Nov_08,34,001,0,source,33,SOAPY,LF,target,left,yellow,pleasantness,liberal,no,1,1,1.33354168698,-,-
2019_Nov_08,34,001,0,source,34,GANGWAY,LF,target,left,yellow,pleasantness,liberal,no,3,1,1.83348449666,-,-
2019_Nov_08,34,001,0,source,35,HOSPITAL,HF,target,left,yellow,pleasantness,liberal,no,2,1,2.6335049532,-,-
2019_Nov_08,34,001,0,source,36,FORCE,HF,target,left,yellow,pleasantness,liberal,no,2,1,0.966949123338,-,-
2019_Nov_08,34,001,0,source,37,GLASS,HF,target,right,aqua,imageability,liberal,no,8,1,2.59998005671,-,-
2019_Nov_08,34,001,0,source,38,HOPPER,LF,target,right,aqua,imageability,conservative,no,7,1,1.71684885696,-,-
2019_Nov_08,34,001,0,source,39,GABLE,LF,target,left,yellow,pleasantness,conservative,no,3,1,2.20016687844,-,-
2019_Nov_08,34,001,0,source,40,COVER,HF,target,right,aqua,imageability,conservative,no,2,0,2.30013300417,-,-
2019_Nov_08,34,001,0,source,41,MEANS,HF,target,left,yellow,pleasantness,liberal,no,3,1,1.916842698,-,-
2019_Nov_08,34,001,0,source,42,PENALIZED,LF,target,left,yellow,pleasantness,liberal,no,3,1,1.05022410543,-,-
2019_Nov_08,34,001,0,source,43,ADDED,HF,target,right,aqua,imageability,conservative,no,8,1,1.28337843793,-,-
2019_Nov_08,34,001,0,source,44,PAVILIONS,LF,target,left,yellow,pleasantness,liberal,no,2,1,1.25019265075,-,-
2019_Nov_08,34,001,0,source,45,MATERIAL,HF,target,left,yellow,pleasantness,conservative,no,3,1,2.75015195763,-,-
2019_Nov_08,34,001,0,source,46,BUDDIES,LF,target,left,yellow,pleasantness,liberal,no,9,0,1.78356247347,-,-
2019_Nov_08,34,001,0,source,47,SOJOURN,LF,target,right,aqua,imageability,liberal,no,2,0,1.28330291737,-,-
2019_Nov_08,34,001,0,recog,0,VOLITION,LF,lure,-,-,-,conservative,no,z,0,2.6167386556,-3,-3
2019_Nov_08,34,001,0,recog,1,GROUND,HF,target,left,yellow,pleasantness,liberal,no,z,1,1.46684684064,3,0
2019_Nov_08,34,001,0,recog,2,DAFFODILS,LF,target,right,aqua,imageability,liberal,no,z,1,0.883530798825,3,3
2019_Nov_08,34,001,0,recog,3,USELESSLY,LF,lure,-,-,-,conservative,no,m,1,1.45015349737,3,6
2019_Nov_08,34,001,0,recog,4,OLDER,HF,lure,-,-,-,conservative,no,m,1,1.999905416,3,9
2019_Nov_08,34,001,0,recog,5,FRACTIONS,LF,lure,-,-,-,liberal,no,m,1,1.68346986913,1,10
2019_Nov_08,34,001,0,recog,6,JOCKEYS,LF,target,right,aqua,imageability,conservative,no,z,1,0.983598840649,1,11
2019_Nov_08,34,001,0,recog,7,GANGWAY,LF,target,left,yellow,pleasantness,liberal,no,z,1,2.05019661008,3,14
2019_Nov_08,34,001,0,recog,8,UNDER,HF,target,left,yellow,pleasantness,conservative,no,z,1,0.533602983282,1,15
2019_Nov_08,34,001,0,recog,9,PENALIZED,LF,target,left,yellow,pleasantness,liberal,no,z,1,0.533572921699,3,18
2019_Nov_08,34,001,0,recog,10,HAVING,HF,target,left,yellow,pleasantness,liberal,no,z,1,1.15019059776,3,21
2019_Nov_08,34,001,0,recog,11,EMOTIVE,LF,target,left,yellow,pleasantness,liberal,no,z,1,1.01688874355,3,24
2019_Nov_08,34,001,0,recog,12,WELCOMES,LF,target,left,yellow,pleasantness,conservative,no,z,1,0.650197196648,1,25
2019_Nov_08,34,001,0,recog,13,GLASS,HF,target,right,aqua,imageability,liberal,no,z,1,0.533586486072,3,28
2019_Nov_08,34,001,0,recog,14,FLICKS,LF,lure,-,-,-,conservative,no,m,1,0.750187518285,3,31
2019_Nov_08,34,001,0,recog,15,ELLIPSE,LF,lure,-,-,-,liberal,no,m,1,0.833535088099,1,32
2019_Nov_08,34,001,0,recog,16,ABLAZE,LF,lure,-,-,-,liberal,no,m,1,0.566910483208,1,33
2019_Nov_08,34,001,0,recog,17,PRACTICE,HF,lure,-,-,-,conservative,no,z,0,1.48350608967,-3,30
2019_Nov_08,34,001,0,recog,18,PARENTS,HF,target,right,aqua,imageability,liberal,no,z,1,0.750263405449,3,33
2019_Nov_08,34,001,0,recog,19,DAUGHTER,HF,target,right,aqua,imageability,conservative,no,z,1,0.683606979273,1,34
2019_Nov_08,34,001,0,recog,20,STUDENT,HF,lure,-,-,-,liberal,yes,z,0,0.566920014928,-1,33
2019_Nov_08,34,001,0,recog,21,AFTERNOON,HF,lure,-,-,-,conservative,yes,z,0,0.716863154546,-3,30
2019_Nov_08,34,001,0,recog,22,DOUBT,HF,lure,-,-,-,conservative,no,m,1,0.883563793244,3,33
2019_Nov_08,34,001,0,recog,23,EDICT,LF,target,right,aqua,imageability,conservative,no,z,1,1.10001231792,1,34
2019_Nov_08,34,001,0,recog,24,HOPPER,LF,target,right,aqua,imageability,conservative,no,z,1,0.716950406455,1,35
2019_Nov_08,34,001,0,recog,25,ENSCONCED,LF,lure,-,-,-,conservative,no,m,1,0.800235653476,3,38
2019_Nov_08,34,001,0,recog,26,EXECUTING,LF,lure,-,-,-,liberal,no,m,1,1.0335575243,1,39
2019_Nov_08,34,001,0,recog,27,BASIC,HF,lure,-,-,-,liberal,yes,m,1,1.34999673722,1,40
2019_Nov_08,34,001,0,recog,28,TOILED,LF,target,left,yellow,pleasantness,conservative,no,z,1,0.783503083512,1,41
2019_Nov_08,34,001,0,recog,29,POPES,LF,target,right,aqua,imageability,liberal,no,z,1,1.06687162311,3,44
2019_Nov_08,34,001,0,recog,30,RAYON,LF,lure,-,-,-,conservative,no,m,1,0.633573141663,3,47
2019_Nov_08,34,001,0,recog,31,MARKET,HF,target,right,aqua,imageability,liberal,no,z,1,0.600039813266,3,50
2019_Nov_08,34,001,0,recog,32,MEETING,HF,target,right,aqua,imageability,liberal,no,z,1,0.633374075331,3,53
2019_Nov_08,34,001,0,recog,33,IRONICAL,LF,target,left,yellow,pleasantness,conservative,no,z,1,0.783565406304,1,54
2019_Nov_08,34,001,0,recog,34,DURING,HF,lure,-,-,-,liberal,no,m,1,0.966726227703,1,55
2019_Nov_08,34,001,0,recog,35,KNUCKLE,LF,target,right,aqua,imageability,liberal,no,z,1,0.750190451122,3,58
2019_Nov_08,34,001,0,recog,36,MORNING,HF,target,left,yellow,pleasantness,conservative,no,z,1,0.550247201523,1,59
2019_Nov_08,34,001,0,recog,37,COVER,HF,target,right,aqua,imageability,conservative,no,z,1,0.766922654481,1,60
2019_Nov_08,34,001,0,recog,38,GYPSIES,LF,lure,-,-,-,conservative,no,m,1,0.61690839356,3,63
2019_Nov_08,34,001,0,recog,39,BUDDIES,LF,target,left,yellow,pleasantness,liberal,no,z,1,0.850238696295,3,66
2019_Nov_08,34,001,0,recog,40,HOLED,LF,lure,-,-,-,conservative,no,z,0,0.800319972549,-3,63
2019_Nov_08,34,001,0,recog,41,STRAIGHT,HF,target,right,aqua,imageability,conservative,no,z,1,0.616870266676,1,64
2019_Nov_08,34,001,0,recog,42,EASILY,HF,lure,-,-,-,liberal,no,m,1,0.800038786773,1,65
2019_Nov_08,34,001,0,recog,43,THEORY,HF,target,left,yellow,pleasantness,liberal,no,z,1,0.666748297304,3,68
2019_Nov_08,34,001,0,recog,44,CLEAR,HF,lure,-,-,-,liberal,no,z,0,0.933546672806,-1,67
2019_Nov_08,34,001,0,recog,45,MUMBLES,LF,target,right,aqua,imageability,liberal,no,z,1,0.516952532762,3,70
2019_Nov_08,34,001,0,recog,46,MOTHER,HF,lure,-,-,-,conservative,no,z,0,0.516853549503,-3,67
2019_Nov_08,34,001,0,recog,47,SUCCESS,HF,lure,-,-,-,conservative,no,z,0,0.683371252476,-3,64
2019_Nov_08,34,001,0,recog,48,SOJOURN,LF,target,right,aqua,imageability,liberal,no,z,1,1.20021563686,3,67
2019_Nov_08,34,001,0,recog,49,REACHED,HF,lure,-,-,-,conservative,no,m,1,0.633545279708,3,70
2019_Nov_08,34,001,0,recog,50,PURCHASER,LF,target,right,aqua,imageability,liberal,no,m,0,0.733612954929,-3,67
2019_Nov_08,34,001,0,recog,51,FIGURE,HF,lure,-,-,-,conservative,no,z,0,1.10019415383,-3,64
2019_Nov_08,34,001,0,recog,52,PAVILIONS,LF,target,left,yellow,pleasantness,liberal,no,z,1,1.10022018276,3,67
2019_Nov_08,34,001,0,recog,53,PUBLIC,HF,lure,-,-,-,liberal,no,m,1,0.883582490082,1,68
2019_Nov_08,34,001,0,recog,54,FRONT,HF,lure,-,-,-,conservative,no,m,1,0.916882291308,3,71
2019_Nov_08,34,001,0,recog,55,GREATER,HF,lure,-,-,-,conservative,no,m,1,1.46682484436,3,74
2019_Nov_08,34,001,0,recog,56,HOSPITAL,HF,target,left,yellow,pleasantness,liberal,no,z,1,0.500258456286,3,77
2019_Nov_08,34,001,0,recog,57,WIRING,LF,lure,-,-,-,liberal,no,m,1,2.06683422944,1,78
2019_Nov_08,34,001,0,recog,58,DESERTER,LF,target,right,aqua,imageability,conservative,no,z,1,1.10033199718,1,79
2019_Nov_08,34,001,0,recog,59,TOOTHACHE,LF,lure,-,-,-,conservative,no,m,1,0.800204125476,3,82
2019_Nov_08,34,001,0,recog,60,SNUBBED,LF,lure,-,-,-,liberal,no,m,1,0.60003541401,1,83
2019_Nov_08,34,001,0,recog,61,TOTAL,HF,target,right,aqua,imageability,liberal,no,z,1,0.633615667803,3,86
2019_Nov_08,34,001,0,recog,62,BOOKS,HF,target,left,yellow,pleasantness,conservative,no,z,1,0.583559100704,1,87
2019_Nov_08,34,001,0,recog,63,THANK,HF,lure,-,-,-,liberal,no,m,1,1.19997001174,1,88
2019_Nov_08,34,001,0,recog,64,NUMBER,HF,target,right,aqua,imageability,conservative,no,m,0,0.983559980556,-1,87
2019_Nov_08,34,001,0,recog,65,GABLE,LF,target,left,yellow,pleasantness,conservative,no,z,1,0.8502390629,1,88
2019_Nov_08,34,001,0,recog,66,MINISTER,HF,lure,-,-,-,liberal,no,m,1,0.733549532322,1,89
2019_Nov_08,34,001,0,recog,67,BUGGED,LF,target,right,aqua,imageability,conservative,no,z,1,0.650219192927,1,90
2019_Nov_08,34,001,0,recog,68,ADDED,HF,target,right,aqua,imageability,conservative,no,z,1,0.633620433664,1,91
2019_Nov_08,34,001,0,recog,69,MAJOR,HF,lure,-,-,-,conservative,no,m,1,0.766881961364,3,94
2019_Nov_08,34,001,0,recog,70,RODENTS,LF,lure,-,-,-,liberal,no,m,1,1.1668813748,1,95
2019_Nov_08,34,001,0,recog,71,NIGHT,HF,target,right,aqua,imageability,liberal,no,z,1,0.56689105316,3,98
2019_Nov_08,34,001,0,recog,72,MEANS,HF,target,left,yellow,pleasantness,liberal,no,z,1,0.816934862417,3,101
2019_Nov_08,34,001,0,recog,73,HUSBAND,HF,lure,-,-,-,liberal,no,z,0,0.533549459002,-1,100
2019_Nov_08,34,001,0,recog,74,APART,HF,target,left,yellow,pleasantness,conservative,no,z,1,0.700211970815,1,101
2019_Nov_08,34,001,0,recog,75,HINDERED,LF,lure,-,-,-,liberal,no,m,1,0.900257503114,1,102
2019_Nov_08,34,001,0,recog,76,REFECTORY,LF,lure,-,-,-,conservative,no,z,0,1.16692170131,-3,99
2019_Nov_08,34,001,0,recog,77,STOOD,HF,lure,-,-,-,conservative,no,m,1,1.28334581011,3,102
2019_Nov_08,34,001,0,recog,78,LOBBIES,LF,lure,-,-,-,liberal,no,m,1,0.70028859119,1,103
2019_Nov_08,34,001,0,recog,79,FLOOR,HF,lure,-,-,-,liberal,no,m,1,0.750292367217,1,104
2019_Nov_08,34,001,0,recog,80,OVENS,LF,lure,-,-,-,conservative,yes,m,1,0.71686352115,3,107
2019_Nov_08,34,001,0,recog,81,TODAY,HF,lure,-,-,-,liberal,no,m,1,0.883317068306,1,108
2019_Nov_08,34,001,0,recog,82,COBALT,LF,lure,-,-,-,liberal,no,m,1,0.766889293457,1,109
2019_Nov_08,34,001,0,recog,83,MATERIAL,HF,target,left,yellow,pleasantness,conservative,no,z,1,1.40021094432,1,110
2019_Nov_08,34,001,0,recog,84,SOAPY,LF,target,left,yellow,pleasantness,liberal,no,z,1,0.616913159422,3,113
2019_Nov_08,34,001,0,recog,85,ROUND,HF,target,right,aqua,imageability,conservative,no,z,1,0.516947400296,1,114
2019_Nov_08,34,001,0,recog,86,DINER,LF,target,right,aqua,imageability,conservative,no,z,1,0.583526472889,1,115
2019_Nov_08,34,001,0,recog,87,LIGHT,HF,lure,-,-,-,liberal,no,m,1,0.616889696723,1,116
2019_Nov_08,34,001,0,recog,88,FULCRUM,LF,target,left,yellow,pleasantness,conservative,no,z,1,0.850224398713,1,117
2019_Nov_08,34,001,0,recog,89,EJECTED,LF,lure,-,-,-,conservative,no,z,0,0.616862201373,-3,114
2019_Nov_08,34,001,0,recog,90,DRAFTING,LF,lure,-,-,-,conservative,no,m,1,0.950191624256,3,117
2019_Nov_08,34,001,0,recog,91,MUTATIONS,LF,lure,-,-,-,liberal,no,m,1,0.91688009168,1,118
2019_Nov_08,34,001,0,recog,92,FILAMENTS,LF,lure,-,-,-,liberal,no,m,1,0.566911583021,1,119
2019_Nov_08,34,001,0,recog,93,LANGUAGE,HF,target,left,yellow,pleasantness,conservative,no,z,1,0.850046595452,1,120
2019_Nov_08,34,001,0,recog,94,FORCE,HF,target,left,yellow,pleasantness,liberal,no,z,1,0.666914002612,3,123
2019_Nov_08,34,001,0,recog,95,UNHEEDED,LF,target,left,yellow,pleasantness,conservative,no,z,1,0.750285035125,1,124
2019_Nov_08,34,001,1,source,0,CUPID,LF,target,right,aqua,imageability,conservative,no,8,1,3.35009535387,-,-
2019_Nov_08,34,001,1,source,1,BURGH,LF,target,left,yellow,pleasantness,liberal,no,2,1,2.75009073465,-,-
2019_Nov_08,34,001,1,source,2,CIPHER,LF,target,left,yellow,pleasantness,liberal,no,2,1,1.70022370216,-,-
2019_Nov_08,34,001,1,source,3,TORMENTS,LF,target,left,yellow,pleasantness,conservative,no,2,1,2.16683591582,-,-
2019_Nov_08,34,001,1,source,4,SUGARY,LF,target,left,yellow,pleasantness,liberal,no,1,1,1.51687481257,-,-
2019_Nov_08,34,001,1,source,5,TAGGED,LF,target,left,yellow,pleasantness,conservative,yes,1,1,0.750199616238,-,-
2019_Nov_08,34,001,1,source,6,ONCOMING,LF,target,right,aqua,imageability,liberal,no,9,1,2.43350964574,-,-
2019_Nov_08,34,001,1,source,7,GIPSY,LF,target,right,aqua,imageability,liberal,yes,8,1,1.00023316056,-,-
2019_Nov_08,34,001,1,source,8,REGAINING,LF,target,left,yellow,pleasantness,liberal,no,8,0,2.1501227759,-,-
2019_Nov_08,34,001,1,source,9,EXPECT,HF,target,right,aqua,imageability,conservative,yes,8,1,0.716856555661,-,-
2019_Nov_08,34,001,1,source,10,TAKEN,HF,target,left,yellow,pleasantness,liberal,no,1,1,3.08349054563,-,-
2019_Nov_08,34,001,1,source,11,CREAK,LF,target,right,aqua,imageability,liberal,no,2,0,1.95026384538,-,-
2019_Nov_08,34,001,1,source,12,ABOVE,HF,target,left,yellow,pleasantness,liberal,no,1,1,2.51680662411,-,-
2019_Nov_08,34,001,1,source,13,CASES,HF,target,left,yellow,pleasantness,conservative,no,1,1,0.816852009763,-,-
2019_Nov_08,34,001,1,source,14,RAFTERS,LF,target,left,yellow,pleasantness,conservative,no,1,1,0.700328551097,-,-
2019_Nov_08,34,001,1,source,15,BREAK,HF,target,right,aqua,imageability,liberal,no,1,0,0.983555214695,-,-
2019_Nov_08,34,001,1,source,16,AMALGAM,LF,target,left,yellow,pleasantness,conservative,no,1,1,1.15026098586,-,-
2019_Nov_08,34,001,1,source,17,LOOKED,HF,target,right,aqua,imageability,conservative,no,1,0,1.50014700847,-,-
2019_Nov_08,34,001,1,source,18,TOGETHER,HF,target,left,yellow,pleasantness,conservative,no,8,0,2.13359770418,-,-
2019_Nov_08,34,001,1,source,19,THOUSAND,HF,target,right,aqua,imageability,liberal,no,9,1,1.41686652731,-,-
2019_Nov_08,34,001,1,source,20,LEARN,HF,target,left,yellow,pleasantness,conservative,no,8,0,2.61675881886,-,-
2019_Nov_08,34,001,1,source,21,SAPLINGS,LF,target,right,aqua,imageability,conservative,no,8,1,2.99986472288,-,-
2019_Nov_08,34,001,1,source,22,FOUND,HF,target,right,aqua,imageability,liberal,no,8,1,1.21688735045,-,-
2019_Nov_08,34,001,1,source,23,TOWARDS,HF,target,left,yellow,pleasantness,liberal,no,7,0,1.25004014321,-,-
2019_Nov_08,34,001,1,source,24,SEVEN,HF,target,right,aqua,imageability,liberal,no,1,0,1.38354069715,-,-
2019_Nov_08,34,001,1,source,25,WADDLED,LF,target,right,aqua,imageability,conservative,no,3,0,1.50029218392,-,-
2019_Nov_08,34,001,1,source,26,FLECKED,LF,target,left,yellow,pleasantness,conservative,yes,3,1,0.700203538909,-,-
2019_Nov_08,34,001,1,source,27,SAYING,HF,target,right,aqua,imageability,conservative,no,8,1,2.25016148935,-,-
2019_Nov_08,34,001,1,source,28,PLACE,HF,target,right,aqua,imageability,liberal,no,8,1,1.35026472523,-,-
2019_Nov_08,34,001,1,source,29,ETHER,LF,target,right,aqua,imageability,liberal,no,9,1,2.36678173165,-,-
2019_Nov_08,34,001,1,source,30,SHALL,HF,target,left,yellow,pleasantness,liberal,no,1,1,1.10026967439,-,-
2019_Nov_08,34,001,1,source,31,LONGER,HF,target,left,yellow,pleasantness,liberal,no,1,1,2.58345755121,-,-
2019_Nov_08,34,001,1,source,32,CANNOT,HF,target,left,yellow,pleasantness,liberal,no,1,1,1.23335046599,-,-
2019_Nov_08,34,001,1,source,33,MOVED,HF,target,right,aqua,imageability,conservative,no,7,1,1.88335482859,-,-
2019_Nov_08,34,001,1,source,34,EARLIER,HF,target,right,aqua,imageability,liberal,no,8,1,2.28330328397,-,-
2019_Nov_08,34,001,1,source,35,SORRY,HF,target,right,aqua,imageability,conservative,no,1,0,1.8332993613,-,-
2019_Nov_08,34,001,1,source,36,URBANE,LF,target,right,aqua,imageability,liberal,no,2,0,1.81680141832,-,-
2019_Nov_08,34,001,1,source,37,NEEDED,HF,target,left,yellow,pleasantness,conservative,no,7,0,1.11668439811,-,-
2019_Nov_08,34,001,1,source,38,TRIED,HF,target,left,yellow,pleasantness,conservative,no,1,1,1.86663582299,-,-
2019_Nov_08,34,001,1,source,39,CICADAS,LF,target,right,aqua,imageability,conservative,no,3,0,2.06684926023,-,-
2019_Nov_08,34,001,1,source,40,PSEUDONYM,LF,target,left,yellow,pleasantness,liberal,no,1,1,3.43343119234,-,-
2019_Nov_08,34,001,1,source,41,ENFORCING,LF,target,right,aqua,imageability,liberal,no,7,1,1.3166188492,-,-
2019_Nov_08,34,001,1,source,42,PYJAMA,LF,target,left,yellow,pleasantness,conservative,no,7,0,1.01691697211,-,-
2019_Nov_08,34,001,1,source,43,DANDELION,LF,target,right,aqua,imageability,conservative,no,9,1,3.03348970244,-,-
2019_Nov_08,34,001,1,source,44,LICENSING,LF,target,right,aqua,imageability,conservative,no,9,1,0.783361940717,-,-
2019_Nov_08,34,001,1,source,45,SIMILAR,HF,target,left,yellow,pleasantness,conservative,no,1,1,1.16686927684,-,-
2019_Nov_08,34,001,1,source,46,NEITHER,HF,target,right,aqua,imageability,conservative,no,9,1,1.28357823747,-,-
2019_Nov_08,34,001,1,source,47,DROLL,LF,target,left,yellow,pleasantness,liberal,no,2,1,1.63356617617,-,-
2019_Nov_08,34,001,1,recog,0,PYJAMA,LF,target,left,yellow,pleasantness,conservative,no,None,-1,-1,-1,123
2019_Nov_08,34,001,1,recog,1,VELVETY,LF,lure,-,-,-,liberal,no,m,1,1.30017626352,1,124
2019_Nov_08,34,001,1,recog,2,REGAINING,LF,target,left,yellow,pleasantness,liberal,no,z,1,1.28363689421,3,127
2019_Nov_08,34,001,1,recog,3,SAPLINGS,LF,target,right,aqua,imageability,conservative,no,z,1,0.750246541635,1,128
2019_Nov_08,34,001,1,recog,4,LOOKED,HF,target,right,aqua,imageability,conservative,no,z,1,0.566910849811,1,129
2019_Nov_08,34,001,1,recog,5,LONGER,HF,target,left,yellow,pleasantness,liberal,no,z,1,0.683565186342,3,132
2019_Nov_08,34,001,1,recog,6,ALREADY,HF,lure,-,-,-,conservative,no,z,0,0.966889733383,-3,129
2019_Nov_08,34,001,1,recog,7,HOWEVER,HF,lure,-,-,-,liberal,no,m,1,0.933657754018,1,130
2019_Nov_08,34,001,1,recog,8,GIPSY,LF,target,right,aqua,imageability,liberal,no,z,1,0.566680622083,3,133
2019_Nov_08,34,001,1,recog,9,CUPID,LF,target,right,aqua,imageability,conservative,no,z,1,0.666713836466,1,134
2019_Nov_08,34,001,1,recog,10,UNGAINLY,LF,lure,-,-,-,conservative,no,m,1,0.966839875148,3,137
2019_Nov_08,34,001,1,recog,11,SAYING,HF,target,right,aqua,imageability,conservative,no,z,1,0.766847133921,1,138
2019_Nov_08,34,001,1,recog,12,PROBABLY,HF,lure,-,-,-,liberal,yes,z,0,0.566954842371,-1,137
2019_Nov_08,34,001,1,recog,13,CUFFED,LF,lure,-,-,-,liberal,no,m,1,1.20024863128,1,138
2019_Nov_08,34,001,1,recog,14,LINEAGE,LF,lure,-,-,-,liberal,no,m,1,0.850210467736,1,139
2019_Nov_08,34,001,1,recog,15,SHALL,HF,target,left,yellow,pleasantness,liberal,no,z,1,0.850241262528,3,142
2019_Nov_08,34,001,1,recog,16,SUBJECT,HF,lure,-,-,-,liberal,no,m,1,0.833545719634,1,143
2019_Nov_08,34,001,1,recog,17,PSEUDONYM,LF,target,left,yellow,pleasantness,liberal,no,z,1,0.516948133505,3,146
2019_Nov_08,34,001,1,recog,18,AMALGAM,LF,target,left,yellow,pleasantness,conservative,no,z,1,0.683636307645,1,147
2019_Nov_08,34,001,1,recog,19,SCHOOL,HF,lure,-,-,-,liberal,no,z,0,0.500189901215,-1,146
2019_Nov_08,34,001,1,recog,20,BROUGHT,HF,lure,-,-,-,liberal,no,m,1,0.966934092547,1,147
2019_Nov_08,34,001,1,recog,21,INDEED,HF,lure,-,-,-,conservative,no,z,0,1.03361398142,-3,144
2019_Nov_08,34,001,1,recog,22,NOVAS,LF,lure,-,-,-,liberal,yes,z,0,0.583548835773,-1,143
2019_Nov_08,34,001,1,recog,23,EARLIER,HF,target,right,aqua,imageability,liberal,no,z,1,1.58350447661,3,146
2019_Nov_08,34,001,1,recog,24,ALIAS,LF,lure,-,-,-,liberal,no,m,1,0.66696422745,1,147
2019_Nov_08,34,001,1,recog,25,DUMMIES,LF,lure,-,-,-,conservative,no,m,1,0.899983649432,3,150
2019_Nov_08,34,001,1,recog,26,RAFTERS,LF,target,left,yellow,pleasantness,conservative,no,z,1,0.566976105441,1,151
2019_Nov_08,34,001,1,recog,27,MOVED,HF,target,right,aqua,imageability,conservative,no,z,1,1.18333825806,1,152
2019_Nov_08,34,001,1,recog,28,BREAK,HF,target,right,aqua,imageability,liberal,no,z,1,0.566942011208,3,155
2019_Nov_08,34,001,1,recog,29,TAKEN,HF,target,left,yellow,pleasantness,liberal,no,z,1,0.483559980556,3,158
2019_Nov_08,34,001,1,recog,30,BURGH,LF,target,left,yellow,pleasantness,liberal,no,m,0,0.633532448545,-3,155
2019_Nov_08,34,001,1,recog,31,NOTHING,HF,lure,-,-,-,conservative,no,z,0,0.883478740962,-3,152
2019_Nov_08,34,001,1,recog,32,FOUND,HF,target,right,aqua,imageability,liberal,no,z,1,0.566913416044,3,155
2019_Nov_08,34,001,1,recog,33,CASES,HF,target,left,yellow,pleasantness,conservative,no,z,1,0.516912939458,1,156
2019_Nov_08,34,001,1,recog,34,SUGARY,LF,target,left,yellow,pleasantness,liberal,no,z,1,0.483586009486,3,159
2019_Nov_08,34,001,1,recog,35,PICTURE,HF,lure,-,-,-,liberal,no,m,1,0.767004040717,1,160
2019_Nov_08,34,001,1,recog,36,WADDLED,LF,target,right,aqua,imageability,conservative,no,z,1,0.533584286444,1,161
2019_Nov_08,34,001,1,recog,37,TOWARDS,HF,target,left,yellow,pleasantness,liberal,no,z,1,0.666900071635,3,164
2019_Nov_08,34,001,1,recog,38,EVENING,HF,lure,-,-,-,conservative,yes,m,1,0.467000081386,3,167
2019_Nov_08,34,001,1,recog,39,AEONS,LF,lure,-,-,-,liberal,no,m,1,0.683609178901,1,168
2019_Nov_08,34,001,1,recog,40,CHIEF,HF,lure,-,-,-,conservative,no,m,1,0.850191037689,3,171
2019_Nov_08,34,001,1,recog,41,SEVEN,HF,target,right,aqua,imageability,liberal,no,z,1,0.71687451929,3,174
2019_Nov_08,34,001,1,recog,42,WIPERS,LF,lure,-,-,-,conservative,no,z,0,1.5999323981,-3,171
2019_Nov_08,34,001,1,recog,43,ABOVE,HF,target,left,yellow,pleasantness,liberal,no,z,1,0.60036095895,3,174
2019_Nov_08,34,001,1,recog,44,RETURN,HF,lure,-,-,-,liberal,no,m,1,0.96679514938,1,175
2019_Nov_08,34,001,1,recog,45,JARRED,LF,lure,-,-,-,liberal,no,m,1,0.70028235891,1,176
2019_Nov_08,34,001,1,recog,46,ONCOMING,LF,target,right,aqua,imageability,liberal,no,z,1,1.01686784708,3,179
2019_Nov_08,34,001,1,recog,47,KETCHUP,LF,lure,-,-,-,conservative,no,m,1,0.800233820453,3,182
2019_Nov_08,34,001,1,recog,48,EBONY,LF,lure,-,-,-,conservative,no,z,0,0.966890099988,-3,179
2019_Nov_08,34,001,1,recog,49,WESTERN,HF,lure,-,-,-,conservative,no,m,1,0.650199762879,3,182
2019_Nov_08,34,001,1,recog,50,TOGETHER,HF,target,left,yellow,pleasantness,conservative,no,z,1,0.550205775196,1,183
2019_Nov_08,34,001,1,recog,51,CARRIED,HF,lure,-,-,-,conservative,no,m,1,0.866898678537,3,186
2019_Nov_08,34,001,1,recog,52,NEITHER,HF,target,right,aqua,imageability,conservative,no,z,1,0.583601626845,1,187
2019_Nov_08,34,001,1,recog,53,NEEDED,HF,target,left,yellow,pleasantness,conservative,no,z,1,0.650295080092,1,188
2019_Nov_08,34,001,1,recog,54,ENFORCING,LF,target,right,aqua,imageability,liberal,no,z,1,0.533585019653,3,191
2019_Nov_08,34,001,1,recog,55,HISTORY,HF,lure,-,-,-,liberal,no,m,1,0.633571308639,1,192
2019_Nov_08,34,001,1,recog,56,FAMILY,HF,lure,-,-,-,conservative,no,m,1,0.783573105003,3,195
2019_Nov_08,34,001,1,recog,57,TORMENTS,LF,target,left,yellow,pleasantness,conservative,no,m,0,1.01692027155,-1,194
2019_Nov_08,34,001,1,recog,58,SORRY,HF,target,right,aqua,imageability,conservative,no,z,1,0.950066978672,1,195
2019_Nov_08,34,001,1,recog,59,METABOLIC,LF,lure,-,-,-,conservative,no,m,1,0.850286354901,3,198
2019_Nov_08,34,001,1,recog,60,ETHER,LF,target,right,aqua,imageability,liberal,no,z,1,0.550273230454,3,201
2019_Nov_08,34,001,1,recog,61,ROMANCES,LF,lure,-,-,-,liberal,no,m,1,0.633637297478,1,202
2019_Nov_08,34,001,1,recog,62,WHOLE,HF,lure,-,-,-,liberal,no,m,1,0.666919868286,1,203
2019_Nov_08,34,001,1,recog,63,UMPIRE,LF,lure,-,-,-,conservative,no,m,1,0.866846620675,3,206
2019_Nov_08,34,001,1,recog,64,THOUSAND,HF,target,right,aqua,imageability,liberal,no,z,1,0.600201119318,3,209
2019_Nov_08,34,001,1,recog,65,SOUND,HF,lure,-,-,-,liberal,no,m,1,0.750245075216,1,210
2019_Nov_08,34,001,1,recog,66,SENSE,HF,lure,-,-,-,conservative,no,m,1,0.567006533628,3,213
2019_Nov_08,34,001,1,recog,67,DANDELION,LF,target,right,aqua,imageability,conservative,no,z,1,0.566971339581,1,214
2019_Nov_08,34,001,1,recog,68,DWELT,LF,lure,-,-,-,liberal,no,m,1,0.600299002762,1,215
2019_Nov_08,34,001,1,recog,69,TIDILY,LF,lure,-,-,-,liberal,no,z,0,0.633572408454,-1,214
2019_Nov_08,34,001,1,recog,70,BIDDER,LF,lure,-,-,-,conservative,no,z,0,0.866896845513,-3,211
2019_Nov_08,34,001,1,recog,71,LEOPARDS,LF,lure,-,-,-,conservative,no,m,1,0.716879651754,3,214
2019_Nov_08,34,001,1,recog,72,EXPECT,HF,target,right,aqua,imageability,conservative,no,z,1,0.88340542003,1,215
2019_Nov_08,34,001,1,recog,73,SIMILAR,HF,target,left,yellow,pleasantness,conservative,no,z,1,0.466830343428,1,216
2019_Nov_08,34,001,1,recog,74,ENZYME,LF,lure,-,-,-,conservative,no,m,1,0.65027528344,3,219
2019_Nov_08,34,001,1,recog,75,LOANED,LF,lure,-,-,-,conservative,no,m,1,0.716877452127,3,222
2019_Nov_08,34,001,1,recog,76,UNPACK,LF,lure,-,-,-,liberal,no,m,1,0.75024067596,1,223
2019_Nov_08,34,001,1,recog,77,FLECKED,LF,target,left,yellow,pleasantness,conservative,no,z,1,0.600237779783,1,224
2019_Nov_08,34,001,1,recog,78,CANNOT,HF,target,left,yellow,pleasantness,liberal,no,z,1,0.650237889765,3,227
2019_Nov_08,34,001,1,recog,79,LEARN,HF,target,left,yellow,pleasantness,conservative,no,z,1,0.500198699727,1,228
2019_Nov_08,34,001,1,recog,80,URBANE,LF,target,right,aqua,imageability,liberal,no,z,1,0.833569915541,3,231
2019_Nov_08,34,001,1,recog,81,LICENSING,LF,target,right,aqua,imageability,conservative,no,z,1,0.566955208975,1,232
2019_Nov_08,34,001,1,recog,82,PLACE,HF,target,right,aqua,imageability,liberal,yes,m,0,0.50035780615,-3,229
2019_Nov_08,34,001,1,recog,83,SACRAMENT,LF,lure,-,-,-,conservative,no,m,1,0.666909603356,3,232
2019_Nov_08,34,001,1,recog,84,RIOTERS,LF,lure,-,-,-,liberal,no,m,1,0.950268244631,1,233
2019_Nov_08,34,001,1,recog,85,CIPHER,LF,target,left,yellow,pleasantness,liberal,no,m,0,0.650343105303,-3,230
2019_Nov_08,34,001,1,recog,86,SERIOUS,HF,lure,-,-,-,liberal,no,m,1,0.8169414613,1,231
2019_Nov_08,34,001,1,recog,87,CLASS,HF,lure,-,-,-,conservative,no,z,0,0.600147595036,-3,228
2019_Nov_08,34,001,1,recog,88,DROLL,LF,target,left,yellow,pleasantness,liberal,no,z,1,0.650244122044,3,231
2019_Nov_08,34,001,1,recog,89,GIRLS,HF,lure,-,-,-,conservative,no,m,1,0.666860844935,3,234
2019_Nov_08,34,001,1,recog,90,TRIED,HF,target,left,yellow,pleasantness,conservative,no,z,1,0.700176043559,1,235
2019_Nov_08,34,001,1,recog,91,TAGGED,LF,target,left,yellow,pleasantness,conservative,no,z,1,0.600245111877,1,236
2019_Nov_08,34,001,1,recog,92,CREAK,LF,target,right,aqua,imageability,liberal,no,z,1,0.683559320667,3,239
2019_Nov_08,34,001,1,recog,93,NORTH,HF,lure,-,-,-,liberal,no,m,1,0.850253360481,1,240
2019_Nov_08,34,001,1,recog,94,SEEMED,HF,lure,-,-,-,conservative,no,z,0,0.700199506257,-3,237
2019_Nov_08,34,001,1,recog,95,CICADAS,LF,target,right,aqua,imageability,conservative,no,z,1,0.700281259096,1,238
2019_Nov_08,34,001,2,source,0,DAGGERS,LF,target,left,yellow,pleasantness,conservative,no,3,1,2.76677234657,-,-
2019_Nov_08,34,001,2,source,1,CATALYST,LF,target,left,yellow,pleasantness,liberal,no,1,1,2.10017472378,-,-
2019_Nov_08,34,001,2,source,2,JEWELLED,LF,target,left,yellow,pleasantness,liberal,yes,3,1,0.716891383104,-,-
2019_Nov_08,34,001,2,source,3,ABSENCES,LF,target,right,aqua,imageability,conservative,no,9,1,2.45015019793,-,-
2019_Nov_08,34,001,2,source,4,YOGHURT,LF,target,right,aqua,imageability,conservative,no,9,1,1.16665298009,-,-
2019_Nov_08,34,001,2,source,5,HARDLY,HF,target,right,aqua,imageability,conservative,no,9,1,0.78357530463,-,-
2019_Nov_08,34,001,2,source,6,OUGHT,HF,target,right,aqua,imageability,liberal,no,1,0,1.00019430047,-,-
2019_Nov_08,34,001,2,source,7,MESSED,LF,target,left,yellow,pleasantness,conservative,no,2,1,1.28354560965,-,-
2019_Nov_08,34,001,2,source,8,ANIMAL,HF,target,left,yellow,pleasantness,conservative,no,1,1,2.63343126566,-,-
2019_Nov_08,34,001,2,source,9,AUDACIOUS,LF,target,left,yellow,pleasantness,conservative,no,1,1,2.46661441328,-,-
2019_Nov_08,34,001,2,source,10,POSITION,HF,target,left,yellow,pleasantness,liberal,no,3,1,1.50019466707,-,-
2019_Nov_08,34,001,2,source,11,LIKELY,HF,target,right,aqua,imageability,conservative,no,7,1,2.0834641501,-,-
2019_Nov_08,34,001,2,source,12,SIGNPOST,LF,target,left,yellow,pleasantness,conservative,no,1,1,2.61675148677,-,-
2019_Nov_08,34,001,2,source,13,ANSWER,HF,target,left,yellow,pleasantness,conservative,no,7,0,2.233476578,-,-
2019_Nov_08,34,001,2,source,14,ENTIRELY,HF,target,right,aqua,imageability,conservative,no,7,1,1.9835555813,-,-
2019_Nov_08,34,001,2,source,15,CAFETERIA,LF,target,right,aqua,imageability,conservative,no,8,1,1.33353178866,-,-
2019_Nov_08,34,001,2,source,16,BARBARIAN,LF,target,right,aqua,imageability,liberal,no,9,1,2.18356591955,-,-
2019_Nov_08,34,001,2,source,17,PAYOFF,LF,target,right,aqua,imageability,conservative,no,1,0,1.30011210771,-,-
2019_Nov_08,34,001,2,source,18,WIZENED,LF,target,left,yellow,pleasantness,liberal,no,7,0,2.20010675528,-,-
2019_Nov_08,34,001,2,source,19,MISFITS,LF,target,right,aqua,imageability,conservative,no,9,1,1.45025101421,-,-
2019_Nov_08,34,001,2,source,20,SLOWLY,HF,target,right,aqua,imageability,conservative,no,9,1,1.2500075154,-,-
2019_Nov_08,34,001,2,source,21,UTTERANCE,LF,target,right,aqua,imageability,conservative,no,1,0,1.01688984336,-,-
2019_Nov_08,34,001,2,source,22,HOEING,LF,target,left,yellow,pleasantness,liberal,no,1,1,1.11667816583,-,-
2019_Nov_08,34,001,2,source,23,SLUGS,LF,target,right,aqua,imageability,liberal,no,9,1,1.70019767323,-,-
2019_Nov_08,34,001,2,source,24,DAMASK,LF,target,left,yellow,pleasantness,liberal,no,9,0,1.81679005358,-,-
2019_Nov_08,34,001,2,source,25,OTHERS,HF,target,right,aqua,imageability,liberal,no,7,1,1.41682546759,-,-
2019_Nov_08,34,001,2,source,26,MIDDLE,HF,target,left,yellow,pleasantness,conservative,no,1,1,1.6501539373,-,-
2019_Nov_08,34,001,2,source,27,FABLE,LF,target,right,aqua,imageability,liberal,no,2,0,1.53352966235,-,-
2019_Nov_08,34,001,2,source,28,LABOUR,HF,target,right,aqua,imageability,liberal,no,9,1,1.88345564487,-,-
2019_Nov_08,34,001,2,source,29,TABLE,HF,target,left,yellow,pleasantness,conservative,no,1,1,2.3334247401,-,-
2019_Nov_08,34,001,2,source,30,BUCKED,LF,target,left,yellow,pleasantness,conservative,no,1,1,0.716896882174,-,-
2019_Nov_08,34,001,2,source,31,ADENOIDS,LF,target,right,aqua,imageability,liberal,no,1,0,1.31689380269,-,-
2019_Nov_08,34,001,2,source,32,PASSED,HF,target,left,yellow,pleasantness,liberal,no,7,0,2.28352727942,-,-
2019_Nov_08,34,001,2,source,33,AFRAID,HF,target,left,yellow,pleasantness,liberal,no,2,1,1.70020427212,-,-
2019_Nov_08,34,001,2,source,34,POUNDS,HF,target,right,aqua,imageability,conservative,no,9,1,1.45020775486,-,-
2019_Nov_08,34,001,2,source,35,EIGHT,HF,target,right,aqua,imageability,liberal,no,9,1,0.800234920268,-,-
2019_Nov_08,34,001,2,source,36,POLICE,HF,target,right,aqua,imageability,liberal,no,9,1,0.66689493917,-,-
2019_Nov_08,34,001,2,source,37,POWER,HF,target,left,yellow,pleasantness,conservative,no,9,0,1.06687162311,-,-
2019_Nov_08,34,001,2,source,38,FOLLOWED,HF,target,right,aqua,imageability,liberal,yes,9,1,0.500296583172,-,-
2019_Nov_08,34,001,2,source,39,INSIDE,HF,target,left,yellow,pleasantness,liberal,yes,9,0,0.416936915403,-,-
2019_Nov_08,34,001,2,source,40,APTLY,LF,target,left,yellow,pleasantness,liberal,no,1,1,0.766868396991,-,-
2019_Nov_08,34,001,2,source,41,PRIVATE,HF,target,left,yellow,pleasantness,liberal,no,2,1,1.78362699589,-,-
2019_Nov_08,34,001,2,source,42,OFFER,HF,target,left,yellow,pleasantness,conservative,no,7,0,1.13355774427,-,-
2019_Nov_08,34,001,2,source,43,CHURCH,HF,target,left,yellow,pleasantness,liberal,no,1,1,0.833596677682,-,-
2019_Nov_08,34,001,2,source,44,VECTORS,LF,target,right,aqua,imageability,liberal,no,9,1,1.53358318663,-,-
2019_Nov_08,34,001,2,source,45,CULINARY,LF,target,left,yellow,pleasantness,conservative,no,8,0,1.01702072123,-,-
2019_Nov_08,34,001,2,source,46,FIELD,HF,target,right,aqua,imageability,conservative,no,7,1,1.18352595964,-,-
2019_Nov_08,34,001,2,source,47,PUTTS,LF,target,right,aqua,imageability,liberal,yes,7,1,0.766936952064,-,-
2019_Nov_08,34,001,2,recog,0,ANSWER,HF,target,left,yellow,pleasantness,conservative,no,z,1,0.91685882861,1,239
2019_Nov_08,34,001,2,recog,1,PUTTS,LF,target,right,aqua,imageability,liberal,no,m,0,0.9001856486,-3,236
2019_Nov_08,34,001,2,recog,2,SLUGS,LF,target,right,aqua,imageability,liberal,no,z,1,0.883568559105,3,239
2019_Nov_08,34,001,2,recog,3,RESEARCH,HF,lure,-,-,-,liberal,no,m,1,1.05021713994,1,240
2019_Nov_08,34,001,2,recog,4,POLICE,HF,target,right,aqua,imageability,liberal,no,z,1,0.516861981409,3,243
2019_Nov_08,34,001,2,recog,5,WARDROBES,LF,lure,-,-,-,liberal,no,m,1,0.76693511904,1,244
2019_Nov_08,34,001,2,recog,6,SOMEONE,HF,lure,-,-,-,conservative,no,m,1,0.850258126342,3,247
2019_Nov_08,34,001,2,recog,7,MODERN,HF,lure,-,-,-,conservative,no,m,1,0.700345414913,3,250
2019_Nov_08,34,001,2,recog,8,LADDIE,LF,lure,-,-,-,conservative,no,m,1,0.583419790933,3,253
2019_Nov_08,34,001,2,recog,9,BLACK,HF,lure,-,-,-,liberal,no,z,0,0.866923607654,-1,252
2019_Nov_08,34,001,2,recog,10,PAYOFF,LF,target,right,aqua,imageability,conservative,no,z,1,0.583526472889,1,253
2019_Nov_08,34,001,2,recog,11,POSITION,HF,target,left,yellow,pleasantness,liberal,no,z,1,1.10023338053,3,256
2019_Nov_08,34,001,2,recog,12,POUNDS,HF,target,right,aqua,imageability,conservative,no,z,1,0.516711306895,1,257
2019_Nov_08,34,001,2,recog,13,RANGE,HF,lure,-,-,-,liberal,no,m,1,0.883565259663,1,258
2019_Nov_08,34,001,2,recog,14,ANIMAL,HF,target,left,yellow,pleasantness,conservative,no,z,1,0.500309047729,1,259
2019_Nov_08,34,001,2,recog,15,PASSED,HF,target,left,yellow,pleasantness,liberal,no,z,1,1.25019814982,3,262
2019_Nov_08,34,001,2,recog,16,DEDICATE,LF,lure,-,-,-,conservative,no,m,1,0.800288811152,3,265
2019_Nov_08,34,001,2,recog,17,BESOTTED,LF,lure,-,-,-,liberal,no,m,1,0.63365709413,1,266
2019_Nov_08,34,001,2,recog,18,DAGGERS,LF,target,left,yellow,pleasantness,conservative,no,z,1,0.516984060763,1,267
2019_Nov_08,34,001,2,recog,19,IRATE,LF,lure,-,-,-,liberal,no,m,1,0.583706109173,1,268
2019_Nov_08,34,001,2,recog,20,TOLERABLY,LF,lure,-,-,-,liberal,no,m,1,0.833559284007,1,269
2019_Nov_08,34,001,2,recog,21,APTLY,LF,target,left,yellow,pleasantness,liberal,no,z,1,0.550246101709,3,272
2019_Nov_08,34,001,2,recog,22,BEAUTIFUL,HF,lure,-,-,-,conservative,no,m,1,0.666908136937,3,275
2019_Nov_08,34,001,2,recog,23,TABLE,HF,target,left,yellow,pleasantness,conservative,no,z,1,0.58357376489,1,276
2019_Nov_08,34,001,2,recog,24,ENOUGH,HF,lure,-,-,-,liberal,no,z,0,0.533600050445,-1,275
2019_Nov_08,34,001,2,recog,25,MAILBOX,LF,lure,-,-,-,conservative,no,m,1,0.950263112166,3,278
2019_Nov_08,34,001,2,recog,26,VECTORS,LF,target,right,aqua,imageability,liberal,no,z,1,0.700275393421,3,281
2019_Nov_08,34,001,2,recog,27,OCHRE,LF,lure,-,-,-,liberal,no,z,0,0.850028631824,-1,280
2019_Nov_08,34,001,2,recog,28,FIELD,HF,target,right,aqua,imageability,conservative,no,z,1,0.783563206676,1,281
2019_Nov_08,34,001,2,recog,29,LIKELY,HF,target,right,aqua,imageability,conservative,no,z,1,0.550015873982,1,282
2019_Nov_08,34,001,2,recog,30,MIDDLE,HF,target,left,yellow,pleasantness,conservative,no,z,1,0.600303768622,1,283
2019_Nov_08,34,001,2,recog,31,TRUTH,HF,lure,-,-,-,conservative,no,z,0,0.550240236035,-3,280
2019_Nov_08,34,001,2,recog,32,OTHERS,HF,target,right,aqua,imageability,liberal,no,z,1,0.733571161998,3,283
2019_Nov_08,34,001,2,recog,33,ALLOWED,HF,lure,-,-,-,conservative,no,m,1,0.966898531895,3,286
2019_Nov_08,34,001,2,recog,34,EFFECT,HF,lure,-,-,-,conservative,yes,m,1,0.516960598064,3,289
2019_Nov_08,34,001,2,recog,35,THING,HF,lure,-,-,-,liberal,no,m,1,1.06689508581,1,290
2019_Nov_08,34,001,2,recog,36,LABOUR,HF,target,right,aqua,imageability,liberal,no,z,1,0.550350584038,3,293
2019_Nov_08,34,001,2,recog,37,URCHIN,LF,lure,-,-,-,conservative,yes,m,1,0.566918915114,3,296
2019_Nov_08,34,001,2,recog,38,UTTERANCE,LF,target,right,aqua,imageability,conservative,no,z,1,0.850025698986,1,297
2019_Nov_08,34,001,2,recog,39,AFRAID,HF,target,left,yellow,pleasantness,liberal,no,z,1,0.600239246202,3,300
2019_Nov_08,34,001,2,recog,40,QUESTION,HF,lure,-,-,-,conservative,no,m,1,0.933545939596,3,303
2019_Nov_08,34,001,2,recog,41,SIGNPOST,LF,target,left,yellow,pleasantness,conservative,no,z,1,0.916945713914,1,304
2019_Nov_08,34,001,2,recog,42,MESSED,LF,target,left,yellow,pleasantness,conservative,no,z,1,0.766905057458,1,305
2019_Nov_08,34,001,2,recog,43,ENTIRELY,HF,target,right,aqua,imageability,conservative,no,z,1,0.600272607227,1,306
2019_Nov_08,34,001,2,recog,44,WIZENED,LF,target,left,yellow,pleasantness,liberal,no,m,0,0.650245955067,-3,303
2019_Nov_08,34,001,2,recog,45,IMMEDIACY,LF,lure,-,-,-,liberal,no,z,0,1.06689875186,-1,302
2019_Nov_08,34,001,2,recog,46,TURNED,HF,lure,-,-,-,liberal,no,z,0,0.566948610092,-1,301
2019_Nov_08,34,001,2,recog,47,PLIABLE,LF,lure,-,-,-,conservative,no,m,1,0.800206325103,3,304
2019_Nov_08,34,001,2,recog,48,GEARING,LF,lure,-,-,-,conservative,no,m,1,0.95035073068,3,307
2019_Nov_08,34,001,2,recog,49,POWER,HF,target,left,yellow,pleasantness,conservative,no,z,1,0.600342262112,1,308
2019_Nov_08,34,001,2,recog,50,SLOWLY,HF,target,right,aqua,imageability,conservative,no,z,1,0.76671332322,1,309
2019_Nov_08,34,001,2,recog,51,CATALYST,LF,target,left,yellow,pleasantness,liberal,no,z,1,0.633687155712,3,312
2019_Nov_08,34,001,2,recog,52,EVIDENCE,HF,lure,-,-,-,conservative,no,m,1,1.00029475015,3,315
2019_Nov_08,34,001,2,recog,53,EIGHT,HF,target,right,aqua,imageability,liberal,no,z,1,0.500204932006,3,318
2019_Nov_08,34,001,2,recog,54,BARBARIAN,LF,target,right,aqua,imageability,liberal,no,z,1,0.816941827906,3,321
2019_Nov_08,34,001,2,recog,55,CHURCH,HF,target,left,yellow,pleasantness,liberal,no,z,1,0.533560090536,3,324
2019_Nov_08,34,001,2,recog,56,BOILERS,LF,lure,-,-,-,liberal,no,m,1,0.90025713651,1,325
2019_Nov_08,34,001,2,recog,57,TIMES,HF,lure,-,-,-,liberal,no,m,1,0.716862421335,1,326
2019_Nov_08,34,001,2,recog,58,HYPNOSIS,LF,lure,-,-,-,conservative,no,m,1,0.616961917841,3,329
2019_Nov_08,34,001,2,recog,59,SABLE,LF,lure,-,-,-,liberal,no,m,1,0.583590628705,1,330
2019_Nov_08,34,001,2,recog,60,ABSENCES,LF,target,right,aqua,imageability,conservative,no,z,1,0.516917338715,1,331
2019_Nov_08,34,001,2,recog,61,COMES,HF,lure,-,-,-,conservative,no,m,1,0.583583296611,3,334
2019_Nov_08,34,001,2,recog,62,HARDLY,HF,target,right,aqua,imageability,conservative,no,m,0,1.15016713507,-1,333
2019_Nov_08,34,001,2,recog,63,FABLE,LF,target,right,aqua,imageability,liberal,no,z,1,0.650245221858,3,336
2019_Nov_08,34,001,2,recog,64,SYMBOLIZE,LF,lure,-,-,-,liberal,no,m,1,0.700291524027,1,337
2019_Nov_08,34,001,2,recog,65,FOLLOWED,HF,target,right,aqua,imageability,liberal,no,z,1,0.80024371878,3,340
2019_Nov_08,34,001,2,recog,66,CULINARY,LF,target,left,yellow,pleasantness,conservative,no,z,1,0.666864510983,1,341
2019_Nov_08,34,001,2,recog,67,ADENOIDS,LF,target,right,aqua,imageability,liberal,no,m,0,0.733672344884,-3,338
2019_Nov_08,34,001,2,recog,68,MISFITS,LF,target,right,aqua,imageability,conservative,no,z,1,0.550198809708,1,339
2019_Nov_08,34,001,2,recog,69,VARIOUS,HF,lure,-,-,-,conservative,no,m,1,0.850304685134,3,342
2019_Nov_08,34,001,2,recog,70,OUGHT,HF,target,right,aqua,imageability,liberal,no,z,1,0.800247384826,3,345
2019_Nov_08,34,001,2,recog,71,DELEGATED,LF,lure,-,-,-,liberal,no,m,1,0.800232354035,1,346
2019_Nov_08,34,001,2,recog,72,EIDERDOWN,LF,lure,-,-,-,conservative,no,z,0,0.816658809106,-3,343
2019_Nov_08,34,001,2,recog,73,BATCHES,LF,lure,-,-,-,conservative,no,m,1,0.683573984853,3,346
2019_Nov_08,34,001,2,recog,74,DAMASK,LF,target,left,yellow,pleasantness,liberal,yes,m,0,0.616711526856,-3,343
2019_Nov_08,34,001,2,recog,75,SNOBBISH,LF,lure,-,-,-,conservative,no,m,1,0.650289581023,3,346
2019_Nov_08,34,001,2,recog,76,CAFETERIA,LF,target,right,aqua,imageability,conservative,no,z,1,0.650252920556,1,347
2019_Nov_08,34,001,2,recog,77,YOGHURT,LF,target,right,aqua,imageability,conservative,no,z,1,0.800237853104,1,348
2019_Nov_08,34,001,2,recog,78,PRIVATE,HF,target,left,yellow,pleasantness,liberal,no,z,1,0.666889440099,3,351
2019_Nov_08,34,001,2,recog,79,OPENED,HF,lure,-,-,-,liberal,no,z,0,0.483588209114,-1,350
2019_Nov_08,34,001,2,recog,80,OFFER,HF,target,left,yellow,pleasantness,conservative,no,z,1,1.00023499359,1,351
2019_Nov_08,34,001,2,recog,81,WHETHER,HF,lure,-,-,-,conservative,no,m,1,0.550212740684,3,354
2019_Nov_08,34,001,2,recog,82,INSIDE,HF,target,left,yellow,pleasantness,liberal,no,z,1,0.800192760731,3,357
2019_Nov_08,34,001,2,recog,83,AUDACIOUS,LF,target,left,yellow,pleasantness,conservative,no,z,1,0.750236643308,1,358
2019_Nov_08,34,001,2,recog,84,LATER,HF,lure,-,-,-,conservative,no,m,1,0.733433685249,3,361
2019_Nov_08,34,001,2,recog,85,CAUGHT,HF,lure,-,-,-,liberal,no,z,0,0.700195107001,-1,360
2019_Nov_08,34,001,2,recog,86,NEBULOUS,LF,lure,-,-,-,conservative,no,m,1,0.866902344583,3,363
2019_Nov_08,34,001,2,recog,87,MAKES,HF,lure,-,-,-,liberal,yes,m,1,0.466616246305,1,364
2019_Nov_08,34,001,2,recog,88,BUCKED,LF,target,left,yellow,pleasantness,conservative,no,z,1,0.75021941289,1,365
2019_Nov_08,34,001,2,recog,89,JEWELLED,LF,target,left,yellow,pleasantness,liberal,no,m,0,0.700163212396,-3,362
2019_Nov_08,34,001,2,recog,90,HOEING,LF,target,left,yellow,pleasantness,liberal,no,z,1,0.866896845513,3,365
2019_Nov_08,34,001,2,recog,91,OPTIC,LF,lure,-,-,-,liberal,no,z,0,0.783547076072,-1,364
2019_Nov_08,34,001,2,recog,92,AROUND,HF,lure,-,-,-,liberal,no,z,0,0.60019818648,-1,363
2019_Nov_08,34,001,2,recog,93,CUDDLE,LF,lure,-,-,-,liberal,no,m,1,0.816901867997,1,364
2019_Nov_08,34,001,2,recog,94,RUNNING,HF,lure,-,-,-,liberal,no,m,1,0.850255193505,1,365
2019_Nov_08,34,001,2,recog,95,KIMONO,LF,lure,-,-,-,conservative,no,m,1,0.583579997169,3,368
2019_Nov_08,34,001,3,source,0,AHEAD,HF,target,right,aqua,imageability,conservative,no,7,1,1.81682671404,-,-
2019_Nov_08,34,001,3,source,1,TRADE,HF,target,left,yellow,pleasantness,conservative,no,8,0,2.83340494344,-,-
2019_Nov_08,34,001,3,source,2,TAWNY,LF,target,right,aqua,imageability,liberal,no,9,1,1.21678763399,-,-
2019_Nov_08,34,001,3,source,3,EAVES,LF,target,right,aqua,imageability,liberal,no,9,1,0.750191550936,-,-
2019_Nov_08,34,001,3,source,4,TANGIER,LF,target,left,yellow,pleasantness,liberal,no,9,0,1.16684764717,-,-
2019_Nov_08,34,001,3,source,5,ALONE,HF,target,right,aqua,imageability,conservative,no,9,1,1.30000249291,-,-
2019_Nov_08,34,001,3,source,6,CUISINE,LF,target,left,yellow,pleasantness,liberal,no,1,1,2.38348570645,-,-
2019_Nov_08,34,001,3,source,7,MERELY,HF,target,left,yellow,pleasantness,conservative,no,1,1,2.28353937737,-,-
2019_Nov_08,34,001,3,source,8,WAITING,HF,target,left,yellow,pleasantness,liberal,yes,1,1,0.533349659461,-,-
2019_Nov_08,34,001,3,source,9,FINAL,HF,target,left,yellow,pleasantness,conservative,no,1,1,0.950233050583,-,-
2019_Nov_08,34,001,3,source,10,AMICABLY,LF,target,right,aqua,imageability,liberal,no,9,1,2.36666111872,-,-
2019_Nov_08,34,001,3,source,11,DIOCESE,LF,target,right,aqua,imageability,conservative,no,8,1,1.33351419163,-,-
2019_Nov_08,34,001,3,source,12,WAYSIDE,LF,target,left,yellow,pleasantness,conservative,no,8,0,1.0501907444,-,-
2019_Nov_08,34,001,3,source,13,BEDLAM,LF,target,right,aqua,imageability,liberal,no,9,1,1.63327472547,-,-
2019_Nov_08,34,001,3,source,14,UTILIZE,LF,target,right,aqua,imageability,conservative,no,9,1,0.817002317674,-,-
2019_Nov_08,34,001,3,source,15,FREEDOM,HF,target,left,yellow,pleasantness,conservative,no,1,1,1.41684563084,-,-
2019_Nov_08,34,001,3,source,16,NEWMARKET,LF,target,left,yellow,pleasantness,liberal,no,1,1,1.11684020509,-,-
2019_Nov_08,34,001,3,source,17,ACROSS,HF,target,right,aqua,imageability,conservative,no,2,0,2.01689350941,-,-
2019_Nov_08,34,001,3,source,18,OUTSIDE,HF,target,left,yellow,pleasantness,conservative,no,1,1,0.81690370102,-,-
2019_Nov_08,34,001,3,source,19,CAPITAL,HF,target,right,aqua,imageability,liberal,no,9,1,1.76673715252,-,-
2019_Nov_08,34,001,3,source,20,PESTERED,LF,target,right,aqua,imageability,liberal,no,2,0,0.983551915253,-,-
2019_Nov_08,34,001,3,source,21,SOFTENING,LF,target,left,yellow,pleasantness,conservative,no,1,1,1.6333242171,-,-
2019_Nov_08,34,001,3,source,22,BEYOND,HF,target,right,aqua,imageability,liberal,no,2,0,1.43332890964,-,-
2019_Nov_08,34,001,3,source,23,APPEARED,HF,target,right,aqua,imageability,conservative,yes,2,0,0.483559980556,-,-
2019_Nov_08,34,001,3,source,24,TALKING,HF,target,right,aqua,imageability,liberal,no,3,0,1.76683063671,-,-
2019_Nov_08,34,001,3,source,25,ENERGY,HF,target,right,aqua,imageability,conservative,no,9,1,1.70019107435,-,-
2019_Nov_08,34,001,3,source,26,IMPORTANT,HF,target,right,aqua,imageability,liberal,no,8,1,1.45020408881,-,-
2019_Nov_08,34,001,3,source,27,DEMEANOUR,LF,target,left,yellow,pleasantness,conservative,no,1,1,2.60014722843,-,-
2019_Nov_08,34,001,3,source,28,DECIDED,HF,target,right,aqua,imageability,liberal,yes,1,0,1.2669087235,-,-
2019_Nov_08,34,001,3,source,29,YOUNG,HF,target,left,yellow,pleasantness,liberal,no,1,1,1.84996557582,-,-
2019_Nov_08,34,001,3,source,30,EXACTLY,HF,target,left,yellow,pleasantness,liberal,no,2,1,2.53347980412,-,-
2019_Nov_08,34,001,3,source,31,VALUE,HF,target,left,yellow,pleasantness,liberal,no,3,1,1.36684368784,-,-
2019_Nov_08,34,001,3,source,32,EITHER,HF,target,left,yellow,pleasantness,liberal,no,2,1,2.66686047833,-,-
2019_Nov_08,34,001,3,source,33,DREADING,LF,target,right,aqua,imageability,conservative,no,1,0,1.55026369873,-,-
2019_Nov_08,34,001,3,source,34,ITSELF,HF,target,right,aqua,imageability,liberal,no,9,1,1.36682132495,-,-
2019_Nov_08,34,001,3,source,35,LAMENT,LF,target,left,yellow,pleasantness,conservative,no,8,0,2.0168689469,-,-
2019_Nov_08,34,001,3,source,36,EMULATION,LF,target,left,yellow,pleasantness,conservative,no,7,0,3.20008219276,-,-
2019_Nov_08,34,001,3,source,37,UNSAVOURY,LF,target,left,yellow,pleasantness,liberal,no,7,0,0.81690370102,-,-
2019_Nov_08,34,001,3,source,38,AVIDLY,LF,target,right,aqua,imageability,conservative,yes,7,1,0.50008798512,-,-
2019_Nov_08,34,001,3,source,39,ALERTING,LF,target,left,yellow,pleasantness,liberal,no,3,1,1.21689174971,-,-
2019_Nov_08,34,001,3,source,40,TUFTS,LF,target,right,aqua,imageability,conservative,no,9,1,1.51687627899,-,-
2019_Nov_08,34,001,3,source,41,HIMSELF,HF,target,right,aqua,imageability,conservative,no,9,1,1.28332344723,-,-
2019_Nov_08,34,001,3,source,42,LEVEL,HF,target,left,yellow,pleasantness,conservative,no,9,0,2.16677689247,-,-
2019_Nov_08,34,001,3,source,43,BAYING,LF,target,left,yellow,pleasantness,liberal,no,7,0,1.5000395933,-,-
2019_Nov_08,34,001,3,source,44,TASSELS,LF,target,right,aqua,imageability,liberal,no,9,1,0.866886947188,-,-
2019_Nov_08,34,001,3,source,45,OBVIOUSLY,HF,target,left,yellow,pleasantness,liberal,no,7,0,1.51690377434,-,-
2019_Nov_08,34,001,3,source,46,JEALOUSLY,LF,target,left,yellow,pleasantness,conservative,no,8,0,1.71686242134,-,-
2019_Nov_08,34,001,3,source,47,WASHBASIN,LF,target,right,aqua,imageability,conservative,no,9,1,1.13355664445,-,-
2019_Nov_08,34,001,3,recog,0,CONCERNED,HF,lure,-,-,-,conservative,no,z,0,1.90017978293,-3,365
2019_Nov_08,34,001,3,recog,1,FERRET,LF,lure,-,-,-,conservative,no,m,1,0.950277409747,3,368
2019_Nov_08,34,001,3,recog,2,ARCADES,LF,lure,-,-,-,conservative,no,m,1,0.750255706751,3,371
2019_Nov_08,34,001,3,recog,3,FREEDOM,HF,target,left,yellow,pleasantness,conservative,no,z,1,0.550203575569,1,372
2019_Nov_08,34,001,3,recog,4,CRICKETER,LF,lure,-,-,-,conservative,no,m,1,0.700198039838,3,375
2019_Nov_08,34,001,3,recog,5,BRING,HF,lure,-,-,-,conservative,yes,m,1,0.466874335987,3,378
2019_Nov_08,34,001,3,recog,6,AHEAD,HF,target,right,aqua,imageability,conservative,no,z,1,0.650223958787,1,379
2019_Nov_08,34,001,3,recog,7,WAITING,HF,target,left,yellow,pleasantness,liberal,no,z,1,0.666948096845,3,382
2019_Nov_08,34,001,3,recog,8,ALERTING,LF,target,left,yellow,pleasantness,liberal,no,z,1,0.683543923271,3,385
2019_Nov_08,34,001,3,recog,9,FEUDALISM,LF,lure,-,-,-,liberal,no,m,1,0.650186198508,1,386
2019_Nov_08,34,001,3,recog,10,COILING,LF,lure,-,-,-,liberal,no,m,1,0.666947363636,1,387
2019_Nov_08,34,001,3,recog,11,TALKING,HF,target,right,aqua,imageability,liberal,no,z,1,0.516911839644,3,390
2019_Nov_08,34,001,3,recog,12,ENERGY,HF,target,right,aqua,imageability,conservative,no,z,1,0.616914259235,1,391
2019_Nov_08,34,001,3,recog,13,NIMBLE,LF,lure,-,-,-,liberal,no,m,1,0.717005397154,1,392
2019_Nov_08,34,001,3,recog,14,TRADE,HF,target,left,yellow,pleasantness,conservative,no,z,1,0.500246358333,1,393
2019_Nov_08,34,001,3,recog,15,OSTRACISM,LF,lure,-,-,-,conservative,no,m,1,0.566952276139,3,396
2019_Nov_08,34,001,3,recog,16,MERELY,HF,target,left,yellow,pleasantness,conservative,no,z,1,0.566741111854,1,397
2019_Nov_08,34,001,3,recog,17,CAPITAL,HF,target,right,aqua,imageability,liberal,no,z,1,0.633631798409,3,400
2019_Nov_08,34,001,3,recog,18,UNSAVOURY,LF,target,left,yellow,pleasantness,liberal,no,z,1,0.583578897356,3,403
2019_Nov_08,34,001,3,recog,19,REBATE,LF,lure,-,-,-,conservative,no,m,1,0.61701140947,3,406
2019_Nov_08,34,001,3,recog,20,DIOCESE,LF,target,right,aqua,imageability,conservative,no,m,0,0.583583296611,-1,405
2019_Nov_08,34,001,3,recog,21,SAWDUST,LF,lure,-,-,-,liberal,no,m,1,0.966916862129,1,406
2019_Nov_08,34,001,3,recog,22,CERTAIN,HF,lure,-,-,-,liberal,no,z,0,0.566959241627,-1,405
2019_Nov_08,34,001,3,recog,23,LEVEL,HF,target,left,yellow,pleasantness,conservative,yes,m,0,0.466884600918,-1,404
2019_Nov_08,34,001,3,recog,24,DREADING,LF,target,right,aqua,imageability,conservative,no,z,1,0.500348641033,1,405
2019_Nov_08,34,001,3,recog,25,NICETIES,LF,lure,-,-,-,conservative,no,m,1,0.533476504675,3,408
2019_Nov_08,34,001,3,recog,26,DECIDED,HF,target,right,aqua,imageability,liberal,no,z,1,0.483600307069,3,411
2019_Nov_08,34,001,3,recog,27,TANGIER,LF,target,left,yellow,pleasantness,liberal,no,z,1,0.883545096406,3,414
2019_Nov_08,34,001,3,recog,28,PESTERED,LF,target,right,aqua,imageability,liberal,no,z,1,0.616912059608,3,417
2019_Nov_08,34,001,3,recog,29,TROUBLE,HF,lure,-,-,-,liberal,no,z,0,0.883617684129,-1,416
2019_Nov_08,34,001,3,recog,30,FINAL,HF,target,left,yellow,pleasantness,conservative,no,z,1,0.650032957759,1,417
2019_Nov_08,34,001,3,recog,31,ACTION,HF,lure,-,-,-,liberal,no,m,1,0.733567129346,1,418
2019_Nov_08,34,001,3,recog,32,AMICABLY,LF,target,right,aqua,imageability,liberal,no,z,1,0.566959241627,3,421
2019_Nov_08,34,001,3,recog,33,GNARLED,LF,lure,-,-,-,conservative,no,m,1,0.583576331123,3,424
2019_Nov_08,34,001,3,recog,34,POINT,HF,lure,-,-,-,conservative,no,m,1,0.633590005477,3,427
2019_Nov_08,34,001,3,recog,35,PEACEABLY,LF,lure,-,-,-,liberal,no,m,1,0.883573324965,1,428
2019_Nov_08,34,001,3,recog,36,PERHAPS,HF,lure,-,-,-,liberal,no,m,1,0.650233857114,1,429
2019_Nov_08,34,001,3,recog,37,UNVEILED,LF,lure,-,-,-,liberal,no,m,1,0.550306958084,1,430
2019_Nov_08,34,001,3,recog,38,SOFTENING,LF,target,left,yellow,pleasantness,conservative,no,z,1,0.58363425466,1,431
2019_Nov_08,34,001,3,recog,39,APPEARED,HF,target,right,aqua,imageability,conservative,no,z,1,0.566946410464,1,432
2019_Nov_08,34,001,3,recog,40,PLEASE,HF,lure,-,-,-,conservative,no,m,1,0.633574241477,3,435
2019_Nov_08,34,001,3,recog,41,WHATEVER,HF,lure,-,-,-,conservative,no,m,1,0.78355807421,3,438
2019_Nov_08,34,001,3,recog,42,HIMSELF,HF,target,right,aqua,imageability,conservative,no,z,1,0.616992712633,1,439
2019_Nov_08,34,001,3,recog,43,CUISINE,LF,target,left,yellow,pleasantness,liberal,no,z,1,0.650241922416,3,442
2019_Nov_08,34,001,3,recog,44,JAUNDICE,LF,lure,-,-,-,liberal,yes,m,1,0.433624392995,1,443
2019_Nov_08,34,001,3,recog,45,BEHIND,HF,lure,-,-,-,conservative,no,z,0,0.533530762164,-3,440
2019_Nov_08,34,001,3,recog,46,BUILDING,HF,lure,-,-,-,liberal,no,m,1,0.66689493917,1,441
2019_Nov_08,34,001,3,recog,47,TUFTS,LF,target,right,aqua,imageability,conservative,no,z,1,0.600247311505,1,442
2019_Nov_08,34,001,3,recog,48,ASKED,HF,lure,-,-,-,liberal,no,m,1,1.43348984908,1,443
2019_Nov_08,34,001,3,recog,49,SLIGHTLY,HF,lure,-,-,-,conservative,no,z,0,0.5502453685,-3,440
2019_Nov_08,34,001,3,recog,50,RIVER,HF,lure,-,-,-,conservative,no,m,1,0.63354381329,3,443
2019_Nov_08,34,001,3,recog,51,ACROSS,HF,target,right,aqua,imageability,conservative,no,z,1,0.71666372161,1,444
2019_Nov_08,34,001,3,recog,52,DYNAMISM,LF,lure,-,-,-,liberal,no,m,1,0.70002683546,1,445
2019_Nov_08,34,001,3,recog,53,OBVIOUSLY,HF,target,left,yellow,pleasantness,liberal,no,z,1,0.900281699021,3,448
2019_Nov_08,34,001,3,recog,54,IMPORTANT,HF,target,right,aqua,imageability,liberal,no,z,1,0.483496557949,3,451
2019_Nov_08,34,001,3,recog,55,AVIDLY,LF,target,right,aqua,imageability,conservative,no,z,1,0.750227478193,1,452
2019_Nov_08,34,001,3,recog,56,EITHER,HF,target,left,yellow,pleasantness,liberal,no,z,1,0.533383020485,3,455
2019_Nov_08,34,001,3,recog,57,BEGAN,HF,lure,-,-,-,conservative,no,m,1,1.33358164689,3,458
2019_Nov_08,34,001,3,recog,58,LUGGED,LF,lure,-,-,-,conservative,no,m,1,0.666923534332,3,461
2019_Nov_08,34,001,3,recog,59,RABBIS,LF,lure,-,-,-,conservative,no,m,1,0.550205041987,3,464
2019_Nov_08,34,001,3,recog,60,EMULATION,LF,target,left,yellow,pleasantness,conservative,no,z,1,0.550247934732,1,465
2019_Nov_08,34,001,3,recog,61,JEALOUSLY,LF,target,left,yellow,pleasantness,conservative,no,z,1,0.583614458008,1,466
2019_Nov_08,34,001,3,recog,62,KITCHEN,HF,lure,-,-,-,liberal,no,m,1,0.783577504258,1,467
2019_Nov_08,34,001,3,recog,63,AVENGE,LF,lure,-,-,-,conservative,no,m,1,0.66692170131,3,470
2019_Nov_08,34,001,3,recog,64,EXACTLY,HF,target,left,yellow,pleasantness,liberal,no,z,1,0.883569658918,3,473
2019_Nov_08,34,001,3,recog,65,SPOKE,HF,lure,-,-,-,liberal,no,m,1,0.6002469449,1,474
2019_Nov_08,34,001,3,recog,66,LARGE,HF,lure,-,-,-,liberal,no,m,1,0.500202365773,1,475
2019_Nov_08,34,001,3,recog,67,KERNEL,LF,lure,-,-,-,liberal,no,m,1,0.533564123189,1,476
2019_Nov_08,34,001,3,recog,68,ERADICATE,LF,lure,-,-,-,liberal,no,z,0,0.816945127347,-1,475
2019_Nov_08,34,001,3,recog,69,MOPED,LF,lure,-,-,-,conservative,no,m,1,0.616931489654,3,478
2019_Nov_08,34,001,3,recog,70,ITSELF,HF,target,right,aqua,imageability,liberal,no,z,1,0.566912316231,3,481
2019_Nov_08,34,001,3,recog,71,LAMENT,LF,target,left,yellow,pleasantness,conservative,no,z,1,0.750039043396,1,482
2019_Nov_08,34,001,3,recog,72,UTILIZE,LF,target,right,aqua,imageability,conservative,no,z,1,0.650240455997,1,483
2019_Nov_08,34,001,3,recog,73,TOXICITY,LF,lure,-,-,-,conservative,no,m,1,0.70003930002,3,486
2019_Nov_08,34,001,3,recog,74,TASSELS,LF,target,right,aqua,imageability,liberal,no,z,1,1.11687723216,3,489
2019_Nov_08,34,001,3,recog,75,EAVES,LF,target,right,aqua,imageability,liberal,no,m,0,0.766870963224,-3,486
2019_Nov_08,34,001,3,recog,76,OUTSIDE,HF,target,left,yellow,pleasantness,conservative,no,z,1,0.866992895934,1,487
2019_Nov_08,34,001,3,recog,77,NEWMARKET,LF,target,left,yellow,pleasantness,liberal,yes,z,1,0.733586925998,3,490
2019_Nov_08,34,001,3,recog,78,TOADS,LF,lure,-,-,-,liberal,no,m,1,0.633350979238,1,491
2019_Nov_08,34,001,3,recog,79,EXCEPT,HF,lure,-,-,-,liberal,no,z,0,1.11688419765,-1,490
2019_Nov_08,34,001,3,recog,80,BEDLAM,LF,target,right,aqua,imageability,liberal,no,z,1,0.883564159849,3,493
2019_Nov_08,34,001,3,recog,81,VALUE,HF,target,left,yellow,pleasantness,liberal,no,z,1,0.733523136787,3,496
2019_Nov_08,34,001,3,recog,82,COUNCIL,HF,lure,-,-,-,liberal,no,m,1,0.600357292903,1,497
2019_Nov_08,34,001,3,recog,83,TAWNY,LF,target,right,aqua,imageability,liberal,no,m,0,0.683577650901,-3,494
2019_Nov_08,34,001,3,recog,84,WAYSIDE,LF,target,left,yellow,pleasantness,conservative,no,z,1,1.00023206075,1,495
2019_Nov_08,34,001,3,recog,85,BEYOND,HF,target,right,aqua,imageability,liberal,no,z,1,0.733616620976,3,498
2019_Nov_08,34,001,3,recog,86,TREES,HF,lure,-,-,-,conservative,no,m,1,0.716948573431,3,501
2019_Nov_08,34,001,3,recog,87,BAYING,LF,target,left,yellow,pleasantness,liberal,no,z,1,0.683609178901,3,504
2019_Nov_08,34,001,3,recog,88,MICROCOSM,LF,lure,-,-,-,liberal,no,m,1,0.583530138935,1,505
2019_Nov_08,34,001,3,recog,89,HAPPEN,HF,lure,-,-,-,liberal,no,m,1,0.716906413895,1,506
2019_Nov_08,34,001,3,recog,90,YOUNG,HF,target,left,yellow,pleasantness,liberal,no,z,1,0.833566249495,3,509
2019_Nov_08,34,001,3,recog,91,WASHBASIN,LF,target,right,aqua,imageability,conservative,no,z,1,0.666908503542,1,510
2019_Nov_08,34,001,3,recog,92,ALONE,HF,target,right,aqua,imageability,conservative,no,z,1,1.50019979954,1,511
2019_Nov_08,34,001,3,recog,93,DEMEANOUR,LF,target,left,yellow,pleasantness,conservative,no,z,1,0.683617244204,1,512
2019_Nov_08,34,001,3,recog,94,WRONG,HF,lure,-,-,-,conservative,no,m,1,0.683530725503,3,515
2019_Nov_08,34,001,3,recog,95,SUDDENLY,HF,lure,-,-,-,conservative,no,m,1,0.883556461151,3,518
2019_Nov_08,34,001,4,source,0,HOTEL,HF,target,left,yellow,pleasantness,conservative,no,1,1,2.38349560478,-,-
2019_Nov_08,34,001,4,source,1,AGELESS,LF,target,right,aqua,imageability,liberal,no,9,1,1.73347987744,-,-
2019_Nov_08,34,001,4,source,2,AREAS,HF,target,left,yellow,pleasantness,conservative,yes,9,0,0.500091651165,-,-
2019_Nov_08,34,001,4,source,3,HANDS,HF,target,left,yellow,pleasantness,conservative,no,1,1,1.41687129317,-,-
2019_Nov_08,34,001,4,source,4,OMITTING,LF,target,left,yellow,pleasantness,conservative,no,1,1,1.08356093373,-,-
2019_Nov_08,34,001,4,source,5,PHOBIC,LF,target,left,yellow,pleasantness,conservative,no,1,1,0.866857618815,-,-
2019_Nov_08,34,001,4,source,6,FESTERING,LF,target,right,aqua,imageability,conservative,no,8,1,1.66685937852,-,-
2019_Nov_08,34,001,4,source,7,SANDAL,LF,target,right,aqua,imageability,liberal,no,9,1,1.75028650154,-,-
2019_Nov_08,34,001,4,source,8,NOMAD,LF,target,left,yellow,pleasantness,liberal,no,9,0,1.30020779152,-,-
2019_Nov_08,34,001,4,source,9,ROTARY,LF,target,left,yellow,pleasantness,conservative,no,1,1,1.0000153974,-,-
2019_Nov_08,34,001,4,source,10,GLEANED,LF,target,right,aqua,imageability,conservative,yes,1,0,0.500228761309,-,-
2019_Nov_08,34,001,4,source,11,ALTHOUGH,HF,target,left,yellow,pleasantness,liberal,no,1,1,0.767005140531,-,-
2019_Nov_08,34,001,4,source,12,INCLUDING,HF,target,right,aqua,imageability,conservative,no,9,1,1.31683294632,-,-
2019_Nov_08,34,001,4,source,13,TRYING,HF,target,right,aqua,imageability,conservative,no,8,1,1.716647591,-,-
2019_Nov_08,34,001,4,source,14,HIGHER,HF,target,left,yellow,pleasantness,liberal,no,1,1,1.8835051365,-,-
2019_Nov_08,34,001,4,source,15,USUAL,HF,target,right,aqua,imageability,conservative,yes,1,0,0.533700500122,-,-
2019_Nov_08,34,001,4,source,16,VORACIOUS,LF,target,right,aqua,imageability,conservative,no,8,1,2.08351620796,-,-
2019_Nov_08,34,001,4,source,17,ENDEARING,LF,target,left,yellow,pleasantness,liberal,no,1,1,1.26697067969,-,-
2019_Nov_08,34,001,4,source,18,WEEKS,HF,target,right,aqua,imageability,conservative,no,2,0,1.85014887815,-,-
2019_Nov_08,34,001,4,source,19,TIGHTNESS,LF,target,right,aqua,imageability,liberal,no,9,1,2.18347830104,-,-
2019_Nov_08,34,001,4,source,20,MOUTH,HF,target,left,yellow,pleasantness,liberal,no,1,1,0.866700712019,-,-
2019_Nov_08,34,001,4,source,21,BECAME,HF,target,right,aqua,imageability,liberal,no,1,0,1.03340904942,-,-
2019_Nov_08,34,001,4,source,22,SYNDICATE,LF,target,right,aqua,imageability,liberal,no,8,1,1.53334819304,-,-
2019_Nov_08,34,001,4,source,23,GARDEN,HF,target,right,aqua,imageability,conservative,no,8,1,3.23343368525,-,-
2019_Nov_08,34,001,4,source,24,WILDFOWL,LF,target,left,yellow,pleasantness,conservative,no,2,1,2.03329650179,-,-
2019_Nov_08,34,001,4,source,25,CENTRAL,HF,target,right,aqua,imageability,liberal,no,8,1,0.933541540341,-,-
2019_Nov_08,34,001,4,source,26,JUDICIOUS,LF,target,left,yellow,pleasantness,liberal,no,1,1,1.30022722157,-,-
2019_Nov_08,34,001,4,source,27,FELLS,LF,target,right,aqua,imageability,liberal,no,3,0,1.28351958072,-,-
2019_Nov_08,34,001,4,source,28,ECHELONS,LF,target,left,yellow,pleasantness,liberal,no,2,1,0.983519287438,-,-
2019_Nov_08,34,001,4,source,29,LIVED,HF,target,right,aqua,imageability,liberal,no,2,0,0.8499245161,-,-
2019_Nov_08,34,001,4,source,30,KNOWLEDGE,HF,target,left,yellow,pleasantness,conservative,no,8,0,1.36691040989,-,-
2019_Nov_08,34,001,4,source,31,FUSELAGE,LF,target,right,aqua,imageability,liberal,no,1,0,0.766730920244,-,-
2019_Nov_08,34,001,4,source,32,AMONG,HF,target,left,yellow,pleasantness,liberal,no,1,1,2.21688955008,-,-
2019_Nov_08,34,001,4,source,33,ENMESHED,LF,target,left,yellow,pleasantness,conservative,no,1,1,0.783524346582,-,-
2019_Nov_08,34,001,4,source,34,ATTACK,HF,target,right,aqua,imageability,liberal,no,9,1,1.71685215641,-,-
2019_Nov_08,34,001,4,source,35,TIRADE,LF,target,right,aqua,imageability,conservative,no,9,1,0.983570978696,-,-
2019_Nov_08,34,001,4,source,36,REQUIRED,HF,target,right,aqua,imageability,liberal,no,9,1,1.33354205359,-,-
2019_Nov_08,34,001,4,source,37,ANYONE,HF,target,left,yellow,pleasantness,conservative,no,1,1,0.966981751153,-,-
2019_Nov_08,34,001,4,source,38,DOING,HF,target,left,yellow,pleasantness,liberal,no,2,1,0.883549495662,-,-
2019_Nov_08,34,001,4,source,39,SOCIAL,HF,target,right,aqua,imageability,liberal,yes,2,0,0.966889366778,-,-
2019_Nov_08,34,001,4,source,40,HYSTERICS,LF,target,left,yellow,pleasantness,liberal,no,3,1,1.06680820051,-,-
2019_Nov_08,34,001,4,source,41,GOADED,LF,target,left,yellow,pleasantness,conservative,no,7,0,1.30023052101,-,-
2019_Nov_08,34,001,4,source,42,RAREFIED,LF,target,right,aqua,imageability,conservative,no,8,1,0.950231950769,-,-
2019_Nov_08,34,001,4,source,43,CALLED,HF,target,right,aqua,imageability,conservative,no,9,1,2.2502201461,-,-
2019_Nov_08,34,001,4,source,44,WETTER,LF,target,right,aqua,imageability,conservative,no,9,1,0.800307141385,-,-
2019_Nov_08,34,001,4,source,45,QUICKLY,HF,target,left,yellow,pleasantness,liberal,no,1,1,1.93354850583,-,-
2019_Nov_08,34,001,4,source,46,FEIGNED,LF,target,left,yellow,pleasantness,liberal,no,1,1,1.18352449322,-,-
2019_Nov_08,34,001,4,source,47,BETTER,HF,target,left,yellow,pleasantness,conservative,no,2,1,1.08355653447,-,-
2019_Nov_08,34,001,4,recog,0,CENTRAL,HF,target,right,aqua,imageability,liberal,no,z,1,0.783545609653,3,521
2019_Nov_08,34,001,4,recog,1,ACCORDING,HF,lure,-,-,-,conservative,no,m,1,0.966943624268,3,524
2019_Nov_08,34,001,4,recog,2,REWRITE,LF,lure,-,-,-,liberal,no,m,1,0.666952129496,1,525
2019_Nov_08,34,001,4,recog,3,DONATE,LF,lure,-,-,-,liberal,no,m,1,0.666873676099,1,526
2019_Nov_08,34,001,4,recog,4,FUTURE,HF,lure,-,-,-,conservative,no,m,1,0.6335760745,3,529
2019_Nov_08,34,001,4,recog,5,NEARLY,HF,lure,-,-,-,conservative,no,z,0,1.00023316056,-3,526
2019_Nov_08,34,001,4,recog,6,ECONOMIC,HF,lure,-,-,-,liberal,no,m,1,0.683532925131,1,527
2019_Nov_08,34,001,4,recog,7,ORDER,HF,lure,-,-,-,conservative,no,z,0,0.916920051589,-3,524
2019_Nov_08,34,001,4,recog,8,LEDGES,LF,lure,-,-,-,liberal,no,m,1,0.633576441105,1,525
2019_Nov_08,34,001,4,recog,9,KANGAROO,LF,lure,-,-,-,conservative,no,m,1,0.633576441104,3,528
2019_Nov_08,34,001,4,recog,10,SOCIAL,HF,target,right,aqua,imageability,liberal,no,m,0,0.783462756999,-3,525
2019_Nov_08,34,001,4,recog,11,HADJI,LF,lure,-,-,-,liberal,no,m,1,1.66685387945,1,526
2019_Nov_08,34,001,4,recog,12,SYNDICATE,LF,target,right,aqua,imageability,liberal,no,z,1,0.583649285451,3,529
2019_Nov_08,34,001,4,recog,13,RATHER,HF,lure,-,-,-,liberal,no,m,1,1.03353846086,1,530
2019_Nov_08,34,001,4,recog,14,VINEYARDS,LF,lure,-,-,-,conservative,no,m,1,0.783556607792,3,533
2019_Nov_08,34,001,4,recog,15,AMONG,HF,target,left,yellow,pleasantness,liberal,no,z,1,0.583549202378,3,536
2019_Nov_08,34,001,4,recog,16,WALKED,HF,lure,-,-,-,liberal,no,z,0,0.883571858547,-1,535
2019_Nov_08,34,001,4,recog,17,SYRINGE,LF,lure,-,-,-,conservative,no,z,0,0.766943184343,-3,532
2019_Nov_08,34,001,4,recog,18,ANVIL,LF,lure,-,-,-,conservative,no,m,1,0.566965473906,3,535
2019_Nov_08,34,001,4,recog,19,VORACIOUS,LF,target,right,aqua,imageability,conservative,no,z,1,0.683574351458,1,536
2019_Nov_08,34,001,4,recog,20,LETTER,HF,lure,-,-,-,liberal,no,m,1,0.733623586464,1,537
2019_Nov_08,34,001,4,recog,21,SITTING,HF,lure,-,-,-,liberal,no,z,0,0.650185465299,-1,536
2019_Nov_08,34,001,4,recog,22,RUFFLES,LF,lure,-,-,-,liberal,no,m,1,0.816860075066,1,537
2019_Nov_08,34,001,4,recog,23,ZIPPED,LF,lure,-,-,-,conservative,no,m,1,0.600219082945,3,540
2019_Nov_08,34,001,4,recog,24,TIGHTNESS,LF,target,right,aqua,imageability,liberal,no,z,1,0.566906450556,3,543
2019_Nov_08,34,001,4,recog,25,DUELLING,LF,lure,-,-,-,liberal,yes,m,1,0.417090522757,1,544
2019_Nov_08,34,001,4,recog,26,ANYONE,HF,target,left,yellow,pleasantness,conservative,no,z,1,0.583581096984,1,545
2019_Nov_08,34,001,4,recog,27,FOOLHARDY,LF,lure,-,-,-,conservative,no,m,1,0.600247678109,3,548
2019_Nov_08,34,001,4,recog,28,JUDICIOUS,LF,target,left,yellow,pleasantness,liberal,no,z,1,1.01692320439,3,551
2019_Nov_08,34,001,4,recog,29,DOING,HF,target,left,yellow,pleasantness,liberal,no,z,1,0.783474488348,3,554
2019_Nov_08,34,001,4,recog,30,HANDS,HF,target,left,yellow,pleasantness,conservative,no,z,1,0.583612624985,1,555
2019_Nov_08,34,001,4,recog,31,VILLAGE,HF,lure,-,-,-,conservative,no,m,1,0.716893949337,3,558
2019_Nov_08,34,001,4,recog,32,FELLS,LF,target,right,aqua,imageability,liberal,no,z,1,0.700242399002,3,561
2019_Nov_08,34,001,4,recog,33,ECHELONS,LF,target,left,yellow,pleasantness,liberal,no,z,1,0.600234113737,3,564
2019_Nov_08,34,001,4,recog,34,MOUTH,HF,target,left,yellow,pleasantness,liberal,no,z,1,0.533620580306,3,567
2019_Nov_08,34,001,4,recog,35,MOBILIZE,LF,lure,-,-,-,conservative,no,m,1,0.783574571421,3,570
2019_Nov_08,34,001,4,recog,36,ENDEARING,LF,target,left,yellow,pleasantness,liberal,no,z,1,0.450208488071,3,573
2019_Nov_08,34,001,4,recog,37,RAREFIED,LF,target,right,aqua,imageability,conservative,no,z,1,0.616947253655,1,574
2019_Nov_08,34,001,4,recog,38,USUAL,HF,target,right,aqua,imageability,conservative,yes,m,0,0.466704231425,-1,573
2019_Nov_08,34,001,4,recog,39,HYSTERICS,LF,target,left,yellow,pleasantness,liberal,no,z,1,0.783520680535,3,576
2019_Nov_08,34,001,4,recog,40,WEEKS,HF,target,right,aqua,imageability,conservative,no,z,1,0.833569182332,1,577
2019_Nov_08,34,001,4,recog,41,NOMAD,LF,target,left,yellow,pleasantness,liberal,no,z,1,0.666960928009,3,580
2019_Nov_08,34,001,4,recog,42,ROVERS,LF,lure,-,-,-,liberal,no,m,1,0.916863961075,1,581
2019_Nov_08,34,001,4,recog,43,MAYBE,HF,lure,-,-,-,liberal,no,z,0,0.516890576574,-1,580
2019_Nov_08,34,001,4,recog,44,OMITTING,LF,target,left,yellow,pleasantness,conservative,no,z,1,0.833526289587,1,581
2019_Nov_08,34,001,4,recog,45,REQUIRED,HF,target,right,aqua,imageability,liberal,no,z,1,0.733577027672,3,584
2019_Nov_08,34,001,4,recog,46,HOTEL,HF,target,left,yellow,pleasantness,conservative,no,z,1,0.533530395559,1,585
2019_Nov_08,34,001,4,recog,47,POOLED,LF,lure,-,-,-,conservative,yes,m,1,0.450308204538,3,588
2019_Nov_08,34,001,4,recog,48,STAFF,HF,lure,-,-,-,conservative,no,m,1,0.633579007337,3,591
2019_Nov_08,34,001,4,recog,49,JAMMING,LF,lure,-,-,-,conservative,no,m,1,0.700220402722,3,594
2019_Nov_08,34,001,4,recog,50,EDUCATION,HF,lure,-,-,-,liberal,no,m,1,1.48353101879,1,595
2019_Nov_08,34,001,4,recog,51,SANDAL,LF,target,right,aqua,imageability,liberal,no,z,1,0.866915908956,3,598
2019_Nov_08,34,001,4,recog,52,GARDEN,HF,target,right,aqua,imageability,conservative,no,z,1,0.633540147243,1,599
2019_Nov_08,34,001,4,recog,53,INCLUDING,HF,target,right,aqua,imageability,conservative,no,z,1,0.65005422083,1,600
2019_Nov_08,34,001,4,recog,54,WATCH,HF,lure,-,-,-,conservative,no,z,0,0.600336029833,-3,597
2019_Nov_08,34,001,4,recog,55,MADDENED,LF,lure,-,-,-,liberal,no,m,1,0.716747307472,1,598
2019_Nov_08,34,001,4,recog,56,DIFFERENT,HF,lure,-,-,-,liberal,no,m,1,0.766858498666,1,599
2019_Nov_08,34,001,4,recog,57,PAPER,HF,lure,-,-,-,liberal,no,m,1,0.633598437385,1,600
2019_Nov_08,34,001,4,recog,58,BYPASS,LF,lure,-,-,-,liberal,no,m,1,0.633546746127,1,601
2019_Nov_08,34,001,4,recog,59,ATTACK,HF,target,right,aqua,imageability,liberal,no,z,1,0.633386906495,3,604
2019_Nov_08,34,001,4,recog,60,LIVED,HF,target,right,aqua,imageability,liberal,no,z,1,0.600211750852,3,607
2019_Nov_08,34,001,4,recog,61,COGENT,LF,lure,-,-,-,conservative,no,m,1,0.666979624846,3,610
2019_Nov_08,34,001,4,recog,62,HEALTH,HF,lure,-,-,-,conservative,no,m,1,0.800241152547,3,613
2019_Nov_08,34,001,4,recog,63,RAIDER,LF,lure,-,-,-,conservative,no,m,1,0.633560677104,3,616
2019_Nov_08,34,001,4,recog,64,FUSELAGE,LF,target,right,aqua,imageability,liberal,no,z,1,0.866875582444,3,619
2019_Nov_08,34,001,4,recog,65,TRYING,HF,target,right,aqua,imageability,conservative,no,m,0,0.900182349158,-1,618
2019_Nov_08,34,001,4,recog,66,WINDOW,HF,lure,-,-,-,conservative,no,m,1,1.0335575243,3,621
2019_Nov_08,34,001,4,recog,67,MILES,HF,lure,-,-,-,liberal,no,m,1,0.633674691154,1,622
2019_Nov_08,34,001,4,recog,68,ROTARY,LF,target,left,yellow,pleasantness,conservative,no,z,1,0.583621423497,1,623
2019_Nov_08,34,001,4,recog,69,FEIGNED,LF,target,left,yellow,pleasantness,liberal,no,z,1,0.517009723088,3,626
2019_Nov_08,34,001,4,recog,70,TITAN,LF,lure,-,-,-,liberal,no,m,1,0.583651118474,1,627
2019_Nov_08,34,001,4,recog,71,ROOFED,LF,lure,-,-,-,liberal,no,z,0,1.01662918745,-1,626
2019_Nov_08,34,001,4,recog,72,DUBIOUSLY,LF,lure,-,-,-,conservative,yes,m,1,0.43368304974,3,629
2019_Nov_08,34,001,4,recog,73,FESTERING,LF,target,right,aqua,imageability,conservative,no,z,1,0.633559943894,1,630
2019_Nov_08,34,001,4,recog,74,DEVELOPED,HF,lure,-,-,-,liberal,no,m,1,0.583539670657,1,631
2019_Nov_08,34,001,4,recog,75,BECAME,HF,target,right,aqua,imageability,liberal,no,z,1,0.833573948194,3,634
2019_Nov_08,34,001,4,recog,76,IDEAS,HF,lure,-,-,-,conservative,no,m,1,0.666691840187,3,637
2019_Nov_08,34,001,4,recog,77,WILDFOWL,LF,target,left,yellow,pleasantness,conservative,no,z,1,0.633575341291,1,638
2019_Nov_08,34,001,4,recog,78,PHOBIC,LF,target,left,yellow,pleasantness,conservative,no,z,1,0.883398821146,1,639
2019_Nov_08,34,001,4,recog,79,KNOWLEDGE,HF,target,left,yellow,pleasantness,conservative,no,z,1,0.866872649605,1,640
2019_Nov_08,34,001,4,recog,80,GLEANED,LF,target,right,aqua,imageability,conservative,no,z,1,0.683579850528,1,641
2019_Nov_08,34,001,4,recog,81,AGELESS,LF,target,right,aqua,imageability,liberal,no,z,1,0.666910703169,3,644
2019_Nov_08,34,001,4,recog,82,FEELING,HF,lure,-,-,-,liberal,no,m,1,0.816918365207,1,645
2019_Nov_08,34,001,4,recog,83,CALLED,HF,target,right,aqua,imageability,conservative,no,m,0,0.666971926148,-1,644
2019_Nov_08,34,001,4,recog,84,BETTER,HF,target,left,yellow,pleasantness,conservative,no,z,1,1.35020093601,1,645
2019_Nov_08,34,001,4,recog,85,ALTHOUGH,HF,target,left,yellow,pleasantness,liberal,no,z,1,0.566948976697,3,648
2019_Nov_08,34,001,4,recog,86,RUMBLED,LF,lure,-,-,-,liberal,no,z,0,0.566915615673,-1,647
2019_Nov_08,34,001,4,recog,87,TIRADE,LF,target,right,aqua,imageability,conservative,no,z,1,0.983519287438,1,648
2019_Nov_08,34,001,4,recog,88,HIGHER,HF,target,left,yellow,pleasantness,liberal,no,z,1,0.700182642442,3,651
2019_Nov_08,34,001,4,recog,89,ALMOST,HF,lure,-,-,-,conservative,no,z,0,1.8168549426,-3,648
2019_Nov_08,34,001,4,recog,90,WETTER,LF,target,right,aqua,imageability,conservative,no,z,1,0.816934129208,1,649
2019_Nov_08,34,001,4,recog,91,GOADED,LF,target,left,yellow,pleasantness,conservative,no,z,1,0.833527756005,1,650
2019_Nov_08,34,001,4,recog,92,QUICKLY,HF,target,left,yellow,pleasantness,liberal,no,m,0,1.23360818907,-3,647
2019_Nov_08,34,001,4,recog,93,ENMESHED,LF,target,left,yellow,pleasantness,conservative,no,z,1,0.633577907523,1,648
2019_Nov_08,34,001,4,recog,94,AREAS,HF,target,left,yellow,pleasantness,conservative,no,z,1,1.26686656397,1,649
2019_Nov_08,34,001,4,recog,95,TWENTY,HF,lure,-,-,-,conservative,no,m,1,0.616919758305,3,652
