date,subj,session,cycle,task,trial,item,wf,type,source,colour,encoding,bias,null,response,corr,rt,points,total
2019_Apr_10,4,001,0,source,0,DOSSIERS,LF,target,left,yellow,imageability,liberal,no,2,1,2.55929991964,-,-
2019_Apr_10,4,001,0,source,1,FUMING,LF,target,left,yellow,imageability,liberal,yes,8,0,2.46582890477,-,-
2019_Apr_10,4,001,0,source,2,SPOKE,HF,target,left,yellow,imageability,liberal,no,1,1,2.99893721698,-,-
2019_Apr_10,4,001,0,source,3,HYDRAULIC,LF,target,right,aqua,pleasantness,liberal,no,9,1,2.02595001584,-,-
2019_Apr_10,4,001,0,source,4,RIMMED,LF,target,right,aqua,pleasantness,liberal,yes,7,1,1.34649182621,-,-
2019_Apr_10,4,001,0,source,5,NOTHING,HF,target,left,yellow,imageability,conservative,no,1,1,1.8796631942,-,-
2019_Apr_10,4,001,0,source,6,SHORT,HF,target,right,aqua,pleasantness,conservative,no,7,1,2.42617708993,-,-
2019_Apr_10,4,001,0,source,7,TOGETHER,HF,target,left,yellow,imageability,conservative,no,1,1,1.14656653997,-,-
2019_Apr_10,4,001,0,source,8,BROUGHT,HF,target,right,aqua,pleasantness,conservative,no,9,1,0.946658117478,-,-
2019_Apr_10,4,001,0,source,9,TROUBLE,HF,target,left,yellow,imageability,liberal,no,2,1,1.11968791793,-,-
2019_Apr_10,4,001,0,source,10,STUDENT,HF,target,left,yellow,imageability,liberal,no,1,1,1.95929383402,-,-
2019_Apr_10,4,001,0,source,11,BEREAVED,LF,target,left,yellow,imageability,liberal,no,7,0,2.51934382405,-,-
2019_Apr_10,4,001,0,source,12,SEVEN,HF,target,right,aqua,pleasantness,conservative,no,9,1,1.05302623707,-,-
2019_Apr_10,4,001,0,source,13,NAUGHT,LF,target,left,yellow,imageability,conservative,no,2,1,1.50655596713,-,-
2019_Apr_10,4,001,0,source,14,TRUTH,HF,target,left,yellow,imageability,conservative,no,1,1,1.49312618779,-,-
2019_Apr_10,4,001,0,source,15,USUAL,HF,target,left,yellow,imageability,liberal,yes,3,1,1.2399110767,-,-
2019_Apr_10,4,001,0,source,16,UNION,HF,target,right,aqua,pleasantness,conservative,no,9,1,0.946470783183,-,-
2019_Apr_10,4,001,0,source,17,BEAUTIFUL,HF,target,right,aqua,pleasantness,liberal,no,9,1,0.640065196734,-,-
2019_Apr_10,4,001,0,source,18,PEACEABLY,LF,target,left,yellow,imageability,liberal,no,1,1,0.906649964219,-,-
2019_Apr_10,4,001,0,source,19,APOSTLE,LF,target,right,aqua,pleasantness,liberal,no,9,1,2.05287006405,-,-
2019_Apr_10,4,001,0,source,20,BOWER,LF,target,right,aqua,pleasantness,liberal,no,9,1,0.760064727481,-,-
2019_Apr_10,4,001,0,source,21,HEDGED,LF,target,right,aqua,pleasantness,conservative,yes,3,0,1.22652748938,-,-
2019_Apr_10,4,001,0,source,22,CIRCUSES,LF,target,left,yellow,imageability,conservative,no,1,1,0.799821390865,-,-
2019_Apr_10,4,001,0,source,23,LATER,HF,target,right,aqua,pleasantness,conservative,no,9,1,0.946671315198,-,-
2019_Apr_10,4,001,0,source,24,WIZENED,LF,target,right,aqua,pleasantness,conservative,no,9,1,0.813156219938,-,-
2019_Apr_10,4,001,0,source,25,FEVERS,LF,target,right,aqua,pleasantness,conservative,no,9,1,0.759812137796,-,-
2019_Apr_10,4,001,0,source,26,TAVERNS,LF,target,left,yellow,imageability,conservative,no,8,0,1.79962855752,-,-
2019_Apr_10,4,001,0,source,27,VETOED,LF,target,right,aqua,pleasantness,conservative,no,9,1,1.09324885327,-,-
2019_Apr_10,4,001,0,source,28,DIOCESE,LF,target,right,aqua,pleasantness,liberal,no,8,1,2.25258198717,-,-
2019_Apr_10,4,001,0,source,29,CHIEF,HF,target,right,aqua,pleasantness,liberal,no,8,1,0.946777996762,-,-
2019_Apr_10,4,001,0,source,30,AHEAD,HF,target,right,aqua,pleasantness,liberal,no,2,0,1.30661198412,-,-
2019_Apr_10,4,001,0,source,31,EVIDENCE,HF,target,left,yellow,imageability,conservative,no,2,1,1.42644581016,-,-
2019_Apr_10,4,001,0,source,32,OSTRACISM,LF,target,left,yellow,imageability,liberal,no,1,1,2.1326026196,-,-
2019_Apr_10,4,001,0,source,33,BUMBLING,LF,target,right,aqua,pleasantness,conservative,no,9,1,0.853126979659,-,-
2019_Apr_10,4,001,0,source,34,BASIC,HF,target,left,yellow,imageability,liberal,no,1,1,1.34641923876,-,-
2019_Apr_10,4,001,0,source,35,SLYLY,LF,target,left,yellow,imageability,liberal,no,1,1,0.69342504282,-,-
2019_Apr_10,4,001,0,source,36,ENERGY,HF,target,right,aqua,pleasantness,conservative,no,9,1,0.706506549002,-,-
2019_Apr_10,4,001,0,source,37,TWAIN,LF,target,left,yellow,imageability,conservative,no,1,1,0.599859077685,-,-
2019_Apr_10,4,001,0,source,38,FATHER,HF,target,left,yellow,imageability,conservative,no,9,0,0.746537065063,-,-
2019_Apr_10,4,001,0,source,39,ANIMAL,HF,target,left,yellow,imageability,conservative,no,9,0,0.813345753855,-,-
2019_Apr_10,4,001,0,source,40,FUTURE,HF,target,right,aqua,pleasantness,liberal,no,2,0,1.29319906853,-,-
2019_Apr_10,4,001,0,source,41,SIMILAR,HF,target,right,aqua,pleasantness,liberal,no,1,0,1.43962080019,-,-
2019_Apr_10,4,001,0,source,42,WONDROUS,LF,target,right,aqua,pleasantness,liberal,no,9,1,1.37321904108,-,-
2019_Apr_10,4,001,0,source,43,DOGMAS,LF,target,left,yellow,imageability,conservative,no,2,1,1.05331145445,-,-
2019_Apr_10,4,001,0,source,44,DWINDLE,LF,target,right,aqua,pleasantness,conservative,no,9,1,1.37289972959,-,-
2019_Apr_10,4,001,0,source,45,ARMAMENT,LF,target,left,yellow,imageability,conservative,no,2,1,1.25320631261,-,-
2019_Apr_10,4,001,0,source,46,SYSTEM,HF,target,left,yellow,imageability,liberal,no,1,1,0.853286818705,-,-
2019_Apr_10,4,001,0,source,47,ITSELF,HF,target,right,aqua,pleasantness,liberal,no,9,1,0.999947209122,-,-
2019_Apr_10,4,001,0,recog,0,TRUTH,HF,target,left,yellow,imageability,conservative,yes,m,0,2.03954586648,-1,-1
2019_Apr_10,4,001,0,recog,1,BEREAVED,LF,target,left,yellow,imageability,liberal,no,z,1,1.71967933941,3,2
2019_Apr_10,4,001,0,recog,2,REFECTORY,LF,lure,-,-,-,conservative,no,m,1,1.53283225992,3,5
2019_Apr_10,4,001,0,recog,3,THOUSAND,HF,lure,-,-,-,liberal,no,m,1,1.0932855136,1,6
2019_Apr_10,4,001,0,recog,4,IGNOBLE,LF,lure,-,-,-,conservative,no,m,1,1.43985579292,3,9
2019_Apr_10,4,001,0,recog,5,ENERGY,HF,target,right,aqua,pleasantness,conservative,no,z,1,0.946660317097,1,10
2019_Apr_10,4,001,0,recog,6,CHIEF,HF,target,right,aqua,pleasantness,liberal,no,z,1,1.06641862286,3,13
2019_Apr_10,4,001,0,recog,7,REPORT,HF,lure,-,-,-,conservative,no,m,1,2.07944477194,3,16
2019_Apr_10,4,001,0,recog,8,BESOTTED,LF,lure,-,-,-,conservative,no,z,0,1.01336562375,-3,13
2019_Apr_10,4,001,0,recog,9,BUOYANCY,LF,lure,-,-,-,conservative,yes,m,1,1.38645195443,3,16
2019_Apr_10,4,001,0,recog,10,ARMAMENT,LF,target,left,yellow,imageability,conservative,no,m,0,1.39979338237,-1,15
2019_Apr_10,4,001,0,recog,11,FUTURE,HF,target,right,aqua,pleasantness,liberal,no,z,1,3.1990919969,3,18
2019_Apr_10,4,001,0,recog,12,BIJOU,LF,lure,-,-,-,conservative,no,m,1,1.29038538807,3,21
2019_Apr_10,4,001,0,recog,13,APART,HF,lure,-,-,-,conservative,no,m,1,1.02673784637,3,24
2019_Apr_10,4,001,0,recog,14,VETOED,LF,target,right,aqua,pleasantness,conservative,no,z,1,1.22656011708,1,25
2019_Apr_10,4,001,0,recog,15,PRACTICE,HF,lure,-,-,-,liberal,no,m,1,2.59946717874,1,26
2019_Apr_10,4,001,0,recog,16,SORRY,HF,lure,-,-,-,liberal,no,m,1,0.786790109336,1,27
2019_Apr_10,4,001,0,recog,17,CIRCUSES,LF,target,left,yellow,imageability,conservative,no,z,1,1.22654398653,1,28
2019_Apr_10,4,001,0,recog,18,RETURN,HF,lure,-,-,-,liberal,no,m,1,1.2532151111,1,29
2019_Apr_10,4,001,0,recog,19,SOJOURN,LF,lure,-,-,-,liberal,no,m,1,1.25296765386,1,30
2019_Apr_10,4,001,0,recog,20,HYDRAULIC,LF,target,right,aqua,pleasantness,liberal,no,z,1,0.880027964502,3,33
2019_Apr_10,4,001,0,recog,21,FUMING,LF,target,left,yellow,imageability,liberal,no,z,1,1.23986305166,3,36
2019_Apr_10,4,001,0,recog,22,FATHER,HF,target,left,yellow,imageability,conservative,no,z,1,0.933303491822,1,37
2019_Apr_10,4,001,0,recog,23,AXLES,LF,lure,-,-,-,conservative,no,m,1,0.773154298937,3,40
2019_Apr_10,4,001,0,recog,24,CASES,HF,lure,-,-,-,liberal,no,m,1,1.05326306281,1,41
2019_Apr_10,4,001,0,recog,25,UNION,HF,target,right,aqua,pleasantness,conservative,no,z,1,0.87998250569,1,42
2019_Apr_10,4,001,0,recog,26,AIDING,LF,lure,-,-,-,liberal,no,z,0,1.23984618791,-1,41
2019_Apr_10,4,001,0,recog,27,DANDELION,LF,lure,-,-,-,liberal,no,m,1,1.15992409845,1,42
2019_Apr_10,4,001,0,recog,28,PIGLETS,LF,lure,-,-,-,conservative,no,m,1,0.98664574095,3,45
2019_Apr_10,4,001,0,recog,29,TWAIN,LF,target,left,yellow,imageability,conservative,no,z,1,0.706813395978,1,46
2019_Apr_10,4,001,0,recog,30,DOSSIERS,LF,target,left,yellow,imageability,liberal,no,z,1,0.973309445462,3,49
2019_Apr_10,4,001,0,recog,31,SEVEN,HF,target,right,aqua,pleasantness,conservative,no,z,1,0.866483071724,1,50
2019_Apr_10,4,001,0,recog,32,SIMILAR,HF,target,right,aqua,pleasantness,liberal,no,z,1,0.760132915699,3,53
2019_Apr_10,4,001,0,recog,33,EVIDENCE,HF,target,left,yellow,imageability,conservative,no,z,1,0.919989192535,1,54
2019_Apr_10,4,001,0,recog,34,SLYLY,LF,target,left,yellow,imageability,liberal,no,z,1,0.573329095399,3,57
2019_Apr_10,4,001,0,recog,35,SPACE,HF,lure,-,-,-,conservative,no,m,1,0.68013713897,3,60
2019_Apr_10,4,001,0,recog,36,TIMES,HF,lure,-,-,-,conservative,no,z,0,1.29292924849,-3,57
2019_Apr_10,4,001,0,recog,37,ANIMAL,HF,target,left,yellow,imageability,conservative,no,z,1,1.34657797799,1,58
2019_Apr_10,4,001,0,recog,38,USUAL,HF,target,left,yellow,imageability,liberal,no,z,1,1.94622149293,3,61
2019_Apr_10,4,001,0,recog,39,CUCKOO,LF,lure,-,-,-,conservative,no,m,1,1.33316542901,3,64
2019_Apr_10,4,001,0,recog,40,ACROSS,HF,lure,-,-,-,conservative,yes,m,1,0.613481690365,3,67
2019_Apr_10,4,001,0,recog,41,SHORT,HF,target,right,aqua,pleasantness,conservative,no,z,1,1.1332328107,1,68
2019_Apr_10,4,001,0,recog,42,ITSELF,HF,target,right,aqua,pleasantness,liberal,no,z,1,0.666788378967,3,71
2019_Apr_10,4,001,0,recog,43,SAMENESS,LF,lure,-,-,-,conservative,no,m,1,0.840146289389,3,74
2019_Apr_10,4,001,0,recog,44,STUDENT,HF,target,left,yellow,imageability,liberal,no,z,1,1.02667845663,3,77
2019_Apr_10,4,001,0,recog,45,ERADICATE,LF,lure,-,-,-,conservative,no,m,1,0.746816050187,3,80
2019_Apr_10,4,001,0,recog,46,PEACEABLY,LF,target,left,yellow,imageability,liberal,no,z,1,0.760054829192,3,83
2019_Apr_10,4,001,0,recog,47,LYNCH,LF,lure,-,-,-,liberal,no,m,1,0.840019078038,1,84
2019_Apr_10,4,001,0,recog,48,DWINDLE,LF,target,right,aqua,pleasantness,conservative,no,z,1,0.733398368762,1,85
2019_Apr_10,4,001,0,recog,49,OPPOSES,LF,lure,-,-,-,liberal,no,m,1,0.680198728327,1,86
2019_Apr_10,4,001,0,recog,50,DOUBT,HF,lure,-,-,-,conservative,no,m,1,0.693426142629,3,89
2019_Apr_10,4,001,0,recog,51,OSTRACISM,LF,target,left,yellow,imageability,liberal,no,z,1,0.693422476597,3,92
2019_Apr_10,4,001,0,recog,52,WHETHER,HF,lure,-,-,-,conservative,no,m,1,0.720059140447,3,95
2019_Apr_10,4,001,0,recog,53,NOTHING,HF,target,left,yellow,imageability,conservative,no,z,1,0.680089113936,1,96
2019_Apr_10,4,001,0,recog,54,KETCHUP,LF,lure,-,-,-,liberal,no,m,1,0.626920634781,1,97
2019_Apr_10,4,001,0,recog,55,BROUGHT,HF,target,right,aqua,pleasantness,conservative,no,z,1,0.906662062129,1,98
2019_Apr_10,4,001,0,recog,56,SYSTEM,HF,target,left,yellow,imageability,liberal,no,z,1,0.746696537504,3,101
2019_Apr_10,4,001,0,recog,57,SOVIET,HF,lure,-,-,-,liberal,no,m,1,0.61347252528,1,102
2019_Apr_10,4,001,0,recog,58,HEDGED,LF,target,right,aqua,pleasantness,conservative,no,z,1,0.8936527768,1,103
2019_Apr_10,4,001,0,recog,59,DOGMAS,LF,target,left,yellow,imageability,conservative,yes,m,0,0.626776559677,-1,102
2019_Apr_10,4,001,0,recog,60,UMPIRE,LF,lure,-,-,-,liberal,no,m,1,1.1331994498,1,103
2019_Apr_10,4,001,0,recog,61,POUNDS,HF,lure,-,-,-,liberal,no,m,1,0.666751718636,1,104
2019_Apr_10,4,001,0,recog,62,OLDER,HF,lure,-,-,-,liberal,no,z,0,0.693431641679,-1,103
2019_Apr_10,4,001,0,recog,63,DIOCESE,LF,target,right,aqua,pleasantness,liberal,no,z,1,0.973311278478,3,106
2019_Apr_10,4,001,0,recog,64,KNOWLEDGE,HF,lure,-,-,-,conservative,no,m,1,0.826465386781,3,109
2019_Apr_10,4,001,0,recog,65,EMOTIVE,LF,lure,-,-,-,liberal,no,m,1,0.880042995237,1,110
2019_Apr_10,4,001,0,recog,66,IDLING,LF,lure,-,-,-,liberal,no,m,1,0.853345108631,1,111
2019_Apr_10,4,001,0,recog,67,CHAIR,HF,lure,-,-,-,liberal,no,m,1,0.640139617208,1,112
2019_Apr_10,4,001,0,recog,68,ACTION,HF,lure,-,-,-,liberal,no,m,1,0.573204816874,1,113
2019_Apr_10,4,001,0,recog,69,NAUGHT,LF,target,left,yellow,imageability,conservative,no,z,1,0.773427785012,1,114
2019_Apr_10,4,001,0,recog,70,BOWER,LF,target,right,aqua,pleasantness,liberal,no,z,1,0.666563284531,3,117
2019_Apr_10,4,001,0,recog,71,SOFTENING,LF,lure,-,-,-,liberal,no,m,1,0.599904536497,1,118
2019_Apr_10,4,001,0,recog,72,SPOKE,HF,target,left,yellow,imageability,liberal,no,z,1,0.599885473122,3,121
2019_Apr_10,4,001,0,recog,73,FLOOR,HF,lure,-,-,-,liberal,no,m,1,0.600083438916,1,122
2019_Apr_10,4,001,0,recog,74,EVOCATION,LF,lure,-,-,-,conservative,no,m,1,0.640089759157,3,125
2019_Apr_10,4,001,0,recog,75,EXACTLY,HF,lure,-,-,-,conservative,no,m,1,0.733395435936,3,128
2019_Apr_10,4,001,0,recog,76,WIZENED,LF,target,right,aqua,pleasantness,conservative,no,z,1,0.813141555805,1,129
2019_Apr_10,4,001,0,recog,77,BUMBLING,LF,target,right,aqua,pleasantness,conservative,no,m,0,0.613459694165,-1,128
2019_Apr_10,4,001,0,recog,78,AHEAD,HF,target,right,aqua,pleasantness,liberal,no,m,0,1.33314966507,-3,125
2019_Apr_10,4,001,0,recog,79,TROUBLE,HF,target,left,yellow,imageability,liberal,no,z,1,0.719841378077,3,128
2019_Apr_10,4,001,0,recog,80,APOSTLE,LF,target,right,aqua,pleasantness,liberal,no,z,1,0.65343668614,3,131
2019_Apr_10,4,001,0,recog,81,TOGETHER,HF,target,left,yellow,imageability,conservative,no,z,1,0.600150160719,1,132
2019_Apr_10,4,001,0,recog,82,AMONG,HF,lure,-,-,-,liberal,no,m,1,0.706553474227,1,133
2019_Apr_10,4,001,0,recog,83,RAPACIOUS,LF,lure,-,-,-,conservative,no,m,1,0.693459136928,3,136
2019_Apr_10,4,001,0,recog,84,WONDROUS,LF,target,right,aqua,pleasantness,liberal,no,z,1,0.520145952112,3,139
2019_Apr_10,4,001,0,recog,85,FEVERS,LF,target,right,aqua,pleasantness,conservative,no,z,1,0.693387282678,1,140
2019_Apr_10,4,001,0,recog,86,BEAUTIFUL,HF,target,right,aqua,pleasantness,liberal,no,z,1,0.573558589076,3,143
2019_Apr_10,4,001,0,recog,87,BLOOD,HF,lure,-,-,-,conservative,no,m,1,0.600123398677,3,146
2019_Apr_10,4,001,0,recog,88,BOOKS,HF,lure,-,-,-,conservative,no,m,1,0.693441539968,3,149
2019_Apr_10,4,001,0,recog,89,RIMMED,LF,target,right,aqua,pleasantness,liberal,no,z,1,0.733524480303,3,152
2019_Apr_10,4,001,0,recog,90,FRONT,HF,lure,-,-,-,conservative,no,m,1,0.57361541259,3,155
2019_Apr_10,4,001,0,recog,91,BASIC,HF,target,left,yellow,imageability,liberal,no,z,1,0.586773172263,3,158
2019_Apr_10,4,001,0,recog,92,ANCHORAGE,LF,lure,-,-,-,liberal,no,z,0,0.893336764739,-1,157
2019_Apr_10,4,001,0,recog,93,LOUDEST,LF,lure,-,-,-,liberal,no,m,1,0.78671862169,1,158
2019_Apr_10,4,001,0,recog,94,LATER,HF,target,right,aqua,pleasantness,conservative,no,z,1,0.88003016412,1,159
2019_Apr_10,4,001,0,recog,95,TAVERNS,LF,target,left,yellow,imageability,conservative,no,z,1,0.640115421389,1,160
2019_Apr_10,4,001,1,source,0,SLOWLY,HF,target,left,yellow,imageability,conservative,no,1,1,1.67969721499,-,-
2019_Apr_10,4,001,1,source,1,REQUIRED,HF,target,left,yellow,imageability,conservative,no,1,1,1.91935973464,-,-
2019_Apr_10,4,001,1,source,2,TITAN,LF,target,right,aqua,pleasantness,liberal,no,9,1,3.09260619765,-,-
2019_Apr_10,4,001,1,source,3,NOMAD,LF,target,left,yellow,imageability,conservative,no,1,1,0.933358848924,-,-
2019_Apr_10,4,001,1,source,4,POWER,HF,target,left,yellow,imageability,conservative,no,1,1,0.746698370522,-,-
2019_Apr_10,4,001,1,source,5,ASHEN,LF,target,left,yellow,imageability,conservative,no,1,1,0.693462802961,-,-
2019_Apr_10,4,001,1,source,6,SIDED,LF,target,right,aqua,pleasantness,liberal,no,1,0,1.86627190821,-,-
2019_Apr_10,4,001,1,source,7,GORGED,LF,target,right,aqua,pleasantness,conservative,no,9,1,0.71984834354,-,-
2019_Apr_10,4,001,1,source,8,ARCADES,LF,target,right,aqua,pleasantness,liberal,no,9,1,0.573575819431,-,-
2019_Apr_10,4,001,1,source,9,SMALL,HF,target,right,aqua,pleasantness,conservative,yes,7,1,1.06664665013,-,-
2019_Apr_10,4,001,1,source,10,ABOVE,HF,target,left,yellow,imageability,liberal,no,1,1,1.13324234239,-,-
2019_Apr_10,4,001,1,source,11,HICKORY,LF,target,left,yellow,imageability,conservative,no,1,1,0.853401565542,-,-
2019_Apr_10,4,001,1,source,12,OBTAINS,LF,target,left,yellow,imageability,liberal,no,1,1,1.78628969581,-,-
2019_Apr_10,4,001,1,source,13,FOLLOWED,HF,target,right,aqua,pleasantness,liberal,no,9,1,0.840013578987,-,-
2019_Apr_10,4,001,1,source,14,OMELETTE,LF,target,right,aqua,pleasantness,conservative,no,9,1,0.653226255838,-,-
2019_Apr_10,4,001,1,source,15,KIBBUTZIM,LF,target,right,aqua,pleasantness,conservative,no,9,1,0.773371694704,-,-
2019_Apr_10,4,001,1,source,16,MEANS,HF,target,left,yellow,imageability,liberal,no,1,1,0.746698370522,-,-
2019_Apr_10,4,001,1,source,17,DURING,HF,target,left,yellow,imageability,conservative,no,1,1,1.06636656519,-,-
2019_Apr_10,4,001,1,source,18,EXCEPT,HF,target,right,aqua,pleasantness,liberal,yes,8,1,0.786831902114,-,-
2019_Apr_10,4,001,1,source,19,GIRLS,HF,target,right,aqua,pleasantness,conservative,no,9,1,0.82671394383,-,-
2019_Apr_10,4,001,1,source,20,CUISINE,LF,target,right,aqua,pleasantness,conservative,no,9,1,0.626787924379,-,-
2019_Apr_10,4,001,1,source,21,GENERAL,HF,target,right,aqua,pleasantness,liberal,no,1,0,0.893315135145,-,-
2019_Apr_10,4,001,1,source,22,VISCOUS,LF,target,right,aqua,pleasantness,liberal,no,9,1,1.29294611225,-,-
2019_Apr_10,4,001,1,source,23,AFRAID,HF,target,right,aqua,pleasantness,conservative,no,9,1,1.42652316346,-,-
2019_Apr_10,4,001,1,source,24,SMUDGE,LF,target,left,yellow,imageability,liberal,no,1,1,0.933406507356,-,-
2019_Apr_10,4,001,1,source,25,FIELD,HF,target,right,aqua,pleasantness,conservative,no,9,1,0.800046851904,-,-
2019_Apr_10,4,001,1,source,26,MINISTER,HF,target,right,aqua,pleasantness,conservative,yes,2,0,0.95998488128,-,-
2019_Apr_10,4,001,1,source,27,POPES,LF,target,left,yellow,imageability,liberal,no,1,1,1.39982491026,-,-
2019_Apr_10,4,001,1,source,28,FLYWHEEL,LF,target,left,yellow,imageability,liberal,no,1,1,0.986683867694,-,-
2019_Apr_10,4,001,1,source,29,LETTER,HF,target,right,aqua,pleasantness,liberal,no,9,1,1.38650621173,-,-
2019_Apr_10,4,001,1,source,30,WARDROBES,LF,target,left,yellow,imageability,liberal,no,1,1,0.666724589992,-,-
2019_Apr_10,4,001,1,source,31,TUCKER,LF,target,left,yellow,imageability,conservative,no,1,1,0.840257003591,-,-
2019_Apr_10,4,001,1,source,32,PIQUE,LF,target,left,yellow,imageability,liberal,no,1,1,0.66681514101,-,-
2019_Apr_10,4,001,1,source,33,SINCE,HF,target,left,yellow,imageability,liberal,no,2,1,1.30632126769,-,-
2019_Apr_10,4,001,1,source,34,SAYING,HF,target,left,yellow,imageability,conservative,no,2,1,1.06641752305,-,-
2019_Apr_10,4,001,1,source,35,PARENTS,HF,target,left,yellow,imageability,liberal,yes,8,0,0.86667590507,-,-
2019_Apr_10,4,001,1,source,36,STRAIGHT,HF,target,right,aqua,pleasantness,conservative,no,8,1,1.57306330799,-,-
2019_Apr_10,4,001,1,source,37,TONAL,LF,target,right,aqua,pleasantness,conservative,no,9,1,0.906671227212,-,-
2019_Apr_10,4,001,1,source,38,NOSTRIL,LF,target,right,aqua,pleasantness,liberal,no,9,1,0.639929920111,-,-
2019_Apr_10,4,001,1,source,39,LULLED,LF,target,right,aqua,pleasantness,conservative,no,9,1,0.813258502263,-,-
2019_Apr_10,4,001,1,source,40,FAMILY,HF,target,left,yellow,imageability,conservative,no,1,1,0.906600106167,-,-
2019_Apr_10,4,001,1,source,41,EVENING,HF,target,left,yellow,imageability,liberal,no,1,1,1.13321484714,-,-
2019_Apr_10,4,001,1,source,42,ENTIRELY,HF,target,right,aqua,pleasantness,liberal,no,9,1,2.29276830963,-,-
2019_Apr_10,4,001,1,source,43,LUXURIANT,LF,target,left,yellow,imageability,conservative,no,8,0,1.15994462824,-,-
2019_Apr_10,4,001,1,source,44,PRIVATE,HF,target,right,aqua,pleasantness,liberal,no,8,1,1.30653059818,-,-
2019_Apr_10,4,001,1,source,45,ASKED,HF,target,left,yellow,imageability,liberal,no,2,1,1.07995984961,-,-
2019_Apr_10,4,001,1,source,46,THYROID,LF,target,left,yellow,imageability,conservative,no,1,1,1.3198489301,-,-
2019_Apr_10,4,001,1,source,47,NAGGED,LF,target,right,aqua,pleasantness,liberal,no,9,1,0.773368028671,-,-
2019_Apr_10,4,001,1,recog,0,HAVING,HF,lure,-,-,-,conservative,no,m,1,1.01328350461,3,163
2019_Apr_10,4,001,1,recog,1,NIMBLE,LF,lure,-,-,-,liberal,no,m,1,0.71975999214,1,164
2019_Apr_10,4,001,1,recog,2,HOTEL,HF,lure,-,-,-,liberal,no,m,1,0.626850980152,1,165
2019_Apr_10,4,001,1,recog,3,MINISTER,HF,target,right,aqua,pleasantness,conservative,no,z,1,1.31990538702,1,166
2019_Apr_10,4,001,1,recog,4,PATCHY,LF,lure,-,-,-,liberal,no,m,1,0.653738767274,1,167
2019_Apr_10,4,001,1,recog,5,HICKORY,LF,target,left,yellow,imageability,conservative,yes,m,0,1.07997121431,-1,166
2019_Apr_10,4,001,1,recog,6,TUCKER,LF,target,left,yellow,imageability,conservative,no,z,1,0.706751806621,1,167
2019_Apr_10,4,001,1,recog,7,EARLIER,HF,lure,-,-,-,liberal,no,z,0,1.04001181929,-1,166
2019_Apr_10,4,001,1,recog,8,TOWARDS,HF,lure,-,-,-,conservative,no,m,1,1.94602096091,3,169
2019_Apr_10,4,001,1,recog,9,NECESSARY,HF,lure,-,-,-,liberal,no,z,0,0.800114673519,-1,168
2019_Apr_10,4,001,1,recog,10,ARCADES,LF,target,right,aqua,pleasantness,liberal,no,z,1,1.19972548743,3,171
2019_Apr_10,4,001,1,recog,11,GIRLS,HF,target,right,aqua,pleasantness,conservative,no,z,1,0.880014400178,1,172
2019_Apr_10,4,001,1,recog,12,STRAIGHT,HF,target,right,aqua,pleasantness,conservative,no,z,1,0.720242808709,1,173
2019_Apr_10,4,001,1,recog,13,PAPER,HF,lure,-,-,-,liberal,no,m,1,0.640127152696,1,174
2019_Apr_10,4,001,1,recog,14,GARDEN,HF,lure,-,-,-,liberal,no,m,1,0.800112473898,1,175
2019_Apr_10,4,001,1,recog,15,BOTANIST,LF,lure,-,-,-,conservative,no,m,1,0.799946769197,3,178
2019_Apr_10,4,001,1,recog,16,LUXURIANT,LF,target,left,yellow,imageability,conservative,no,z,1,0.840233174375,1,179
2019_Apr_10,4,001,1,recog,17,WARDROBES,LF,target,left,yellow,imageability,liberal,yes,z,1,1.19986699632,3,182
2019_Apr_10,4,001,1,recog,18,VISCOUS,LF,target,right,aqua,pleasantness,liberal,no,z,1,1.17330878558,3,185
2019_Apr_10,4,001,1,recog,19,HIKING,LF,lure,-,-,-,conservative,no,m,1,1.5730530431,3,188
2019_Apr_10,4,001,1,recog,20,FABLE,LF,lure,-,-,-,liberal,no,m,1,0.946681946692,1,189
2019_Apr_10,4,001,1,recog,21,AVENGE,LF,lure,-,-,-,liberal,no,m,1,0.706751440019,1,190
2019_Apr_10,4,001,1,recog,22,FUSELAGE,LF,lure,-,-,-,liberal,no,m,1,0.613441730602,1,191
2019_Apr_10,4,001,1,recog,23,HOWEVER,HF,lure,-,-,-,conservative,no,z,0,0.813495328008,-3,188
2019_Apr_10,4,001,1,recog,24,ORPHANAGE,LF,lure,-,-,-,conservative,no,m,1,0.706736409282,3,191
2019_Apr_10,4,001,1,recog,25,IRISES,LF,lure,-,-,-,liberal,no,m,1,1.26654077509,1,192
2019_Apr_10,4,001,1,recog,26,PIPELINES,LF,lure,-,-,-,conservative,no,m,1,1.04136715176,3,195
2019_Apr_10,4,001,1,recog,27,BEHIND,HF,lure,-,-,-,liberal,no,z,0,0.826733740409,-1,194
2019_Apr_10,4,001,1,recog,28,DAFFODILS,LF,lure,-,-,-,conservative,no,m,1,0.719874372377,3,197
2019_Apr_10,4,001,1,recog,29,SINCE,HF,target,left,yellow,imageability,liberal,no,z,1,0.640100757257,3,200
2019_Apr_10,4,001,1,recog,30,KIBBUTZIM,LF,target,right,aqua,pleasantness,conservative,no,z,1,0.746751894605,1,201
2019_Apr_10,4,001,1,recog,31,NOMAD,LF,target,left,yellow,imageability,conservative,no,z,1,0.61346152718,1,202
2019_Apr_10,4,001,1,recog,32,ENVIRONS,LF,lure,-,-,-,conservative,no,m,1,0.653437052744,3,205
2019_Apr_10,4,001,1,recog,33,ABOVE,HF,target,left,yellow,imageability,liberal,no,z,1,0.586751176064,3,208
2019_Apr_10,4,001,1,recog,34,CHOICE,HF,lure,-,-,-,liberal,no,m,1,0.586561642149,1,209
2019_Apr_10,4,001,1,recog,35,NOSTRIL,LF,target,right,aqua,pleasantness,liberal,yes,m,0,0.519950919148,-3,206
2019_Apr_10,4,001,1,recog,36,ADDED,HF,lure,-,-,-,liberal,no,z,0,1.07990485911,-1,205
2019_Apr_10,4,001,1,recog,37,OMELETTE,LF,target,right,aqua,pleasantness,conservative,no,z,1,0.840004047301,1,206
2019_Apr_10,4,001,1,recog,38,YORKER,LF,lure,-,-,-,liberal,no,m,1,0.666569516789,1,207
2019_Apr_10,4,001,1,recog,39,HIGHER,HF,lure,-,-,-,conservative,yes,m,1,0.706211066727,3,210
2019_Apr_10,4,001,1,recog,40,ENTIRELY,HF,target,right,aqua,pleasantness,liberal,no,z,1,0.853353540508,3,213
2019_Apr_10,4,001,1,recog,41,TASSELS,LF,lure,-,-,-,conservative,no,m,1,1.2799129977,3,216
2019_Apr_10,4,001,1,recog,42,TUFTS,LF,lure,-,-,-,liberal,no,m,1,0.866789918702,1,217
2019_Apr_10,4,001,1,recog,43,FAMILY,HF,target,left,yellow,imageability,conservative,no,z,1,0.773456746674,1,218
2019_Apr_10,4,001,1,recog,44,OBTAINS,LF,target,left,yellow,imageability,liberal,no,z,1,1.05342583468,3,221
2019_Apr_10,4,001,1,recog,45,TITAN,LF,target,right,aqua,pleasantness,liberal,no,z,1,0.666816607425,3,224
2019_Apr_10,4,001,1,recog,46,INTEREST,HF,lure,-,-,-,liberal,no,m,1,0.693504962343,1,225
2019_Apr_10,4,001,1,recog,47,QUESTION,HF,lure,-,-,-,conservative,no,z,0,1.09329247906,-3,222
2019_Apr_10,4,001,1,recog,48,DEVELOPED,HF,lure,-,-,-,conservative,no,m,1,1.30661418374,3,225
2019_Apr_10,4,001,1,recog,49,REQUIRED,HF,target,left,yellow,imageability,conservative,no,m,0,1.06661548884,-1,224
2019_Apr_10,4,001,1,recog,50,DIFFERENT,HF,lure,-,-,-,conservative,no,m,1,1.34649695866,3,227
2019_Apr_10,4,001,1,recog,51,OUTSIDE,HF,lure,-,-,-,liberal,no,m,1,0.78693748387,1,228
2019_Apr_10,4,001,1,recog,52,AFRAID,HF,target,right,aqua,pleasantness,conservative,no,z,1,0.680171599681,1,229
2019_Apr_10,4,001,1,recog,53,FLYWHEEL,LF,target,left,yellow,imageability,liberal,no,z,1,0.680188463433,3,232
2019_Apr_10,4,001,1,recog,54,SMALL,HF,target,right,aqua,pleasantness,conservative,no,z,1,0.720242075502,1,233
2019_Apr_10,4,001,1,recog,55,SAYING,HF,target,left,yellow,imageability,conservative,no,z,1,0.960006144271,1,234
2019_Apr_10,4,001,1,recog,56,DOWDY,LF,lure,-,-,-,conservative,no,m,1,0.760065827293,3,237
2019_Apr_10,4,001,1,recog,57,THYROID,LF,target,left,yellow,imageability,conservative,no,z,1,1.07993822001,1,238
2019_Apr_10,4,001,1,recog,58,SIDED,LF,target,right,aqua,pleasantness,liberal,no,z,1,0.760058861828,3,241
2019_Apr_10,4,001,1,recog,59,FIELD,HF,target,right,aqua,pleasantness,conservative,no,z,1,0.680126874076,1,242
2019_Apr_10,4,001,1,recog,60,PEWTER,LF,lure,-,-,-,conservative,no,m,1,0.66676308334,3,245
2019_Apr_10,4,001,1,recog,61,BREAK,HF,lure,-,-,-,conservative,no,z,0,0.72031136353,-3,242
2019_Apr_10,4,001,1,recog,62,RESEARCH,HF,lure,-,-,-,conservative,no,m,1,1.02654721264,3,245
2019_Apr_10,4,001,1,recog,63,OTTOMAN,LF,lure,-,-,-,liberal,no,m,1,0.800080946012,1,246
2019_Apr_10,4,001,1,recog,64,ASKED,HF,target,left,yellow,imageability,liberal,no,z,1,0.786493527252,3,249
2019_Apr_10,4,001,1,recog,65,DODGED,LF,lure,-,-,-,liberal,no,m,1,0.853366371624,1,250
2019_Apr_10,4,001,1,recog,66,TONAL,LF,target,right,aqua,pleasantness,conservative,no,z,1,0.85335390711,1,251
2019_Apr_10,4,001,1,recog,67,MOUTH,HF,lure,-,-,-,liberal,no,m,1,0.693501662912,1,252
2019_Apr_10,4,001,1,recog,68,SMOCK,LF,lure,-,-,-,liberal,no,m,1,0.787267793459,1,253
2019_Apr_10,4,001,1,recog,69,GORGED,LF,target,right,aqua,pleasantness,conservative,no,z,1,0.813432638841,1,254
2019_Apr_10,4,001,1,recog,70,INCLUDING,HF,lure,-,-,-,conservative,no,m,1,1.50648008024,3,257
2019_Apr_10,4,001,1,recog,71,PARENTS,HF,target,left,yellow,imageability,liberal,no,z,1,0.773686240353,3,260
2019_Apr_10,4,001,1,recog,72,GENERAL,HF,target,right,aqua,pleasantness,liberal,no,z,1,0.666842269657,3,263
2019_Apr_10,4,001,1,recog,73,SMUDGE,LF,target,left,yellow,imageability,liberal,no,z,1,0.560249788836,3,266
2019_Apr_10,4,001,1,recog,74,ASHEN,LF,target,left,yellow,imageability,conservative,no,z,1,0.666767849181,1,267
2019_Apr_10,4,001,1,recog,75,NAGGED,LF,target,right,aqua,pleasantness,liberal,no,z,1,0.667166713592,3,270
2019_Apr_10,4,001,1,recog,76,POWER,HF,target,left,yellow,imageability,conservative,no,z,1,0.65322772225,1,271
2019_Apr_10,4,001,1,recog,77,AFTERNOON,HF,lure,-,-,-,liberal,no,m,1,0.640213671079,1,272
2019_Apr_10,4,001,1,recog,78,SYNDICATE,LF,lure,-,-,-,conservative,no,m,1,0.893321734004,3,275
2019_Apr_10,4,001,1,recog,79,RIGGING,LF,lure,-,-,-,conservative,no,m,1,0.653270248235,3,278
2019_Apr_10,4,001,1,recog,80,CUISINE,LF,target,right,aqua,pleasantness,conservative,no,z,1,0.679873917787,1,279
2019_Apr_10,4,001,1,recog,81,ANSWER,HF,lure,-,-,-,conservative,no,m,1,0.786447335233,3,282
2019_Apr_10,4,001,1,recog,82,HIMSELF,HF,lure,-,-,-,conservative,no,m,1,0.626884707655,3,285
2019_Apr_10,4,001,1,recog,83,FOLLOWED,HF,target,right,aqua,pleasantness,liberal,no,z,1,0.653426787851,3,288
2019_Apr_10,4,001,1,recog,84,MEANS,HF,target,left,yellow,imageability,liberal,no,z,1,0.680142638019,3,291
2019_Apr_10,4,001,1,recog,85,DURING,HF,target,left,yellow,imageability,conservative,no,z,1,1.54639768248,1,292
2019_Apr_10,4,001,1,recog,86,LETTER,HF,target,right,aqua,pleasantness,liberal,no,z,1,0.666684996831,3,295
2019_Apr_10,4,001,1,recog,87,SLOWLY,HF,target,left,yellow,imageability,conservative,no,z,1,0.533522207363,1,296
2019_Apr_10,4,001,1,recog,88,PIQUE,LF,target,left,yellow,imageability,liberal,no,z,1,0.586758508131,3,299
2019_Apr_10,4,001,1,recog,89,PRIVATE,HF,target,right,aqua,pleasantness,liberal,no,z,1,0.746890104057,3,302
2019_Apr_10,4,001,1,recog,90,LULLED,LF,target,right,aqua,pleasantness,conservative,no,z,1,0.666612409377,1,303
2019_Apr_10,4,001,1,recog,91,CATALYST,LF,lure,-,-,-,liberal,no,m,1,0.640252531028,1,304
2019_Apr_10,4,001,1,recog,92,POPES,LF,target,left,yellow,imageability,liberal,no,z,1,0.666789845382,3,307
2019_Apr_10,4,001,1,recog,93,SEMANTIC,LF,lure,-,-,-,conservative,no,m,1,0.706882684006,3,310
2019_Apr_10,4,001,1,recog,94,EVENING,HF,target,left,yellow,imageability,liberal,no,z,1,0.693157422396,3,313
2019_Apr_10,4,001,1,recog,95,EXCEPT,HF,target,right,aqua,pleasantness,liberal,no,z,1,0.786721187911,3,316
2019_Apr_10,4,001,2,source,0,LENGTHEN,LF,target,left,yellow,imageability,conservative,no,3,1,3.03889111295,-,-
2019_Apr_10,4,001,2,source,1,MEMBERS,HF,target,right,aqua,pleasantness,liberal,no,9,1,3.41234661317,-,-
2019_Apr_10,4,001,2,source,2,SLUGS,LF,target,left,yellow,imageability,conservative,no,1,1,0.986417713686,-,-
2019_Apr_10,4,001,2,source,3,TRIED,HF,target,left,yellow,imageability,liberal,no,1,1,0.960251768494,-,-
2019_Apr_10,4,001,2,source,4,SUBJECT,HF,target,right,aqua,pleasantness,conservative,no,8,1,1.18638222649,-,-
2019_Apr_10,4,001,2,source,5,POACHED,LF,target,right,aqua,pleasantness,liberal,no,9,1,0.946629522419,-,-
2019_Apr_10,4,001,2,source,6,AGGRAVATE,LF,target,right,aqua,pleasantness,conservative,no,8,1,1.07988689554,-,-
2019_Apr_10,4,001,2,source,7,ACCORDING,HF,target,right,aqua,pleasantness,conservative,no,8,1,1.09326461721,-,-
2019_Apr_10,4,001,2,source,8,WESTERN,HF,target,right,aqua,pleasantness,conservative,no,9,1,0.800042086061,-,-
2019_Apr_10,4,001,2,source,9,OTHERS,HF,target,left,yellow,imageability,conservative,no,2,1,1.35976653234,-,-
2019_Apr_10,4,001,2,source,10,VAGABOND,LF,target,right,aqua,pleasantness,conservative,no,9,1,0.840057204781,-,-
2019_Apr_10,4,001,2,source,11,DEFEATING,LF,target,left,yellow,imageability,liberal,no,2,1,1.6661178615,-,-
2019_Apr_10,4,001,2,source,12,SUAVE,LF,target,right,aqua,pleasantness,conservative,no,9,1,0.786729253185,-,-
2019_Apr_10,4,001,2,source,13,PROBABLY,HF,target,left,yellow,imageability,conservative,no,2,1,0.920026952677,-,-
2019_Apr_10,4,001,2,source,14,MOVED,HF,target,left,yellow,imageability,liberal,no,1,1,0.919995424791,-,-
2019_Apr_10,4,001,2,source,15,LOOKED,HF,target,left,yellow,imageability,liberal,no,8,0,1.02636244457,-,-
2019_Apr_10,4,001,2,source,16,BUGGED,LF,target,right,aqua,pleasantness,liberal,no,9,1,1.03998982309,-,-
2019_Apr_10,4,001,2,source,17,VESTIBULE,LF,target,right,aqua,pleasantness,liberal,no,8,1,2.15996699104,-,-
2019_Apr_10,4,001,2,source,18,BOASTS,LF,target,left,yellow,imageability,conservative,yes,8,0,0.999754375778,-,-
2019_Apr_10,4,001,2,source,19,THANK,HF,target,right,aqua,pleasantness,conservative,no,9,1,1.25319458131,-,-
2019_Apr_10,4,001,2,source,20,UNCANNILY,LF,target,right,aqua,pleasantness,conservative,yes,2,0,0.801235379859,-,-
2019_Apr_10,4,001,2,source,21,ARRIVED,HF,target,right,aqua,pleasantness,liberal,no,9,1,0.933105526032,-,-
2019_Apr_10,4,001,2,source,22,BUNGALOWS,LF,target,left,yellow,imageability,liberal,no,1,1,0.75987336055,-,-
2019_Apr_10,4,001,2,source,23,FRIEND,HF,target,left,yellow,imageability,liberal,no,1,1,0.678543514347,-,-
2019_Apr_10,4,001,2,source,24,SENSE,HF,target,left,yellow,imageability,liberal,no,8,0,0.7200430099,-,-
2019_Apr_10,4,001,2,source,25,WAITING,HF,target,right,aqua,pleasantness,liberal,no,9,1,1.11967838624,-,-
2019_Apr_10,4,001,2,source,26,ENOUGH,HF,target,left,yellow,imageability,conservative,no,2,1,1.32002783252,-,-
2019_Apr_10,4,001,2,source,27,MAYBE,HF,target,right,aqua,pleasantness,conservative,no,9,1,1.03995132974,-,-
2019_Apr_10,4,001,2,source,28,SITTING,HF,target,left,yellow,imageability,liberal,no,1,1,0.946425324371,-,-
2019_Apr_10,4,001,2,source,29,UNHEEDED,LF,target,right,aqua,pleasantness,liberal,no,8,1,1.14632054914,-,-
2019_Apr_10,4,001,2,source,30,RUNNING,HF,target,right,aqua,pleasantness,liberal,no,9,1,0.946885411535,-,-
2019_Apr_10,4,001,2,source,31,FLECKED,LF,target,left,yellow,imageability,liberal,no,1,1,0.866754724784,-,-
2019_Apr_10,4,001,2,source,32,ATTACK,HF,target,right,aqua,pleasantness,liberal,no,9,1,0.786488761409,-,-
2019_Apr_10,4,001,2,source,33,GAMBITS,LF,target,right,aqua,pleasantness,liberal,no,8,1,1.10659578025,-,-
2019_Apr_10,4,001,2,source,34,SAWDUST,LF,target,left,yellow,imageability,conservative,yes,2,1,0.773373161117,-,-
2019_Apr_10,4,001,2,source,35,POINT,HF,target,left,yellow,imageability,conservative,no,1,1,0.746940695315,-,-
2019_Apr_10,4,001,2,source,36,IRRIGATED,LF,target,right,aqua,pleasantness,conservative,yes,3,0,0.879769509162,-,-
2019_Apr_10,4,001,2,source,37,BEYOND,HF,target,right,aqua,pleasantness,liberal,no,9,1,1.07967023298,-,-
2019_Apr_10,4,001,2,source,38,REUNITED,LF,target,left,yellow,imageability,conservative,no,9,0,1.01336525715,-,-
2019_Apr_10,4,001,2,source,39,ICILY,LF,target,right,aqua,pleasantness,conservative,no,9,1,0.706751073414,-,-
2019_Apr_10,4,001,2,source,40,CRONE,LF,target,right,aqua,pleasantness,liberal,no,9,1,0.826712110815,-,-
2019_Apr_10,4,001,2,source,41,THRASH,LF,target,left,yellow,imageability,conservative,no,1,1,1.22649962753,-,-
2019_Apr_10,4,001,2,source,42,HUSBAND,HF,target,right,aqua,pleasantness,conservative,no,9,1,0.760033199596,-,-
2019_Apr_10,4,001,2,source,43,CLOSE,HF,target,left,yellow,imageability,conservative,no,2,1,1.1996664643,-,-
2019_Apr_10,4,001,2,source,44,PITCHER,LF,target,left,yellow,imageability,liberal,no,1,1,0.759830834564,-,-
2019_Apr_10,4,001,2,source,45,MAILBOX,LF,target,left,yellow,imageability,liberal,no,1,1,0.626754563478,-,-
2019_Apr_10,4,001,2,source,46,ULCER,LF,target,left,yellow,imageability,liberal,no,1,1,0.706763171323,-,-
2019_Apr_10,4,001,2,source,47,BUILDING,HF,target,left,yellow,imageability,conservative,no,1,1,0.600093337205,-,-
2019_Apr_10,4,001,2,recog,0,NEITHER,HF,lure,-,-,-,liberal,no,m,1,1.06639699326,1,317
2019_Apr_10,4,001,2,recog,1,SUBJECT,HF,target,right,aqua,pleasantness,conservative,no,z,1,0.759797473664,1,318
2019_Apr_10,4,001,2,recog,2,ARRIVED,HF,target,right,aqua,pleasantness,liberal,yes,m,0,1.33319255766,-3,315
2019_Apr_10,4,001,2,recog,3,DEFEATING,LF,target,left,yellow,imageability,liberal,no,z,1,1.38656596807,3,318
2019_Apr_10,4,001,2,recog,4,MARKET,HF,lure,-,-,-,liberal,no,m,1,0.946629155815,1,319
2019_Apr_10,4,001,2,recog,5,MUTATIONS,LF,lure,-,-,-,liberal,no,m,1,1.21320769104,1,320
2019_Apr_10,4,001,2,recog,6,RUGGER,LF,lure,-,-,-,liberal,no,m,1,0.906402140377,1,321
2019_Apr_10,4,001,2,recog,7,MAYBE,HF,target,right,aqua,pleasantness,conservative,no,z,1,0.72008150325,1,322
2019_Apr_10,4,001,2,recog,8,KRONOR,LF,lure,-,-,-,liberal,no,m,1,1.05335324723,1,323
2019_Apr_10,4,001,2,recog,9,AGGRAVATE,LF,target,right,aqua,pleasantness,conservative,no,z,1,0.69340524624,1,324
2019_Apr_10,4,001,2,recog,10,FERRET,LF,lure,-,-,-,conservative,no,m,1,0.680086547711,3,327
2019_Apr_10,4,001,2,recog,11,POINT,HF,target,left,yellow,imageability,conservative,no,z,1,0.733397635555,1,328
2019_Apr_10,4,001,2,recog,12,ALONE,HF,lure,-,-,-,liberal,no,m,1,1.22653335503,1,329
2019_Apr_10,4,001,2,recog,13,VAGABOND,LF,target,right,aqua,pleasantness,conservative,no,z,1,1.02672244903,1,330
2019_Apr_10,4,001,2,recog,14,LANGUAGE,HF,lure,-,-,-,conservative,no,m,1,0.719840278267,3,333
2019_Apr_10,4,001,2,recog,15,ADHERE,LF,lure,-,-,-,conservative,no,m,1,0.893456644026,3,336
2019_Apr_10,4,001,2,recog,16,HUNDRED,HF,lure,-,-,-,conservative,no,m,1,0.706513514464,3,339
2019_Apr_10,4,001,2,recog,17,BUNGALOWS,LF,target,left,yellow,imageability,liberal,no,z,1,0.613445030032,3,342
2019_Apr_10,4,001,2,recog,18,SENSE,HF,target,left,yellow,imageability,liberal,no,z,1,0.693418810562,3,345
2019_Apr_10,4,001,2,recog,19,SAINTLY,LF,lure,-,-,-,conservative,no,m,1,1.19964226848,3,348
2019_Apr_10,4,001,2,recog,20,OUGHT,HF,lure,-,-,-,conservative,no,m,1,0.653431187091,3,351
2019_Apr_10,4,001,2,recog,21,LOBBIES,LF,lure,-,-,-,liberal,no,m,1,0.800013124399,1,352
2019_Apr_10,4,001,2,recog,22,HUSBAND,HF,target,right,aqua,pleasantness,conservative,no,z,1,0.68008324828,1,353
2019_Apr_10,4,001,2,recog,23,ROLLERS,LF,lure,-,-,-,conservative,no,m,1,0.706743008142,3,356
2019_Apr_10,4,001,2,recog,24,CLOSE,HF,target,left,yellow,imageability,conservative,no,z,1,0.720041910092,1,357
2019_Apr_10,4,001,2,recog,25,BUILDING,HF,target,left,yellow,imageability,conservative,no,z,1,0.600093337205,1,358
2019_Apr_10,4,001,2,recog,26,ACCORDING,HF,target,right,aqua,pleasantness,conservative,no,z,1,0.586592436826,1,359
2019_Apr_10,4,001,2,recog,27,MEMBERS,HF,target,right,aqua,pleasantness,liberal,no,z,1,0.759796740456,3,362
2019_Apr_10,4,001,2,recog,28,POACHED,LF,target,right,aqua,pleasantness,liberal,no,z,1,0.59990270348,3,365
2019_Apr_10,4,001,2,recog,29,AVAILABLE,HF,lure,-,-,-,liberal,no,m,1,1.09342628927,1,366
2019_Apr_10,4,001,2,recog,30,BEYOND,HF,target,right,aqua,pleasantness,liberal,no,z,1,0.733167042068,3,369
2019_Apr_10,4,001,2,recog,31,FLECKED,LF,target,left,yellow,imageability,liberal,no,z,1,0.839927427207,3,372
2019_Apr_10,4,001,2,recog,32,WANTED,HF,lure,-,-,-,conservative,no,m,1,0.999806066844,3,375
2019_Apr_10,4,001,2,recog,33,VESTIBULE,LF,target,right,aqua,pleasantness,liberal,no,z,1,0.706739708712,3,378
2019_Apr_10,4,001,2,recog,34,IRRIGATED,LF,target,right,aqua,pleasantness,conservative,no,z,1,0.840003680698,1,379
2019_Apr_10,4,001,2,recog,35,ATTACK,HF,target,right,aqua,pleasantness,liberal,no,z,1,0.666787645761,3,382
2019_Apr_10,4,001,2,recog,36,WISPY,LF,lure,-,-,-,conservative,no,m,1,0.82672824136,3,385
2019_Apr_10,4,001,2,recog,37,DERANGED,LF,lure,-,-,-,conservative,yes,z,0,0.906465929353,-3,382
2019_Apr_10,4,001,2,recog,38,SHALL,HF,lure,-,-,-,liberal,no,m,1,0.95996728432,1,383
2019_Apr_10,4,001,2,recog,39,ALREADY,HF,lure,-,-,-,liberal,no,z,0,1.13327936933,-1,382
2019_Apr_10,4,001,2,recog,40,LOOKED,HF,target,left,yellow,imageability,liberal,no,z,1,1.89292543582,3,385
2019_Apr_10,4,001,2,recog,41,COILING,LF,lure,-,-,-,liberal,no,m,1,0.7468728737,1,386
2019_Apr_10,4,001,2,recog,42,ELUDE,LF,lure,-,-,-,conservative,no,m,1,1.22650182715,3,389
2019_Apr_10,4,001,2,recog,43,SEEMED,HF,lure,-,-,-,conservative,no,z,0,1.49309832594,-3,386
2019_Apr_10,4,001,2,recog,44,FOOLHARDY,LF,lure,-,-,-,conservative,no,m,1,0.639865031322,3,389
2019_Apr_10,4,001,2,recog,45,DOCTOR,HF,lure,-,-,-,conservative,no,m,1,0.640187642242,3,392
2019_Apr_10,4,001,2,recog,46,WHATEVER,HF,lure,-,-,-,conservative,no,m,1,0.799793162409,3,395
2019_Apr_10,4,001,2,recog,47,ENOUGH,HF,target,left,yellow,imageability,conservative,no,z,1,0.61349232186,1,396
2019_Apr_10,4,001,2,recog,48,ALLOWED,HF,lure,-,-,-,conservative,no,z,0,0.666629639732,-3,393
2019_Apr_10,4,001,2,recog,49,BOASTS,LF,target,left,yellow,imageability,conservative,no,z,1,1.19994948206,1,394
2019_Apr_10,4,001,2,recog,50,THRASH,LF,target,left,yellow,imageability,conservative,no,z,1,0.573439442996,1,395
2019_Apr_10,4,001,2,recog,51,WAITING,HF,target,right,aqua,pleasantness,liberal,no,z,1,0.866741527063,3,398
2019_Apr_10,4,001,2,recog,52,LENGTHEN,LF,target,left,yellow,imageability,conservative,no,z,1,0.959970217145,1,399
2019_Apr_10,4,001,2,recog,53,GLEANED,LF,lure,-,-,-,liberal,no,m,1,0.74672256634,1,400
2019_Apr_10,4,001,2,recog,54,FURTHER,HF,lure,-,-,-,conservative,no,m,1,1.42644837639,3,403
2019_Apr_10,4,001,2,recog,55,RUNNING,HF,target,right,aqua,pleasantness,liberal,no,z,1,0.666895060533,3,406
2019_Apr_10,4,001,2,recog,56,NEARLY,HF,lure,-,-,-,liberal,no,m,1,0.866687636377,1,407
2019_Apr_10,4,001,2,recog,57,GAMBITS,LF,target,right,aqua,pleasantness,liberal,no,z,1,0.760144647005,3,410
2019_Apr_10,4,001,2,recog,58,SAWDUST,LF,target,left,yellow,imageability,conservative,no,z,1,0.706716612704,1,411
2019_Apr_10,4,001,2,recog,59,MOMENT,HF,lure,-,-,-,liberal,yes,z,0,1.06636473217,-1,410
2019_Apr_10,4,001,2,recog,60,PITCHER,LF,target,left,yellow,imageability,liberal,no,z,1,0.759835967012,3,413
2019_Apr_10,4,001,2,recog,61,ICILY,LF,target,right,aqua,pleasantness,conservative,no,z,1,1.82636530408,1,414
2019_Apr_10,4,001,2,recog,62,MAILBOX,LF,target,left,yellow,imageability,liberal,no,z,1,0.853339242978,3,417
2019_Apr_10,4,001,2,recog,63,SLUGS,LF,target,left,yellow,imageability,conservative,no,z,1,0.573447141667,1,418
2019_Apr_10,4,001,2,recog,64,SUAVE,LF,target,right,aqua,pleasantness,conservative,no,z,1,0.613475091504,1,419
2019_Apr_10,4,001,2,recog,65,REUNITED,LF,target,left,yellow,imageability,conservative,no,z,1,0.74675995988,1,420
2019_Apr_10,4,001,2,recog,66,PEOPLED,LF,lure,-,-,-,liberal,no,m,1,0.986719428216,1,421
2019_Apr_10,4,001,2,recog,67,SITTING,HF,target,left,yellow,imageability,liberal,no,z,1,0.680064184909,3,424
2019_Apr_10,4,001,2,recog,68,SODDING,LF,lure,-,-,-,conservative,yes,m,1,0.760139514559,3,427
2019_Apr_10,4,001,2,recog,69,PROBABLY,HF,target,left,yellow,imageability,conservative,no,z,1,1.58637357465,1,428
2019_Apr_10,4,001,2,recog,70,TRIED,HF,target,left,yellow,imageability,liberal,no,z,1,0.920146098755,3,431
2019_Apr_10,4,001,2,recog,71,NICETIES,LF,lure,-,-,-,liberal,no,m,1,0.733421098168,1,432
2019_Apr_10,4,001,2,recog,72,FRIEND,HF,target,left,yellow,imageability,liberal,no,z,1,0.573431011122,3,435
2019_Apr_10,4,001,2,recog,73,UNHEEDED,LF,target,right,aqua,pleasantness,liberal,no,z,1,0.773410188052,3,438
2019_Apr_10,4,001,2,recog,74,CERTAIN,HF,lure,-,-,-,conservative,no,m,1,1.37291622674,3,441
2019_Apr_10,4,001,2,recog,75,WESTERN,HF,target,right,aqua,pleasantness,conservative,no,z,1,0.8134282396,1,442
2019_Apr_10,4,001,2,recog,76,LUCERNE,LF,lure,-,-,-,liberal,no,m,1,1.02640643697,1,443
2019_Apr_10,4,001,2,recog,77,STAFF,HF,lure,-,-,-,liberal,no,m,1,1.97291388048,1,444
2019_Apr_10,4,001,2,recog,78,CORNER,HF,lure,-,-,-,conservative,no,m,1,0.760065094084,3,447
2019_Apr_10,4,001,2,recog,79,ULCER,LF,target,left,yellow,imageability,liberal,no,z,1,0.680067117735,3,450
2019_Apr_10,4,001,2,recog,80,UNCANNILY,LF,target,right,aqua,pleasantness,conservative,no,z,1,1.13303851094,1,451
2019_Apr_10,4,001,2,recog,81,ENAMELLED,LF,lure,-,-,-,liberal,no,m,1,0.866723930105,1,452
2019_Apr_10,4,001,2,recog,82,OTHERS,HF,target,left,yellow,imageability,conservative,no,z,1,0.626966093592,1,453
2019_Apr_10,4,001,2,recog,83,HARDLY,HF,lure,-,-,-,liberal,no,m,1,1.293206034,1,454
2019_Apr_10,4,001,2,recog,84,BRING,HF,lure,-,-,-,liberal,no,m,1,1.35957589862,1,455
2019_Apr_10,4,001,2,recog,85,QUALITY,HF,lure,-,-,-,conservative,no,m,1,0.626947763427,3,458
2019_Apr_10,4,001,2,recog,86,MOVED,HF,target,left,yellow,imageability,liberal,no,z,1,0.600190487085,3,461
2019_Apr_10,4,001,2,recog,87,CRONE,LF,target,right,aqua,pleasantness,liberal,no,z,1,0.773423019169,3,464
2019_Apr_10,4,001,2,recog,88,FEIGNED,LF,lure,-,-,-,conservative,no,m,1,0.666820640059,3,467
2019_Apr_10,4,001,2,recog,89,FOCUSES,LF,lure,-,-,-,liberal,no,m,1,0.773375727342,1,468
2019_Apr_10,4,001,2,recog,90,VACATED,LF,lure,-,-,-,conservative,no,m,1,0.813382414186,3,471
2019_Apr_10,4,001,2,recog,91,NAIVELY,LF,lure,-,-,-,conservative,no,m,1,0.826761235659,3,474
2019_Apr_10,4,001,2,recog,92,BUGGED,LF,target,right,aqua,pleasantness,liberal,no,z,1,0.586915047747,3,477
2019_Apr_10,4,001,2,recog,93,THANK,HF,target,right,aqua,pleasantness,conservative,no,z,1,0.61357737383,1,478
2019_Apr_10,4,001,2,recog,94,CHURCH,HF,lure,-,-,-,liberal,no,m,1,0.653232121489,1,479
2019_Apr_10,4,001,2,recog,95,SNEAKED,LF,lure,-,-,-,liberal,no,m,1,0.853426861171,1,480
2019_Apr_10,4,001,3,source,0,GETTING,HF,target,left,yellow,imageability,liberal,yes,3,1,1.41319749947,-,-
2019_Apr_10,4,001,3,source,1,POLICE,HF,target,right,aqua,pleasantness,conservative,no,9,1,0.760070959739,-,-
2019_Apr_10,4,001,3,source,2,HOSPITAL,HF,target,right,aqua,pleasantness,liberal,no,9,1,0.600179488985,-,-
2019_Apr_10,4,001,3,source,3,COUNCIL,HF,target,right,aqua,pleasantness,liberal,no,9,1,0.586743843996,-,-
2019_Apr_10,4,001,3,source,4,HAIRDO,LF,target,right,aqua,pleasantness,conservative,no,9,1,0.773357763777,-,-
2019_Apr_10,4,001,3,source,5,JUROR,LF,target,left,yellow,imageability,liberal,no,1,1,0.853347674856,-,-
2019_Apr_10,4,001,3,source,6,UPTIGHT,LF,target,left,yellow,imageability,conservative,no,1,1,0.760064727483,-,-
2019_Apr_10,4,001,3,source,7,OEDIPAL,LF,target,left,yellow,imageability,liberal,no,2,1,1.43974764494,-,-
2019_Apr_10,4,001,3,source,8,APPEARED,HF,target,left,yellow,imageability,conservative,no,2,1,1.15995086049,-,-
2019_Apr_10,4,001,3,source,9,PUCKERED,LF,target,right,aqua,pleasantness,liberal,no,9,1,0.733155310762,-,-
2019_Apr_10,4,001,3,source,10,GOUGED,LF,target,right,aqua,pleasantness,conservative,no,9,1,0.800093777128,-,-
2019_Apr_10,4,001,3,source,11,TULIPS,LF,target,right,aqua,pleasantness,liberal,no,9,1,0.693428708853,-,-
2019_Apr_10,4,001,3,source,12,OFTEN,HF,target,left,yellow,imageability,conservative,no,9,0,1.62641692182,-,-
2019_Apr_10,4,001,3,source,13,HYENA,LF,target,right,aqua,pleasantness,conservative,no,9,1,1.10629076629,-,-
2019_Apr_10,4,001,3,source,14,INDEED,HF,target,right,aqua,pleasantness,conservative,no,9,1,1.27982721252,-,-
2019_Apr_10,4,001,3,source,15,HELICAL,LF,target,left,yellow,imageability,conservative,no,1,1,1.27966224103,-,-
2019_Apr_10,4,001,3,source,16,LONGER,HF,target,right,aqua,pleasantness,liberal,no,2,0,1.41322682774,-,-
2019_Apr_10,4,001,3,source,17,BEGAN,HF,target,right,aqua,pleasantness,liberal,yes,3,0,0.706739708712,-,-
2019_Apr_10,4,001,3,source,18,ERODE,LF,target,right,aqua,pleasantness,liberal,no,8,1,1.146570206,-,-
2019_Apr_10,4,001,3,source,19,RECENT,HF,target,left,yellow,imageability,conservative,no,2,1,0.906730983552,-,-
2019_Apr_10,4,001,3,source,20,AUGMENT,LF,target,left,yellow,imageability,liberal,no,8,0,0.78668232796,-,-
2019_Apr_10,4,001,3,source,21,BUZZARD,LF,target,right,aqua,pleasantness,conservative,no,9,1,0.733377838975,-,-
2019_Apr_10,4,001,3,source,22,VICEREGAL,LF,target,right,aqua,pleasantness,liberal,yes,7,1,1.23986488468,-,-
2019_Apr_10,4,001,3,source,23,BETTER,HF,target,left,yellow,imageability,liberal,no,2,1,1.14660430011,-,-
2019_Apr_10,4,001,3,source,24,PISTONS,LF,target,right,aqua,pleasantness,liberal,no,9,1,0.786845833041,-,-
2019_Apr_10,4,001,3,source,25,BOVINE,LF,target,left,yellow,imageability,conservative,no,2,1,0.866507634148,-,-
2019_Apr_10,4,001,3,source,26,ADOPTIVE,LF,target,left,yellow,imageability,liberal,no,1,1,1.30628314094,-,-
2019_Apr_10,4,001,3,source,27,NIGHT,HF,target,left,yellow,imageability,liberal,no,1,1,1.09302815807,-,-
2019_Apr_10,4,001,3,source,28,LABOUR,HF,target,right,aqua,pleasantness,conservative,no,9,1,0.853348774666,-,-
2019_Apr_10,4,001,3,source,29,OBESE,LF,target,left,yellow,imageability,conservative,no,1,1,0.826682049343,-,-
2019_Apr_10,4,001,3,source,30,RENAMED,LF,target,left,yellow,imageability,liberal,no,1,1,0.933281862226,-,-
2019_Apr_10,4,001,3,source,31,PLACE,HF,target,left,yellow,imageability,conservative,no,1,1,1.11981036344,-,-
2019_Apr_10,4,001,3,source,32,RUMBLED,LF,target,left,yellow,imageability,conservative,no,1,1,0.813376915135,-,-
2019_Apr_10,4,001,3,source,33,GROUND,HF,target,right,aqua,pleasantness,conservative,no,9,1,1.21317139732,-,-
2019_Apr_10,4,001,3,source,34,SPUDS,LF,target,right,aqua,pleasantness,conservative,no,8,1,0.840040341031,-,-
2019_Apr_10,4,001,3,source,35,STOOD,HF,target,left,yellow,imageability,conservative,no,2,1,1.08002143896,-,-
2019_Apr_10,4,001,3,source,36,PASSED,HF,target,right,aqua,pleasantness,liberal,no,8,1,1.11963402724,-,-
2019_Apr_10,4,001,3,source,37,NUMBER,HF,target,left,yellow,imageability,liberal,no,1,1,0.800044285681,-,-
2019_Apr_10,4,001,3,source,38,MORNING,HF,target,left,yellow,imageability,liberal,no,1,1,0.76006106145,-,-
2019_Apr_10,4,001,3,source,39,LEVEL,HF,target,left,yellow,imageability,conservative,no,1,1,1.21326744739,-,-
2019_Apr_10,4,001,3,source,40,TRYING,HF,target,right,aqua,pleasantness,liberal,no,8,1,2.18613146981,-,-
2019_Apr_10,4,001,3,source,41,AROUND,HF,target,left,yellow,imageability,liberal,no,2,1,1.33317862673,-,-
2019_Apr_10,4,001,3,source,42,RAYON,LF,target,right,aqua,pleasantness,conservative,no,9,1,0.973068220479,-,-
2019_Apr_10,4,001,3,source,43,ADULATION,LF,target,right,aqua,pleasantness,liberal,no,8,1,1.03994069825,-,-
2019_Apr_10,4,001,3,source,44,SIZZLING,LF,target,left,yellow,imageability,conservative,yes,7,0,0.826667018606,-,-
2019_Apr_10,4,001,3,source,45,RIVER,HF,target,right,aqua,pleasantness,conservative,no,9,1,1.61304579902,-,-
2019_Apr_10,4,001,3,source,46,THING,HF,target,right,aqua,pleasantness,conservative,no,9,1,0.999920813683,-,-
2019_Apr_10,4,001,3,source,47,BIBLES,LF,target,left,yellow,imageability,liberal,no,1,1,0.6134633602,-,-
2019_Apr_10,4,001,3,recog,0,CAPITAL,HF,lure,-,-,-,conservative,no,m,1,0.813373249102,3,483
2019_Apr_10,4,001,3,recog,1,SCRABBLE,LF,lure,-,-,-,liberal,no,m,1,0.720027979165,1,484
2019_Apr_10,4,001,3,recog,2,BEGAN,HF,target,right,aqua,pleasantness,liberal,no,z,1,0.546760619764,3,487
2019_Apr_10,4,001,3,recog,3,MURPHY,LF,lure,-,-,-,conservative,no,m,1,0.600237412307,3,490
2019_Apr_10,4,001,3,recog,4,LIVED,HF,lure,-,-,-,liberal,no,m,1,0.600128164519,1,491
2019_Apr_10,4,001,3,recog,5,DONATE,LF,lure,-,-,-,conservative,no,m,1,0.546822209122,3,494
2019_Apr_10,4,001,3,recog,6,SUCCESS,HF,lure,-,-,-,liberal,no,m,1,0.653426054645,1,495
2019_Apr_10,4,001,3,recog,7,BETTER,HF,target,left,yellow,imageability,liberal,no,z,1,0.626769227611,3,498
2019_Apr_10,4,001,3,recog,8,PLACE,HF,target,left,yellow,imageability,conservative,no,z,1,0.533587462753,1,499
2019_Apr_10,4,001,3,recog,9,ABSENCES,LF,lure,-,-,-,liberal,no,m,1,0.640123486661,1,500
2019_Apr_10,4,001,3,recog,10,LABOUR,HF,target,right,aqua,pleasantness,conservative,no,z,1,0.586867022712,1,501
2019_Apr_10,4,001,3,recog,11,JOBLESS,LF,lure,-,-,-,conservative,no,m,1,0.560125143709,3,504
2019_Apr_10,4,001,3,recog,12,GIVEN,HF,lure,-,-,-,conservative,no,m,1,0.78642827186,3,507
2019_Apr_10,4,001,3,recog,13,TRYING,HF,target,right,aqua,pleasantness,liberal,no,z,1,0.519954951784,3,510
2019_Apr_10,4,001,3,recog,14,ORCHARDS,LF,lure,-,-,-,liberal,no,m,1,0.706741541728,1,511
2019_Apr_10,4,001,3,recog,15,APPEARED,HF,target,left,yellow,imageability,conservative,no,z,1,0.666799743671,1,512
2019_Apr_10,4,001,3,recog,16,UPKEEP,LF,lure,-,-,-,conservative,no,m,1,0.613434031931,3,515
2019_Apr_10,4,001,3,recog,17,RIVER,HF,target,right,aqua,pleasantness,conservative,no,z,1,0.586808366181,1,516
2019_Apr_10,4,001,3,recog,18,GOUGED,LF,target,right,aqua,pleasantness,conservative,no,z,1,0.600229713638,1,517
2019_Apr_10,4,001,3,recog,19,MUSIC,HF,lure,-,-,-,conservative,no,m,1,0.653222589803,3,520
2019_Apr_10,4,001,3,recog,20,EFFECT,HF,lure,-,-,-,liberal,no,m,1,0.879969674574,1,521
2019_Apr_10,4,001,3,recog,21,AROUND,HF,target,left,yellow,imageability,liberal,no,z,1,0.58675080946,3,524
2019_Apr_10,4,001,3,recog,22,PASSED,HF,target,right,aqua,pleasantness,liberal,no,z,1,0.799817724832,3,527
2019_Apr_10,4,001,3,recog,23,OEDIPAL,LF,target,left,yellow,imageability,liberal,yes,m,0,0.707211893785,-3,524
2019_Apr_10,4,001,3,recog,24,VIOLATING,LF,lure,-,-,-,liberal,no,m,1,0.826713577228,1,525
2019_Apr_10,4,001,3,recog,25,NIGHT,HF,target,left,yellow,imageability,liberal,no,z,1,0.626764095163,3,528
2019_Apr_10,4,001,3,recog,26,JUROR,LF,target,left,yellow,imageability,liberal,no,z,1,0.720114497548,3,531
2019_Apr_10,4,001,3,recog,27,WRITE,HF,lure,-,-,-,liberal,no,m,1,0.626803688323,1,532
2019_Apr_10,4,001,3,recog,28,PUCKERED,LF,target,right,aqua,pleasantness,liberal,no,z,1,0.639924421059,3,535
2019_Apr_10,4,001,3,recog,29,OBVIOUSLY,HF,lure,-,-,-,conservative,no,m,1,0.999706717346,3,538
2019_Apr_10,4,001,3,recog,30,DAILIES,LF,lure,-,-,-,conservative,no,m,1,0.706826960302,3,541
2019_Apr_10,4,001,3,recog,31,GETTING,HF,target,left,yellow,imageability,liberal,no,z,1,0.546780782948,3,544
2019_Apr_10,4,001,3,recog,32,WEEKS,HF,lure,-,-,-,conservative,no,m,1,0.98661494627,3,547
2019_Apr_10,4,001,3,recog,33,THING,HF,target,right,aqua,pleasantness,conservative,no,z,1,0.600269673401,1,548
2019_Apr_10,4,001,3,recog,34,ZOOLOGY,LF,lure,-,-,-,conservative,no,m,1,0.666768582389,3,551
2019_Apr_10,4,001,3,recog,35,BIBLES,LF,target,left,yellow,imageability,liberal,no,z,1,0.520225138429,3,554
2019_Apr_10,4,001,3,recog,36,HELICAL,LF,target,left,yellow,imageability,conservative,no,z,1,0.680173066095,1,555
2019_Apr_10,4,001,3,recog,37,ARTIFACTS,LF,lure,-,-,-,liberal,no,m,1,0.733402034795,1,556
2019_Apr_10,4,001,3,recog,38,SIZZLING,LF,target,left,yellow,imageability,conservative,no,z,1,0.546864735106,1,557
2019_Apr_10,4,001,3,recog,39,BOVINE,LF,target,left,yellow,imageability,conservative,no,z,1,0.586806899768,1,558
2019_Apr_10,4,001,3,recog,40,COMES,HF,lure,-,-,-,liberal,no,m,1,0.600162258628,1,559
2019_Apr_10,4,001,3,recog,41,WINDOW,HF,lure,-,-,-,conservative,yes,m,1,0.839979851482,3,562
2019_Apr_10,4,001,3,recog,42,MORNING,HF,target,left,yellow,imageability,liberal,no,z,1,0.613465559818,3,565
2019_Apr_10,4,001,3,recog,43,ERODE,LF,target,right,aqua,pleasantness,liberal,no,z,1,0.80005418397,3,568
2019_Apr_10,4,001,3,recog,44,MOODILY,LF,lure,-,-,-,liberal,no,m,1,0.586765473594,1,569
2019_Apr_10,4,001,3,recog,45,LONGER,HF,target,right,aqua,pleasantness,liberal,no,z,1,0.640117621007,3,572
2019_Apr_10,4,001,3,recog,46,AVOCADO,LF,lure,-,-,-,conservative,no,m,1,0.626563563148,3,575
2019_Apr_10,4,001,3,recog,47,ARDENTLY,LF,lure,-,-,-,liberal,no,z,0,1.07974538666,-1,574
2019_Apr_10,4,001,3,recog,48,GODMOTHER,LF,lure,-,-,-,liberal,no,m,1,1.69313395978,1,575
2019_Apr_10,4,001,3,recog,49,LEVEL,HF,target,left,yellow,imageability,conservative,no,z,1,0.986610913635,1,576
2019_Apr_10,4,001,3,recog,50,NUMBER,HF,target,left,yellow,imageability,liberal,no,z,1,0.546565953404,3,579
2019_Apr_10,4,001,3,recog,51,STOOD,HF,target,left,yellow,imageability,conservative,no,z,1,0.653505974167,1,580
2019_Apr_10,4,001,3,recog,52,POLICE,HF,target,right,aqua,pleasantness,conservative,yes,m,0,0.840040707631,-1,579
2019_Apr_10,4,001,3,recog,53,MIDDLE,HF,lure,-,-,-,liberal,no,m,1,0.826712477417,1,580
2019_Apr_10,4,001,3,recog,54,ADOPTIVE,LF,target,left,yellow,imageability,liberal,no,m,0,0.720147125243,-3,577
2019_Apr_10,4,001,3,recog,55,ANYONE,HF,lure,-,-,-,conservative,no,m,1,0.906436967693,3,580
2019_Apr_10,4,001,3,recog,56,HAIRDO,LF,target,right,aqua,pleasantness,conservative,no,z,1,0.573442009221,1,581
2019_Apr_10,4,001,3,recog,57,ADULATION,LF,target,right,aqua,pleasantness,liberal,no,z,1,0.640141083621,3,584
2019_Apr_10,4,001,3,recog,58,OBESE,LF,target,left,yellow,imageability,conservative,no,z,1,0.573239644189,1,585
2019_Apr_10,4,001,3,recog,59,RUMBLED,LF,target,left,yellow,imageability,conservative,no,z,1,0.733418531943,1,586
2019_Apr_10,4,001,3,recog,60,BUZZARD,LF,target,right,aqua,pleasantness,conservative,no,z,1,0.5734508077,1,587
2019_Apr_10,4,001,3,recog,61,HYPNOSIS,LF,lure,-,-,-,liberal,no,m,1,0.573464738627,1,588
2019_Apr_10,4,001,3,recog,62,HOSPITAL,HF,target,right,aqua,pleasantness,liberal,no,z,1,0.600153460149,3,591
2019_Apr_10,4,001,3,recog,63,TULIPS,LF,target,right,aqua,pleasantness,liberal,no,z,1,0.506696009596,3,594
2019_Apr_10,4,001,3,recog,64,IRONICAL,LF,lure,-,-,-,liberal,no,m,1,0.70664439185,1,595
2019_Apr_10,4,001,3,recog,65,WIPERS,LF,lure,-,-,-,conservative,no,m,1,0.586784536965,3,598
2019_Apr_10,4,001,3,recog,66,SPUDS,LF,target,right,aqua,pleasantness,conservative,no,z,1,0.667024104901,1,599
2019_Apr_10,4,001,3,recog,67,UPTIGHT,LF,target,left,yellow,imageability,conservative,no,z,1,0.84001724502,1,600
2019_Apr_10,4,001,3,recog,68,UTILIZE,LF,lure,-,-,-,conservative,no,m,1,0.613503319959,3,603
2019_Apr_10,4,001,3,recog,69,FIGURE,HF,lure,-,-,-,conservative,no,m,1,0.826676916897,3,606
2019_Apr_10,4,001,3,recog,70,ATROCITY,LF,lure,-,-,-,liberal,no,m,1,0.666754651464,1,607
2019_Apr_10,4,001,3,recog,71,PYJAMA,LF,lure,-,-,-,liberal,yes,z,0,1.31984159804,-1,606
2019_Apr_10,4,001,3,recog,72,VICEREGAL,LF,target,right,aqua,pleasantness,liberal,no,z,1,0.920153797424,3,609
2019_Apr_10,4,001,3,recog,73,OFTEN,HF,target,left,yellow,imageability,conservative,no,m,0,0.78668452758,-1,608
2019_Apr_10,4,001,3,recog,74,RENAMED,LF,target,left,yellow,imageability,liberal,no,z,1,1.8529664074,3,611
2019_Apr_10,4,001,3,recog,75,WITHIN,HF,lure,-,-,-,liberal,no,z,0,1.00008431876,-1,610
2019_Apr_10,4,001,3,recog,76,COUNCIL,HF,target,right,aqua,pleasantness,liberal,no,z,1,0.986610913635,3,613
2019_Apr_10,4,001,3,recog,77,DOING,HF,lure,-,-,-,liberal,no,m,1,0.720085169281,1,614
2019_Apr_10,4,001,3,recog,78,RECENT,HF,target,left,yellow,imageability,conservative,no,z,1,1.14655664168,1,615
2019_Apr_10,4,001,3,recog,79,AUGMENT,LF,target,left,yellow,imageability,liberal,no,z,1,0.653440352175,3,618
2019_Apr_10,4,001,3,recog,80,GROUND,HF,target,right,aqua,pleasantness,conservative,no,z,1,0.546578784521,1,619
2019_Apr_10,4,001,3,recog,81,TOTAL,HF,lure,-,-,-,conservative,no,m,1,0.54655128927,3,622
2019_Apr_10,4,001,3,recog,82,PISTONS,LF,target,right,aqua,pleasantness,liberal,no,z,1,0.880007801319,3,625
2019_Apr_10,4,001,3,recog,83,ADJOURNED,LF,lure,-,-,-,conservative,no,z,0,0.90670092208,-3,622
2019_Apr_10,4,001,3,recog,84,WHITE,HF,lure,-,-,-,conservative,no,m,1,0.907621096407,3,625
2019_Apr_10,4,001,3,recog,85,TERMS,HF,lure,-,-,-,conservative,no,m,1,0.626787557778,3,628
2019_Apr_10,4,001,3,recog,86,MUMBLES,LF,lure,-,-,-,conservative,no,m,1,0.680187730226,3,631
2019_Apr_10,4,001,3,recog,87,INITIATES,LF,lure,-,-,-,conservative,no,m,1,0.826759769245,3,634
2019_Apr_10,4,001,3,recog,88,HYENA,LF,target,right,aqua,pleasantness,conservative,no,z,1,0.613555377629,1,635
2019_Apr_10,4,001,3,recog,89,PLEASE,HF,lure,-,-,-,liberal,no,z,0,0.733410833274,-1,634
2019_Apr_10,4,001,3,recog,90,IMPORTANT,HF,lure,-,-,-,liberal,no,z,0,1.37317541529,-1,633
2019_Apr_10,4,001,3,recog,91,INDEED,HF,target,right,aqua,pleasantness,conservative,no,z,1,0.773398456746,1,634
2019_Apr_10,4,001,3,recog,92,PICTURE,HF,lure,-,-,-,conservative,no,m,1,0.933297992773,3,637
2019_Apr_10,4,001,3,recog,93,RAYON,LF,target,right,aqua,pleasantness,conservative,no,z,1,0.746749694987,1,638
2019_Apr_10,4,001,3,recog,94,PUBLIC,HF,lure,-,-,-,liberal,no,m,1,0.706761704911,1,639
2019_Apr_10,4,001,3,recog,95,FORCE,HF,lure,-,-,-,liberal,no,m,1,0.746774624013,1,640
2019_Apr_10,4,001,4,source,0,IDEAS,HF,target,right,aqua,pleasantness,liberal,no,9,1,2.34610909235,-,-
2019_Apr_10,4,001,4,source,1,LESSENED,LF,target,right,aqua,pleasantness,liberal,no,7,1,2.8793867753,-,-
2019_Apr_10,4,001,4,source,2,DAUGHTER,HF,target,left,yellow,imageability,liberal,no,1,1,0.693189316886,-,-
2019_Apr_10,4,001,4,source,3,HOPPER,LF,target,left,yellow,imageability,liberal,yes,3,1,0.813372515897,-,-
2019_Apr_10,4,001,4,source,4,LIGHT,HF,target,left,yellow,imageability,liberal,no,1,1,0.706523412755,-,-
2019_Apr_10,4,001,4,source,5,SOUND,HF,target,right,aqua,pleasantness,conservative,no,9,1,0.946663616527,-,-
2019_Apr_10,4,001,4,source,6,HERSELF,HF,target,left,yellow,imageability,conservative,no,1,1,0.693427609041,-,-
2019_Apr_10,4,001,4,source,7,TELEPHONE,HF,target,right,aqua,pleasantness,liberal,no,9,1,0.879808735717,-,-
2019_Apr_10,4,001,4,source,8,OPULENCE,LF,target,left,yellow,imageability,conservative,no,2,1,1.03992970015,-,-
2019_Apr_10,4,001,4,source,9,CENTRAL,HF,target,left,yellow,imageability,liberal,no,1,1,1.19991538796,-,-
2019_Apr_10,4,001,4,source,10,GOVERNS,LF,target,left,yellow,imageability,liberal,no,1,1,0.919981493866,-,-
2019_Apr_10,4,001,4,source,11,OATHS,LF,target,left,yellow,imageability,liberal,no,1,1,0.613480957158,-,-
2019_Apr_10,4,001,4,source,12,ALTHOUGH,HF,target,right,aqua,pleasantness,conservative,no,8,1,0.986597715913,-,-
2019_Apr_10,4,001,4,source,13,HILLSIDES,LF,target,right,aqua,pleasantness,conservative,no,9,1,1.14631321708,-,-
2019_Apr_10,4,001,4,source,14,INEDIBLE,LF,target,right,aqua,pleasantness,conservative,no,9,1,1.03995279616,-,-
2019_Apr_10,4,001,4,source,15,SERIOUS,HF,target,right,aqua,pleasantness,liberal,no,9,1,0.599630683819,-,-
2019_Apr_10,4,001,4,source,16,SUPPORT,HF,target,left,yellow,imageability,conservative,no,1,1,1.10184606767,-,-
2019_Apr_10,4,001,4,source,17,THEORY,HF,target,left,yellow,imageability,conservative,no,1,1,0.640099657447,-,-
2019_Apr_10,4,001,4,source,18,DEPARTS,LF,target,right,aqua,pleasantness,liberal,no,9,1,1.15994536144,-,-
2019_Apr_10,4,001,4,source,19,PIECE,HF,target,right,aqua,pleasantness,conservative,no,9,1,0.693394614744,-,-
2019_Apr_10,4,001,4,source,20,RANGE,HF,target,right,aqua,pleasantness,liberal,no,8,1,1.75974321637,-,-
2019_Apr_10,4,001,4,source,21,FICKLE,LF,target,right,aqua,pleasantness,liberal,yes,8,1,0.760167743014,-,-
2019_Apr_10,4,001,4,source,22,NETTLE,LF,target,left,yellow,imageability,liberal,no,2,1,1.6128001748,-,-
2019_Apr_10,4,001,4,source,23,BLACK,HF,target,right,aqua,pleasantness,conservative,no,9,1,0.706743008141,-,-
2019_Apr_10,4,001,4,source,24,SIPHON,LF,target,left,yellow,imageability,liberal,no,1,1,0.666010813331,-,-
2019_Apr_10,4,001,4,source,25,INVOLVED,HF,target,left,yellow,imageability,liberal,no,1,1,1.25323417447,-,-
2019_Apr_10,4,001,4,source,26,IDOLATRY,LF,target,right,aqua,pleasantness,conservative,no,8,1,1.13302458002,-,-
2019_Apr_10,4,001,4,source,27,PIZZA,LF,target,right,aqua,pleasantness,conservative,no,9,1,0.70675840548,-,-
2019_Apr_10,4,001,4,source,28,FIFTIETH,LF,target,left,yellow,imageability,conservative,no,1,1,0.613508452405,-,-
2019_Apr_10,4,001,4,source,29,ORDER,HF,target,left,yellow,imageability,conservative,no,1,1,0.999956740809,-,-
2019_Apr_10,4,001,4,source,30,JABBED,LF,target,left,yellow,imageability,conservative,no,1,1,0.746731364819,-,-
2019_Apr_10,4,001,4,source,31,ROBBERIES,LF,target,right,aqua,pleasantness,liberal,no,9,1,0.840006613524,-,-
2019_Apr_10,4,001,4,source,32,INSIDE,HF,target,left,yellow,imageability,conservative,yes,8,0,0.813390846062,-,-
2019_Apr_10,4,001,4,source,33,ROUND,HF,target,right,aqua,pleasantness,liberal,no,9,1,0.866683603741,-,-
2019_Apr_10,4,001,4,source,34,WALKED,HF,target,left,yellow,imageability,liberal,no,1,1,0.866411950681,-,-
2019_Apr_10,4,001,4,source,35,WRONG,HF,target,right,aqua,pleasantness,conservative,no,9,1,0.839741559324,-,-
2019_Apr_10,4,001,4,source,36,WAFER,LF,target,right,aqua,pleasantness,conservative,no,9,1,0.799996260645,-,-
2019_Apr_10,4,001,4,source,37,REREAD,LF,target,right,aqua,pleasantness,liberal,no,9,1,0.999968838718,-,-
2019_Apr_10,4,001,4,source,38,TURNED,HF,target,left,yellow,imageability,liberal,no,1,1,0.893307803079,-,-
2019_Apr_10,4,001,4,source,39,WATCH,HF,target,right,aqua,pleasantness,liberal,no,9,1,1.08007752927,-,-
2019_Apr_10,4,001,4,source,40,HESITATES,LF,target,left,yellow,imageability,conservative,no,1,1,1.01330110157,-,-
2019_Apr_10,4,001,4,source,41,ELICIT,LF,target,right,aqua,pleasantness,conservative,no,8,1,1.039758863,-,-
2019_Apr_10,4,001,4,source,42,LOCAL,HF,target,left,yellow,imageability,conservative,no,1,1,0.680118808803,-,-
2019_Apr_10,4,001,4,source,43,FECKLESS,LF,target,left,yellow,imageability,liberal,no,1,1,0.693455104292,-,-
2019_Apr_10,4,001,4,source,44,CIPHER,LF,target,left,yellow,imageability,conservative,yes,2,1,0.999967372303,-,-
2019_Apr_10,4,001,4,source,45,NOXIOUS,LF,target,right,aqua,pleasantness,liberal,no,9,1,0.906715586214,-,-
2019_Apr_10,4,001,4,source,46,FRACTIONS,LF,target,left,yellow,imageability,conservative,no,1,1,0.840063803642,-,-
2019_Apr_10,4,001,4,source,47,CONCERNED,HF,target,right,aqua,pleasantness,conservative,no,2,0,2.02621873607,-,-
2019_Apr_10,4,001,4,recog,0,CIPHER,LF,target,left,yellow,imageability,conservative,no,m,0,1.33296159757,-1,639
2019_Apr_10,4,001,4,recog,1,TALKING,HF,lure,-,-,-,conservative,no,m,1,1.15968580629,3,642
2019_Apr_10,4,001,4,recog,2,UNLESS,HF,lure,-,-,-,liberal,no,m,1,0.733406434036,1,643
2019_Apr_10,4,001,4,recog,3,LESSENED,LF,target,right,aqua,pleasantness,liberal,no,z,1,0.613206737877,3,646
2019_Apr_10,4,001,4,recog,4,CLEAR,HF,lure,-,-,-,liberal,yes,m,1,0.519929289552,1,647
2019_Apr_10,4,001,4,recog,5,MYSELF,HF,lure,-,-,-,liberal,no,m,1,1.63914208958,1,648
2019_Apr_10,4,001,4,recog,6,TRADE,HF,lure,-,-,-,conservative,no,m,1,1.15965281199,3,651
2019_Apr_10,4,001,4,recog,7,BRUISING,LF,lure,-,-,-,conservative,no,m,1,0.640259496493,3,654
2019_Apr_10,4,001,4,recog,8,PIZZA,LF,target,right,aqua,pleasantness,conservative,no,z,1,0.56026445297,1,655
2019_Apr_10,4,001,4,recog,9,HOPPER,LF,target,left,yellow,imageability,liberal,no,z,1,0.6665266242,3,658
2019_Apr_10,4,001,4,recog,10,FEELING,HF,lure,-,-,-,conservative,no,m,1,0.693541256071,3,661
2019_Apr_10,4,001,4,recog,11,ELICIT,LF,target,right,aqua,pleasantness,conservative,no,z,1,0.586577039488,1,662
2019_Apr_10,4,001,4,recog,12,ALTHOUGH,HF,target,right,aqua,pleasantness,conservative,no,z,1,0.599893171793,1,663
2019_Apr_10,4,001,4,recog,13,SOMEONE,HF,lure,-,-,-,liberal,no,m,1,0.640114321579,1,664
2019_Apr_10,4,001,4,recog,14,INVOLVED,HF,target,left,yellow,imageability,liberal,no,z,1,0.840015778605,3,667
2019_Apr_10,4,001,4,recog,15,RANGE,HF,target,right,aqua,pleasantness,liberal,yes,z,1,1.13323757655,3,670
2019_Apr_10,4,001,4,recog,16,VOICE,HF,lure,-,-,-,liberal,no,z,0,0.826680582928,-1,669
2019_Apr_10,4,001,4,recog,17,FIFTIETH,LF,target,left,yellow,imageability,conservative,no,z,1,0.800091944111,1,670
2019_Apr_10,4,001,4,recog,18,HUDDLE,LF,lure,-,-,-,liberal,no,m,1,0.733400568382,1,671
2019_Apr_10,4,001,4,recog,19,TWENTY,HF,lure,-,-,-,conservative,no,m,1,0.680129073697,3,674
2019_Apr_10,4,001,4,recog,20,SERIOUS,HF,target,right,aqua,pleasantness,liberal,no,z,1,0.653408457687,3,677
2019_Apr_10,4,001,4,recog,21,JABBED,LF,target,left,yellow,imageability,conservative,no,z,1,0.640080227469,1,678
2019_Apr_10,4,001,4,recog,22,BUSINESS,HF,lure,-,-,-,conservative,no,m,1,0.653450250464,3,681
2019_Apr_10,4,001,4,recog,23,ACQUIRES,LF,lure,-,-,-,conservative,no,m,1,0.680143004623,3,684
2019_Apr_10,4,001,4,recog,24,SUDDENLY,HF,lure,-,-,-,conservative,no,m,1,0.613454561719,3,687
2019_Apr_10,4,001,4,recog,25,JADED,LF,lure,-,-,-,liberal,yes,z,0,1.13326103916,-1,686
2019_Apr_10,4,001,4,recog,26,EDUCATION,HF,lure,-,-,-,conservative,no,m,1,0.853366005022,3,689
2019_Apr_10,4,001,4,recog,27,REREAD,LF,target,right,aqua,pleasantness,liberal,yes,m,0,1.03973760001,-3,686
2019_Apr_10,4,001,4,recog,28,SOCIAL,HF,lure,-,-,-,liberal,no,m,1,1.0533176867,1,687
2019_Apr_10,4,001,4,recog,29,JUMBO,LF,lure,-,-,-,liberal,no,m,1,0.760146480023,1,688
2019_Apr_10,4,001,4,recog,30,TURNED,HF,target,left,yellow,imageability,liberal,no,z,1,0.813203145164,3,691
2019_Apr_10,4,001,4,recog,31,JACKALS,LF,lure,-,-,-,conservative,no,m,1,0.799829456137,3,694
2019_Apr_10,4,001,4,recog,32,LOCAL,HF,target,left,yellow,imageability,conservative,no,z,1,0.866677371483,1,695
2019_Apr_10,4,001,4,recog,33,HESITATES,LF,target,left,yellow,imageability,conservative,no,z,1,0.680094246381,1,696
2019_Apr_10,4,001,4,recog,34,PECKED,LF,lure,-,-,-,liberal,no,m,1,0.773422652566,1,697
2019_Apr_10,4,001,4,recog,35,CLUBBED,LF,lure,-,-,-,liberal,no,m,1,0.720032011801,1,698
2019_Apr_10,4,001,4,recog,36,DAUGHTER,HF,target,left,yellow,imageability,liberal,no,z,1,0.600168857489,3,701
2019_Apr_10,4,001,4,recog,37,SIPHON,LF,target,left,yellow,imageability,liberal,no,z,1,0.640126052886,3,704
2019_Apr_10,4,001,4,recog,38,TENABLE,LF,lure,-,-,-,liberal,no,m,1,0.746738696886,1,705
2019_Apr_10,4,001,4,recog,39,PALATABLE,LF,lure,-,-,-,conservative,no,m,1,0.879770975576,3,708
2019_Apr_10,4,001,4,recog,40,SOUND,HF,target,right,aqua,pleasantness,conservative,no,z,1,0.893637379462,1,709
2019_Apr_10,4,001,4,recog,41,CONCERNED,HF,target,right,aqua,pleasantness,conservative,no,z,1,0.879994603598,1,710
2019_Apr_10,4,001,4,recog,42,MUNCH,LF,lure,-,-,-,liberal,no,m,1,0.732900154851,1,711
2019_Apr_10,4,001,4,recog,43,FECKLESS,LF,target,left,yellow,imageability,liberal,no,z,1,0.70675950529,3,714
2019_Apr_10,4,001,4,recog,44,BELIEVE,HF,lure,-,-,-,conservative,no,m,1,0.813162452196,3,717
2019_Apr_10,4,001,4,recog,45,CEASELESS,LF,lure,-,-,-,liberal,no,m,1,0.680056852842,1,718
2019_Apr_10,4,001,4,recog,46,UNVEILED,LF,lure,-,-,-,conservative,no,m,1,0.626804788133,3,721
2019_Apr_10,4,001,4,recog,47,HAPPEN,HF,lure,-,-,-,liberal,no,m,1,0.733444194177,1,722
2019_Apr_10,4,001,4,recog,48,HUMAN,HF,lure,-,-,-,liberal,no,m,1,0.626661446237,1,723
2019_Apr_10,4,001,4,recog,49,ROBBERIES,LF,target,right,aqua,pleasantness,liberal,no,z,1,0.719807650572,3,726
2019_Apr_10,4,001,4,recog,50,SALAMI,LF,lure,-,-,-,liberal,no,m,1,0.640278193261,1,727
2019_Apr_10,4,001,4,recog,51,INSIDE,HF,target,left,yellow,imageability,conservative,no,m,0,0.827042420402,-1,726
2019_Apr_10,4,001,4,recog,52,SUPPORT,HF,target,left,yellow,imageability,conservative,no,z,1,1.03982118557,1,727
2019_Apr_10,4,001,4,recog,53,CENTRAL,HF,target,left,yellow,imageability,liberal,no,z,1,0.613447596255,3,730
2019_Apr_10,4,001,4,recog,54,GOVERNS,LF,target,left,yellow,imageability,liberal,no,z,1,0.560183433636,3,733
2019_Apr_10,4,001,4,recog,55,HEMMED,LF,lure,-,-,-,conservative,no,m,1,0.653420922197,3,736
2019_Apr_10,4,001,4,recog,56,DEPARTS,LF,target,right,aqua,pleasantness,liberal,no,z,1,0.813413942071,3,739
2019_Apr_10,4,001,4,recog,57,WRONG,HF,target,right,aqua,pleasantness,conservative,no,z,1,0.800068114897,1,740
2019_Apr_10,4,001,4,recog,58,WATCH,HF,target,right,aqua,pleasantness,liberal,no,z,1,0.573461439197,3,743
2019_Apr_10,4,001,4,recog,59,LUNACY,LF,lure,-,-,-,conservative,no,m,1,0.573297934117,3,746
2019_Apr_10,4,001,4,recog,60,FRACTIONS,LF,target,left,yellow,imageability,conservative,no,z,1,0.626774726659,1,747
2019_Apr_10,4,001,4,recog,61,THEORY,HF,target,left,yellow,imageability,conservative,no,z,1,0.586806899768,1,748
2019_Apr_10,4,001,4,recog,62,ZIPPED,LF,lure,-,-,-,conservative,no,m,1,0.613675623517,3,751
2019_Apr_10,4,001,4,recog,63,IDEAS,HF,target,right,aqua,pleasantness,liberal,no,z,1,0.520159883039,3,754
2019_Apr_10,4,001,4,recog,64,FICKLE,LF,target,right,aqua,pleasantness,liberal,no,z,1,0.653403325239,3,757
2019_Apr_10,4,001,4,recog,65,WALKED,HF,target,left,yellow,imageability,liberal,no,z,1,0.546874266793,3,760
2019_Apr_10,4,001,4,recog,66,WOMAN,HF,lure,-,-,-,conservative,no,m,1,0.613469592454,3,763
2019_Apr_10,4,001,4,recog,67,HERSELF,HF,target,left,yellow,imageability,conservative,no,z,1,0.640124586473,1,764
2019_Apr_10,4,001,4,recog,68,OPULENCE,LF,target,left,yellow,imageability,conservative,no,z,1,0.866734194999,1,765
2019_Apr_10,4,001,4,recog,69,IDOLATRY,LF,target,right,aqua,pleasantness,conservative,no,z,1,0.573464005422,1,766
2019_Apr_10,4,001,4,recog,70,CUSTODIAN,LF,lure,-,-,-,conservative,no,m,1,0.613462260388,3,769
2019_Apr_10,4,001,4,recog,71,HILLSIDES,LF,target,right,aqua,pleasantness,conservative,no,z,1,0.573529627414,1,770
2019_Apr_10,4,001,4,recog,72,NETTLE,LF,target,left,yellow,imageability,liberal,no,z,1,0.720170221251,3,773
2019_Apr_10,4,001,4,recog,73,SUFFERER,LF,lure,-,-,-,conservative,no,m,1,0.813478464255,3,776
2019_Apr_10,4,001,4,recog,74,OATHS,LF,target,left,yellow,imageability,liberal,no,z,1,0.680129073695,3,779
2019_Apr_10,4,001,4,recog,75,WAFER,LF,target,right,aqua,pleasantness,conservative,no,z,1,0.973380199901,1,780
2019_Apr_10,4,001,4,recog,76,FENCED,LF,lure,-,-,-,conservative,no,m,1,0.666546787381,3,783
2019_Apr_10,4,001,4,recog,77,TELEPHONE,HF,target,right,aqua,pleasantness,liberal,no,z,1,0.959984148074,3,786
2019_Apr_10,4,001,4,recog,78,INNATELY,LF,lure,-,-,-,liberal,no,m,1,0.826664818986,1,787
2019_Apr_10,4,001,4,recog,79,ROUND,HF,target,right,aqua,pleasantness,liberal,no,z,1,0.680100112033,3,790
2019_Apr_10,4,001,4,recog,80,NOXIOUS,LF,target,right,aqua,pleasantness,liberal,no,z,1,0.57348600162,3,793
2019_Apr_10,4,001,4,recog,81,TABLE,HF,lure,-,-,-,liberal,no,m,1,0.786759314657,1,794
2019_Apr_10,4,001,4,recog,82,CRYPT,LF,lure,-,-,-,liberal,no,m,1,0.666755018066,1,795
2019_Apr_10,4,001,4,recog,83,BECAME,HF,lure,-,-,-,conservative,no,m,1,0.760048963539,3,798
2019_Apr_10,4,001,4,recog,84,PIECE,HF,target,right,aqua,pleasantness,conservative,no,z,1,0.693440806761,1,799
2019_Apr_10,4,001,4,recog,85,TAKEN,HF,lure,-,-,-,liberal,no,m,1,0.826718709674,1,800
2019_Apr_10,4,001,4,recog,86,BLACK,HF,target,right,aqua,pleasantness,conservative,no,z,1,0.666867931888,1,801
2019_Apr_10,4,001,4,recog,87,DEGREE,HF,lure,-,-,-,conservative,no,m,1,0.666767482579,3,804
2019_Apr_10,4,001,4,recog,88,SOLEMNITY,LF,lure,-,-,-,liberal,no,m,1,0.773476909857,1,805
2019_Apr_10,4,001,4,recog,89,VALUE,HF,lure,-,-,-,liberal,no,m,1,0.693629240868,1,806
2019_Apr_10,4,001,4,recog,90,CRUCIALLY,LF,lure,-,-,-,conservative,no,m,1,0.720109731705,3,809
2019_Apr_10,4,001,4,recog,91,ORDER,HF,target,left,yellow,imageability,conservative,no,z,1,0.600181688606,1,810
2019_Apr_10,4,001,4,recog,92,LIGHT,HF,target,left,yellow,imageability,liberal,no,z,1,0.586561642149,3,813
2019_Apr_10,4,001,4,recog,93,INEDIBLE,LF,target,right,aqua,pleasantness,conservative,no,z,1,0.933402841321,1,814
2019_Apr_10,4,001,4,recog,94,MODERN,HF,lure,-,-,-,liberal,no,m,1,0.680083614885,1,815
2019_Apr_10,4,001,4,recog,95,GLASS,HF,lure,-,-,-,conservative,no,m,1,0.77339992316,3,818
