subj,session,cycle,task,trial,item,wf,type,source,colour,encoding,bias,null,response,corr,rt,points,total
5,001,0,source,0,OEDIPAL,LF,target,right,yellow,imageability,conservative,yes,None,-1,-1,-,-
5,001,0,source,1,KICKER,LF,target,left,aqua,pleasantness,liberal,no,2,1,2.09451178157,-,-
5,001,0,source,2,PRACTICE,HF,target,right,yellow,imageability,conservative,no,8,1,5.2004469644,-,-
5,001,0,source,3,ONCOMING,LF,target,left,aqua,pleasantness,conservative,no,2,1,2.18843992853,-,-
5,001,0,source,4,LONGER,HF,target,left,aqua,pleasantness,conservative,no,2,1,3.69443208172,-,-
5,001,0,source,5,AFTERNOON,HF,target,right,yellow,imageability,conservative,no,7,1,4.37669325528,-,-
5,001,0,source,6,DIFFERENT,HF,target,right,yellow,imageability,liberal,no,3,0,1.78857762524,-,-
5,001,0,source,7,RIDDLES,LF,target,left,aqua,pleasantness,conservative,no,9,0,0.729402500391,-,-
5,001,0,source,8,SOMEONE,HF,target,right,yellow,imageability,liberal,no,2,0,0.58857938494,-,-
5,001,0,source,9,INCLUDING,HF,target,right,yellow,imageability,liberal,no,8,1,0.612005056212,-,-
5,001,0,source,10,SMOCK,LF,target,left,aqua,pleasantness,liberal,no,2,1,1.24727557746,-,-
5,001,0,source,11,DWINDLE,LF,target,right,yellow,imageability,liberal,no,7,1,1.05908713973,-,-
5,001,0,source,12,SOUND,HF,target,right,yellow,imageability,conservative,no,3,0,1.67083923872,-,-
5,001,0,source,13,RINSING,LF,target,right,yellow,imageability,conservative,no,3,0,2.61206517938,-,-
5,001,0,source,14,HUSBAND,HF,target,left,aqua,pleasantness,conservative,no,3,1,1.92965479772,-,-
5,001,0,source,15,BONANZA,LF,target,left,aqua,pleasantness,conservative,no,2,1,2.75324976702,-,-
5,001,0,source,16,BRUISING,LF,target,right,yellow,imageability,conservative,no,9,1,2.77684224342,-,-
5,001,0,source,17,VEILING,LF,target,left,aqua,pleasantness,liberal,no,1,1,1.50612449748,-,-
5,001,0,source,18,MYOPIC,LF,target,left,aqua,pleasantness,conservative,no,3,1,1.27097950167,-,-
5,001,0,source,19,PUBLIC,HF,target,left,aqua,pleasantness,liberal,no,8,0,0.447468118226,-,-
5,001,0,source,20,THING,HF,target,left,aqua,pleasantness,liberal,no,3,1,1.553257759,-,-
5,001,0,source,21,MARKET,HF,target,left,aqua,pleasantness,liberal,no,7,0,1.78855269612,-,-
5,001,0,source,22,MORNING,HF,target,left,aqua,pleasantness,liberal,no,3,1,2.00025332382,-,-
5,001,0,source,23,BUSINESS,HF,target,left,aqua,pleasantness,conservative,no,7,0,1.36503815988,-,-
5,001,0,source,24,FURTHER,HF,target,right,yellow,imageability,conservative,no,3,0,0.376781973609,-,-
5,001,0,source,25,MOMENT,HF,target,right,yellow,imageability,liberal,yes,7,1,0.212066865758,-,-
5,001,0,source,26,ALTHOUGH,HF,target,left,aqua,pleasantness,conservative,no,3,1,1.60036975746,-,-
5,001,0,source,27,RUNNING,HF,target,right,yellow,imageability,liberal,no,7,1,0.659221903602,-,-
5,001,0,source,28,WONDROUS,LF,target,left,aqua,pleasantness,conservative,no,7,0,1.52972320615,-,-
5,001,0,source,29,PILGRIM,LF,target,right,yellow,imageability,liberal,no,3,0,0.329775557294,-,-
5,001,0,source,30,FUTURE,HF,target,right,yellow,imageability,liberal,no,7,1,0.282601602649,-,-
5,001,0,source,31,MUMBLES,LF,target,right,yellow,imageability,conservative,no,3,0,0.541402864062,-,-
5,001,0,source,32,ANSWER,HF,target,left,aqua,pleasantness,conservative,no,8,0,0.259085380026,-,-
5,001,0,source,33,CULINARY,LF,target,right,yellow,imageability,liberal,no,3,0,0.400325691581,-,-
5,001,0,source,34,UNMADE,LF,target,left,aqua,pleasantness,conservative,no,3,1,0.894418590669,-,-
5,001,0,source,35,BLOOD,HF,target,right,yellow,imageability,conservative,no,8,1,0.682451441379,-,-
5,001,0,source,36,POLICE,HF,target,left,aqua,pleasantness,conservative,no,2,1,0.329440847238,-,-
5,001,0,source,37,MONEY,HF,target,right,yellow,imageability,conservative,no,3,0,1.1296677022,-,-
5,001,0,source,38,PRYING,LF,target,right,yellow,imageability,conservative,no,7,1,0.188587670205,-,-
5,001,0,source,39,DETACH,LF,target,right,yellow,imageability,liberal,no,7,1,3.50620808334,-,-
5,001,0,source,40,GOUGED,LF,target,right,yellow,imageability,liberal,yes,2,0,5.48270139244,-,-
5,001,0,source,41,JOWLS,LF,target,right,yellow,imageability,conservative,no,8,1,5.90629108263,-,-
5,001,0,source,42,FULCRUM,LF,target,left,aqua,pleasantness,liberal,no,7,0,6.91817860539,-,-
5,001,0,source,43,CUISINE,LF,target,left,aqua,pleasantness,liberal,no,3,1,2.63554290851,-,-
5,001,0,source,44,ORDER,HF,target,left,aqua,pleasantness,liberal,yes,7,0,5.20041396998,-,-
5,001,0,source,45,BIDDER,LF,target,right,yellow,imageability,liberal,no,7,1,1.34130307427,-,-
5,001,0,source,46,SUSPEND,LF,target,left,aqua,pleasantness,liberal,no,8,0,2.07096329774,-,-
5,001,0,source,47,CONCERNED,HF,target,left,aqua,pleasantness,liberal,no,3,1,3.2474519143,-,-
5,001,0,recog,0,REPORT,HF,lure,-,-,-,liberal,no,None,-1,-1,-1,-1
5,001,0,recog,1,MARKET,HF,target,left,aqua,pleasantness,liberal,no,None,-1,-1,-3,-4
5,001,0,recog,2,ONCOMING,LF,target,left,aqua,pleasantness,conservative,no,z,1,2.36519360026,1,-3
5,001,0,recog,3,SCYTHE,LF,lure,-,-,-,liberal,no,m,1,1.67094225463,1,-2
5,001,0,recog,4,ORDER,HF,target,left,aqua,pleasantness,liberal,no,z,1,2.09443076194,3,1
5,001,0,recog,5,ERSTWHILE,LF,lure,-,-,-,liberal,yes,z,0,5.95340161467,-1,0
5,001,0,recog,6,FUELLED,LF,lure,-,-,-,liberal,no,m,1,3.38853458585,1,1
5,001,0,recog,7,FRIEND,HF,lure,-,-,-,liberal,no,m,1,3.35324045526,1,2
5,001,0,recog,8,INNATELY,LF,lure,-,-,-,liberal,no,m,1,1.83562253504,1,3
5,001,0,recog,9,MONEY,HF,target,right,yellow,imageability,conservative,no,z,1,2.24718319308,1,4
5,001,0,recog,10,ADDED,HF,lure,-,-,-,liberal,no,m,1,1.47059134065,1,5
5,001,0,recog,11,BRING,HF,lure,-,-,-,liberal,no,m,1,1.12971206137,1,6
5,001,0,recog,12,BAUXITE,LF,lure,-,-,-,conservative,no,m,1,1.01200227002,3,9
5,001,0,recog,13,KICKER,LF,target,left,aqua,pleasantness,liberal,no,m,0,1.34123121976,-3,6
5,001,0,recog,14,RUNNING,HF,target,right,yellow,imageability,liberal,no,m,0,2.43559929231,-3,3
5,001,0,recog,15,MUMBLES,LF,target,right,yellow,imageability,conservative,no,z,1,0.812086515767,1,4
5,001,0,recog,16,POLICE,HF,target,left,aqua,pleasantness,conservative,no,z,1,0.753165081346,1,5
5,001,0,recog,17,TIPSY,LF,lure,-,-,-,liberal,no,m,1,1.77681328165,1,6
5,001,0,recog,18,PUBLIC,HF,target,left,aqua,pleasantness,liberal,no,m,0,1.36496813839,-3,3
5,001,0,recog,19,AVOCADO,LF,lure,-,-,-,liberal,no,z,0,1.20034871435,-1,2
5,001,0,recog,20,EXPECT,HF,lure,-,-,-,conservative,no,m,1,0.412010848565,3,5
5,001,0,recog,21,ALREADY,HF,lure,-,-,-,liberal,no,z,0,3.09433177869,-1,4
5,001,0,recog,22,JACKALS,LF,lure,-,-,-,liberal,no,m,1,0.812092381442,1,5
5,001,0,recog,23,NIBBLE,LF,lure,-,-,-,liberal,no,m,1,1.36498426899,1,6
5,001,0,recog,24,ALTHOUGH,HF,target,left,aqua,pleasantness,conservative,no,z,1,0.788551596307,1,7
5,001,0,recog,25,LIGHT,HF,lure,-,-,-,liberal,no,z,0,0.517938699301,-1,6
5,001,0,recog,26,BONANZA,LF,target,left,aqua,pleasantness,conservative,no,m,0,0.0355272911509,-1,5
5,001,0,recog,27,PLEASE,HF,lure,-,-,-,conservative,no,z,0,0.976874577946,-3,2
5,001,0,recog,28,RIDDLES,LF,target,left,aqua,pleasantness,conservative,no,z,1,1.96478615583,1,3
5,001,0,recog,29,SLOWLY,HF,lure,-,-,-,conservative,no,z,0,1.15327337636,-3,0
5,001,0,recog,30,IRRIGATED,LF,lure,-,-,-,conservative,no,m,1,0.741600537296,3,3
5,001,0,recog,31,RIVER,HF,lure,-,-,-,liberal,no,m,1,3.81208798219,1,4
5,001,0,recog,32,PORCHES,LF,lure,-,-,-,conservative,no,m,1,3.61219679045,3,7
5,001,0,recog,33,LEVEL,HF,lure,-,-,-,conservative,no,z,0,1.97685698092,-3,4
5,001,0,recog,34,INCLUDING,HF,target,right,yellow,imageability,liberal,yes,None,-1,-1,-3,1
5,001,0,recog,35,KITCHEN,HF,lure,-,-,-,liberal,no,m,1,2.22387300228,1,2
5,001,0,recog,36,BUSINESS,HF,target,left,aqua,pleasantness,conservative,no,z,1,1.85916918585,1,3
5,001,0,recog,37,MOMENT,HF,target,right,yellow,imageability,liberal,no,z,1,1.87087267307,3,6
5,001,0,recog,38,ANSWER,HF,target,left,aqua,pleasantness,conservative,no,z,1,2.92970758879,1,7
5,001,0,recog,39,BASIC,HF,lure,-,-,-,conservative,no,z,0,1.61200212337,-3,4
5,001,0,recog,40,SMALL,HF,lure,-,-,-,conservative,yes,m,1,0.812159470095,3,7
5,001,0,recog,41,BRUISING,LF,target,right,yellow,imageability,conservative,no,z,1,1.50627003953,1,8
5,001,0,recog,42,FOOLHARDY,LF,lure,-,-,-,conservative,no,z,0,1.55319250337,-3,5
5,001,0,recog,43,HUSBAND,HF,target,left,aqua,pleasantness,conservative,no,m,0,0.529480147258,-1,4
5,001,0,recog,44,FUTURE,HF,target,right,yellow,imageability,liberal,no,z,1,0.282663192232,3,7
5,001,0,recog,45,CULINARY,LF,target,right,yellow,imageability,liberal,no,z,1,1.03564717088,3,10
5,001,0,recog,46,LOWED,LF,lure,-,-,-,conservative,no,m,1,2.72969028505,3,13
5,001,0,recog,47,SORRY,HF,lure,-,-,-,liberal,no,z,0,2.20029922272,-1,12
5,001,0,recog,48,THING,HF,target,left,aqua,pleasantness,liberal,no,m,0,1.32977519069,-3,9
5,001,0,recog,49,ENZYME,LF,lure,-,-,-,conservative,no,m,1,1.47092861694,3,12
5,001,0,recog,50,OEDIPAL,LF,target,right,yellow,imageability,conservative,no,z,1,1.14155962422,1,13
5,001,0,recog,51,TRUTH,HF,lure,-,-,-,conservative,no,z,0,2.23532903135,-3,10
5,001,0,recog,52,LOPSIDED,LF,lure,-,-,-,conservative,no,m,1,0.811982400043,3,13
5,001,0,recog,53,TOFFEE,LF,lure,-,-,-,liberal,no,m,1,5.84756284887,1,14
5,001,0,recog,54,WONDROUS,LF,target,left,aqua,pleasantness,conservative,no,z,1,2.48262147262,1,15
5,001,0,recog,55,LABOUR,HF,lure,-,-,-,liberal,no,m,1,2.90638749966,1,16
5,001,0,recog,56,FURTHER,HF,target,right,yellow,imageability,conservative,no,m,0,2.04738218609,-1,15
5,001,0,recog,57,BIDDER,LF,target,right,yellow,imageability,liberal,no,z,1,1.25918619631,3,18
5,001,0,recog,58,VEERED,LF,lure,-,-,-,conservative,no,z,0,3.69449220489,-3,15
5,001,0,recog,59,ACTION,HF,lure,-,-,-,conservative,no,m,1,0.44725695394,3,18
5,001,0,recog,60,LONGER,HF,target,left,aqua,pleasantness,conservative,no,m,0,0.729740143284,-1,17
5,001,0,recog,61,FOUND,HF,lure,-,-,-,conservative,no,m,1,3.17684055703,3,20
5,001,0,recog,62,PILGRIM,LF,target,right,yellow,imageability,liberal,no,m,0,3.10628858972,-3,17
5,001,0,recog,63,RINSING,LF,target,right,yellow,imageability,conservative,no,z,1,1.89426681634,1,18
5,001,0,recog,64,EXCEPT,HF,lure,-,-,-,conservative,no,m,1,3.49424247379,3,21
5,001,0,recog,65,ATTACK,HF,lure,-,-,-,conservative,no,m,1,1.98858429744,3,24
5,001,0,recog,66,SMOCK,LF,target,left,aqua,pleasantness,liberal,no,m,0,1.81205278814,-3,21
5,001,0,recog,67,FULCRUM,LF,target,left,aqua,pleasantness,liberal,no,z,1,0.647361142985,3,24
5,001,0,recog,68,LUNACY,LF,lure,-,-,-,conservative,no,m,1,1.20023763314,3,27
5,001,0,recog,69,ROUND,HF,lure,-,-,-,liberal,no,z,0,1.81210044674,-1,26
5,001,0,recog,70,PRACTICE,HF,target,right,yellow,imageability,conservative,no,z,1,3.98860995977,1,27
5,001,0,recog,71,VEILING,LF,target,left,aqua,pleasantness,liberal,no,m,0,1.70612127136,-3,24
5,001,0,recog,72,GOUGED,LF,target,right,yellow,imageability,liberal,no,z,1,0.047106865992,3,27
5,001,0,recog,73,BLOOD,HF,target,right,yellow,imageability,conservative,no,z,1,3.21191105878,1,28
5,001,0,recog,74,TOMBSTONE,LF,lure,-,-,-,conservative,no,m,1,1.42376676025,3,31
5,001,0,recog,75,SOUND,HF,target,right,yellow,imageability,conservative,no,z,1,1.32976089311,1,32
5,001,0,recog,76,BALDING,LF,lure,-,-,-,conservative,yes,m,1,1.51797682619,3,35
5,001,0,recog,77,JOWLS,LF,target,right,yellow,imageability,conservative,no,z,1,2.14148263724,1,36
5,001,0,recog,78,UNMADE,LF,target,left,aqua,pleasantness,conservative,no,m,0,0.953223078203,-1,35
5,001,0,recog,79,WAFER,LF,lure,-,-,-,liberal,no,z,0,0.435493343559,-1,34
5,001,0,recog,80,PRYING,LF,target,right,yellow,imageability,conservative,no,z,1,0.800314840084,1,35
5,001,0,recog,81,DIFFERENT,HF,target,right,yellow,imageability,liberal,no,m,0,0.847290461607,-3,32
5,001,0,recog,82,CONCERNED,HF,target,left,aqua,pleasantness,liberal,no,z,1,0.423892505647,3,35
5,001,0,recog,83,MYOPIC,LF,target,left,aqua,pleasantness,conservative,no,z,1,0.98856596721,1,36
5,001,0,recog,84,KNUCKLE,LF,lure,-,-,-,liberal,no,m,1,2.22382644349,1,37
5,001,0,recog,85,DWINDLE,LF,target,right,yellow,imageability,liberal,no,z,1,0.83565149681,3,40
5,001,0,recog,86,MORNING,HF,target,left,aqua,pleasantness,liberal,no,z,1,1.02388209408,3,43
5,001,0,recog,87,CUISINE,LF,target,left,aqua,pleasantness,liberal,no,z,1,1.29448032689,3,46
5,001,0,recog,88,DETACH,LF,target,right,yellow,imageability,liberal,no,m,0,1.34140975623,-3,43
5,001,0,recog,89,KINDEST,LF,lure,-,-,-,conservative,no,m,1,1.4120999335,3,46
5,001,0,recog,90,SOMEONE,HF,target,right,yellow,imageability,liberal,no,z,1,1.02387989445,3,49
5,001,0,recog,91,PIECE,HF,lure,-,-,-,conservative,no,z,0,1.18846522425,-3,46
5,001,0,recog,92,SUSPEND,LF,target,left,aqua,pleasantness,liberal,no,m,0,1.30617134955,-3,43
5,001,0,recog,93,EGOISM,LF,lure,-,-,-,liberal,no,m,1,1.00025992271,1,44
5,001,0,recog,94,AFTERNOON,HF,target,right,yellow,imageability,conservative,no,m,0,1.38849682557,-1,43
5,001,0,recog,95,RESEARCH,HF,lure,-,-,-,liberal,no,z,0,0.0122064688126,-1,42
5,001,1,source,0,HOBBLE,LF,target,left,aqua,pleasantness,conservative,no,2,1,1.67074832077,-,-
5,001,1,source,1,USING,HF,target,right,yellow,imageability,conservative,no,7,1,0.941416941681,-,-
5,001,1,source,2,JASMINE,LF,target,right,yellow,imageability,conservative,no,7,1,2.36502129606,-,-
5,001,1,source,3,WHETHER,HF,target,left,aqua,pleasantness,conservative,no,7,0,1.78862675026,-,-
5,001,1,source,4,GIRLS,HF,target,left,aqua,pleasantness,liberal,no,3,1,0.576779847302,-,-
5,001,1,source,5,SHORT,HF,target,right,yellow,imageability,liberal,no,7,1,0.753080395669,-,-
5,001,1,source,6,LEGALITY,LF,target,right,yellow,imageability,liberal,no,7,1,3.23559811917,-,-
5,001,1,source,7,ACROSS,HF,target,left,aqua,pleasantness,conservative,no,3,1,0.953069837455,-,-
5,001,1,source,8,MEETING,HF,target,right,yellow,imageability,liberal,no,7,1,0.917866624825,-,-
5,001,1,source,9,GYMKHANA,LF,target,right,yellow,imageability,liberal,no,9,1,4.16480419278,-,-
5,001,1,source,10,TIMES,HF,target,right,yellow,imageability,conservative,no,8,1,1.57657308227,-,-
5,001,1,source,11,TOWARDS,HF,target,right,yellow,imageability,liberal,no,7,1,1.91802683106,-,-
5,001,1,source,12,SEDAN,LF,target,left,aqua,pleasantness,liberal,no,7,0,1.56490368929,-,-
5,001,1,source,13,OFFER,HF,target,left,aqua,pleasantness,liberal,no,3,1,0.470853462984,-,-
5,001,1,source,14,WADDLED,LF,target,left,aqua,pleasantness,liberal,no,2,1,1.94141290903,-,-
5,001,1,source,15,GLIDED,LF,target,right,yellow,imageability,conservative,no,2,0,2.2707694372,-,-
5,001,1,source,16,RENAMED,LF,target,left,aqua,pleasantness,conservative,no,8,0,0.964740696857,-,-
5,001,1,source,17,BEGAN,HF,target,right,yellow,imageability,conservative,yes,7,1,2.14165127538,-,-
5,001,1,source,18,LOTTERY,LF,target,right,yellow,imageability,liberal,no,3,0,2.50622641357,-,-
5,001,1,source,19,OPPOSES,LF,target,left,aqua,pleasantness,liberal,no,7,0,1.75328972693,-,-
5,001,1,source,20,FAUCET,LF,target,left,aqua,pleasantness,conservative,no,3,1,1.92966029679,-,-
5,001,1,source,21,FELLS,LF,target,left,aqua,pleasantness,liberal,no,3,1,1.48263980285,-,-
5,001,1,source,22,TELEPHONE,HF,target,left,aqua,pleasantness,liberal,no,2,1,1.48278277867,-,-
5,001,1,source,23,NIGHT,HF,target,right,yellow,imageability,liberal,no,3,0,1.23572239815,-,-
5,001,1,source,24,UNWARY,LF,target,right,yellow,imageability,conservative,no,7,1,1.32956475961,-,-
5,001,1,source,25,LOCAL,HF,target,left,aqua,pleasantness,conservative,no,3,1,1.40032679139,-,-
5,001,1,source,26,ABOVE,HF,target,left,aqua,pleasantness,liberal,no,2,1,0.988477982091,-,-
5,001,1,source,27,ROTARY,LF,target,right,yellow,imageability,conservative,no,3,0,2.01213204807,-,-
5,001,1,source,28,ENERGY,HF,target,left,aqua,pleasantness,liberal,no,7,0,1.16507987949,-,-
5,001,1,source,29,CANNOT,HF,target,left,aqua,pleasantness,conservative,no,8,0,1.15302921766,-,-
5,001,1,source,30,GUESSWORK,LF,target,left,aqua,pleasantness,conservative,no,7,0,1.41186860596,-,-
5,001,1,source,31,SODDING,LF,target,right,yellow,imageability,liberal,no,3,0,2.35299373033,-,-
5,001,1,source,32,PEDALLING,LF,target,right,yellow,imageability,liberal,no,7,1,1.16512973772,-,-
5,001,1,source,33,OUGHT,HF,target,right,yellow,imageability,liberal,no,2,0,1.24742551876,-,-
5,001,1,source,34,BETTER,HF,target,right,yellow,imageability,conservative,no,3,0,1.32970590241,-,-
5,001,1,source,35,MYSELF,HF,target,left,aqua,pleasantness,conservative,no,3,1,1.52984785173,-,-
5,001,1,source,36,VENDETTA,LF,target,left,aqua,pleasantness,conservative,yes,7,0,2.04714792571,-,-
5,001,1,source,37,DAYBREAK,LF,target,left,aqua,pleasantness,liberal,no,8,0,2.22383377558,-,-
5,001,1,source,38,MISFITS,LF,target,left,aqua,pleasantness,conservative,no,3,1,0.682905664555,-,-
5,001,1,source,39,ELICIT,LF,target,right,yellow,imageability,liberal,no,7,1,2.57665006925,-,-
5,001,1,source,40,LAWFUL,LF,target,left,aqua,pleasantness,liberal,yes,7,0,1.09444689255,-,-
5,001,1,source,41,DECIDED,HF,target,right,yellow,imageability,liberal,no,3,0,1.52972577238,-,-
5,001,1,source,42,CASES,HF,target,right,yellow,imageability,conservative,no,2,0,2.05900941954,-,-
5,001,1,source,43,COVER,HF,target,left,aqua,pleasantness,conservative,no,7,0,1.78839872216,-,-
5,001,1,source,44,HANDS,HF,target,right,yellow,imageability,conservative,yes,7,1,1.56494951487,-,-
5,001,1,source,45,ORBITAL,LF,target,right,yellow,imageability,conservative,no,7,1,1.60024987774,-,-
5,001,1,source,46,GOBBLE,LF,target,right,yellow,imageability,conservative,no,7,1,2.40028939772,-,-
5,001,1,source,47,UNTIL,HF,target,left,aqua,pleasantness,liberal,no,3,1,0.964809985138,-,-
5,001,1,recog,0,ORBITAL,LF,target,right,yellow,imageability,conservative,no,z,1,1.45930761577,1,43
5,001,1,recog,1,GAMBITS,LF,lure,-,-,-,conservative,no,m,1,3.80018726166,3,46
5,001,1,recog,2,PAINTWORK,LF,lure,-,-,-,conservative,no,m,1,3.72979513398,3,49
5,001,1,recog,3,PLACE,HF,lure,-,-,-,conservative,no,m,1,5.23566814066,3,52
5,001,1,recog,4,ENERGY,HF,target,left,aqua,pleasantness,liberal,no,z,1,1.05909703805,3,55
5,001,1,recog,5,OFFER,HF,target,left,aqua,pleasantness,liberal,no,z,1,2.1180598988,3,58
5,001,1,recog,6,HANDS,HF,target,right,yellow,imageability,conservative,no,z,1,1.30625750165,1,59
5,001,1,recog,7,STRAIGHT,HF,lure,-,-,-,liberal,no,m,1,3.18857887169,1,60
5,001,1,recog,8,PITCHER,LF,lure,-,-,-,liberal,no,m,1,5.54163749105,1,61
5,001,1,recog,9,SEDAN,LF,target,left,aqua,pleasantness,liberal,yes,z,1,1.7765815875,3,64
5,001,1,recog,10,HOBBLE,LF,target,left,aqua,pleasantness,conservative,no,z,1,1.51800652116,1,65
5,001,1,recog,11,POINT,HF,lure,-,-,-,liberal,no,z,0,4.98861802507,-1,64
5,001,1,recog,12,NEITHER,HF,lure,-,-,-,conservative,no,m,1,4.08286585129,3,67
5,001,1,recog,13,TIMES,HF,target,right,yellow,imageability,conservative,no,z,1,2.95319594946,1,68
5,001,1,recog,14,ORCHARDS,LF,lure,-,-,-,conservative,no,m,1,0.917927114594,3,71
5,001,1,recog,15,LOCAL,HF,target,left,aqua,pleasantness,conservative,no,None,-1,-1,-1,70
5,001,1,recog,16,TWOFOLD,LF,lure,-,-,-,liberal,no,m,1,1.49437041882,1,71
5,001,1,recog,17,SODDING,LF,target,right,yellow,imageability,liberal,no,z,1,0.741556178132,3,74
5,001,1,recog,18,RIGGING,LF,lure,-,-,-,conservative,no,m,1,0.929620703485,3,77
5,001,1,recog,19,YARDSTICK,LF,lure,-,-,-,liberal,no,m,1,2.04735359093,1,78
5,001,1,recog,20,RUPTURE,LF,lure,-,-,-,liberal,no,m,1,1.05905964438,1,79
5,001,1,recog,21,LEGALITY,LF,target,right,yellow,imageability,liberal,no,z,1,0.717960035693,3,82
5,001,1,recog,22,ORIGINALS,LF,lure,-,-,-,liberal,no,m,1,0.870598086177,1,83
5,001,1,recog,23,UNOPENED,LF,lure,-,-,-,conservative,no,m,1,0.85917615134,3,86
5,001,1,recog,24,RENAMED,LF,target,left,aqua,pleasantness,conservative,no,z,1,1.16499922646,1,87
5,001,1,recog,25,THOUSAND,HF,lure,-,-,-,liberal,no,m,1,1.01199787076,1,88
5,001,1,recog,26,ELICIT,LF,target,right,yellow,imageability,liberal,no,z,1,0.694498803769,3,91
5,001,1,recog,27,USHERS,LF,lure,-,-,-,conservative,no,m,1,0.859081933942,3,94
5,001,1,recog,28,CASES,HF,target,right,yellow,imageability,conservative,no,m,0,2.88278035908,-1,93
5,001,1,recog,29,DAYBREAK,LF,target,left,aqua,pleasantness,liberal,no,m,0,1.00025442364,-3,90
5,001,1,recog,30,COVER,HF,target,left,aqua,pleasantness,conservative,no,z,1,1.01205542769,1,91
5,001,1,recog,31,TELEPHONE,HF,target,left,aqua,pleasantness,liberal,no,z,1,0.953213546482,3,94
5,001,1,recog,32,PEDALLING,LF,target,right,yellow,imageability,liberal,no,z,1,2.6592449997,3,97
5,001,1,recog,33,FAUCET,LF,target,left,aqua,pleasantness,conservative,no,z,1,1.03558338166,1,98
5,001,1,recog,34,BETTER,HF,target,right,yellow,imageability,conservative,no,z,1,0.965085305239,1,99
5,001,1,recog,35,EVENING,HF,lure,-,-,-,liberal,no,m,1,3.89447248155,1,100
5,001,1,recog,36,TROUBLE,HF,lure,-,-,-,liberal,no,z,0,3.55317490635,-1,99
5,001,1,recog,37,MERELY,HF,lure,-,-,-,liberal,no,z,0,1.23566704085,-1,98
5,001,1,recog,38,BOWER,LF,lure,-,-,-,conservative,no,z,0,2.55318370486,-3,95
5,001,1,recog,39,FELLS,LF,target,left,aqua,pleasantness,liberal,no,m,0,0.517943465162,-3,92
5,001,1,recog,40,GOBBLE,LF,target,right,yellow,imageability,conservative,no,z,1,0.765042705777,1,93
5,001,1,recog,41,ABOVE,HF,target,left,aqua,pleasantness,liberal,no,z,1,0.600399819044,3,96
5,001,1,recog,42,POWER,HF,lure,-,-,-,conservative,no,m,1,3.78859962152,3,99
5,001,1,recog,43,OUGHT,HF,target,right,yellow,imageability,liberal,no,z,1,1.08268841463,3,102
5,001,1,recog,44,FRUGAL,LF,lure,-,-,-,liberal,no,m,1,1.05898962289,1,103
5,001,1,recog,45,DUNGEON,LF,lure,-,-,-,liberal,no,m,1,1.69429717121,1,104
5,001,1,recog,46,SLIGHTLY,HF,lure,-,-,-,conservative,no,z,0,1.75324903381,-3,101
5,001,1,recog,47,GYMKHANA,LF,target,right,yellow,imageability,liberal,yes,z,1,3.30624100444,3,104
5,001,1,recog,48,INUNDATED,LF,lure,-,-,-,conservative,no,m,1,1.71803299002,3,107
5,001,1,recog,49,WHETHER,HF,target,left,aqua,pleasantness,conservative,no,z,1,0.870878538743,1,108
5,001,1,recog,50,NATIONAL,HF,lure,-,-,-,conservative,no,z,0,1.12976081979,-3,105
5,001,1,recog,51,GLIDED,LF,target,right,yellow,imageability,conservative,no,m,0,0.811898080971,-1,104
5,001,1,recog,52,CATALYST,LF,lure,-,-,-,liberal,no,m,1,1.23565091024,1,105
5,001,1,recog,53,AFRAID,HF,lure,-,-,-,liberal,no,m,1,1.08262462542,1,106
5,001,1,recog,54,VEHEMENCE,LF,lure,-,-,-,liberal,no,m,1,0.753260031953,1,107
5,001,1,recog,55,BRACES,LF,lure,-,-,-,conservative,no,m,1,0.776779554018,3,110
5,001,1,recog,56,PALATABLE,LF,lure,-,-,-,conservative,no,z,0,2.63575150656,-3,107
5,001,1,recog,57,NIGHT,HF,target,right,yellow,imageability,liberal,no,z,1,0.682561789382,3,110
5,001,1,recog,58,MAJOR,HF,lure,-,-,-,conservative,no,m,1,1.04741298088,3,113
5,001,1,recog,59,ACCORDING,HF,lure,-,-,-,conservative,no,z,0,1.08275733631,-3,110
5,001,1,recog,60,UNTIL,HF,target,left,aqua,pleasantness,liberal,no,z,1,0.40007310097,3,113
5,001,1,recog,61,ALMOST,HF,lure,-,-,-,liberal,no,z,0,1.78856369426,-1,112
5,001,1,recog,62,ENOUGH,HF,lure,-,-,-,liberal,yes,z,0,1.35326868382,-1,111
5,001,1,recog,63,CLASS,HF,lure,-,-,-,conservative,no,m,1,0.612227951845,3,114
5,001,1,recog,64,RETURN,HF,lure,-,-,-,conservative,no,z,0,0.764937856844,-3,111
5,001,1,recog,65,ACROSS,HF,target,left,aqua,pleasantness,conservative,no,m,0,0.153275575991,-1,110
5,001,1,recog,66,UNJUSTLY,LF,lure,-,-,-,liberal,no,z,0,0.812093847861,-1,109
5,001,1,recog,67,MEETING,HF,target,right,yellow,imageability,liberal,no,m,0,0.612050515189,-3,106
5,001,1,recog,68,DEFEATING,LF,lure,-,-,-,conservative,no,z,0,2.50625024288,-3,103
5,001,1,recog,69,DEGREE,HF,lure,-,-,-,conservative,no,z,0,0.929725552418,-3,100
5,001,1,recog,70,SHORT,HF,target,right,yellow,imageability,liberal,no,z,1,0.270887117292,3,103
5,001,1,recog,71,BEGAN,HF,target,right,yellow,imageability,conservative,no,m,0,0.600267474761,-1,102
5,001,1,recog,72,LAWFUL,LF,target,left,aqua,pleasantness,liberal,no,m,0,1.16496769846,-3,99
5,001,1,recog,73,LOTTERY,LF,target,right,yellow,imageability,liberal,no,z,1,0.517867944601,3,102
5,001,1,recog,74,GUESSWORK,LF,target,left,aqua,pleasantness,conservative,no,z,1,1.08258246589,1,103
5,001,1,recog,75,GREATER,HF,lure,-,-,-,liberal,no,z,0,1.0002753201,-1,102
5,001,1,recog,76,UNVEILED,LF,lure,-,-,-,liberal,no,z,0,0.917944711618,-1,101
5,001,1,recog,77,GIRLS,HF,target,left,aqua,pleasantness,liberal,no,z,1,0.988604827303,3,104
5,001,1,recog,78,UNWARY,LF,target,right,yellow,imageability,conservative,no,m,0,1.00032297871,-1,103
5,001,1,recog,79,JOYFULLY,LF,lure,-,-,-,liberal,no,z,0,0.494373718258,-1,102
5,001,1,recog,80,VENDETTA,LF,target,left,aqua,pleasantness,conservative,no,z,1,0.953282834763,1,103
5,001,1,recog,81,SEVEN,HF,lure,-,-,-,conservative,no,m,1,2.6001600596,3,106
5,001,1,recog,82,TOWARDS,HF,target,right,yellow,imageability,liberal,no,z,1,1.05916925917,3,109
5,001,1,recog,83,ROTARY,LF,target,right,yellow,imageability,conservative,no,m,0,1.31798225194,-1,108
5,001,1,recog,84,MYSELF,HF,target,left,aqua,pleasantness,conservative,no,z,1,0.776557391593,1,109
5,001,1,recog,85,EARLIER,HF,lure,-,-,-,conservative,no,z,0,0.74144509692,-3,106
5,001,1,recog,86,JASMINE,LF,target,right,yellow,imageability,conservative,no,z,1,0.917954243339,1,107
5,001,1,recog,87,HAVING,HF,lure,-,-,-,liberal,no,z,0,1.11793452001,-1,106
5,001,1,recog,88,WADDLED,LF,target,left,aqua,pleasantness,liberal,no,z,1,0.682630711059,3,109
5,001,1,recog,89,OPPOSES,LF,target,left,aqua,pleasantness,liberal,no,z,1,1.12967393448,3,112
5,001,1,recog,90,MISFITS,LF,target,left,aqua,pleasantness,conservative,no,z,1,0.871045343864,1,113
5,001,1,recog,91,USING,HF,target,right,yellow,imageability,conservative,no,z,1,3.44739149785,1,114
5,001,1,recog,92,MYRIADS,LF,lure,-,-,-,conservative,no,m,1,1.09422839617,3,117
5,001,1,recog,93,FORCE,HF,lure,-,-,-,liberal,no,z,0,3.38859067636,-1,116
5,001,1,recog,94,DECIDED,HF,target,right,yellow,imageability,liberal,yes,z,1,1.63559533298,3,119
5,001,1,recog,95,CANNOT,HF,target,left,aqua,pleasantness,conservative,no,z,1,1.5885056974,1,120
5,001,2,source,0,LEARN,HF,target,left,aqua,pleasantness,liberal,no,2,1,0.917937746129,-,-
5,001,2,source,1,GROUND,HF,target,right,yellow,imageability,conservative,no,8,1,1.04735615716,-,-
5,001,2,source,2,SLUGS,LF,target,right,yellow,imageability,liberal,no,3,0,1.17649484884,-,-
5,001,2,source,3,NEARLY,HF,target,right,yellow,imageability,liberal,no,8,1,1.60002918173,-,-
5,001,2,source,4,SPUDS,LF,target,right,yellow,imageability,liberal,no,2,0,1.22387080265,-,-
5,001,2,source,5,CHIEF,HF,target,right,yellow,imageability,liberal,no,3,0,1.23538438865,-,-
5,001,2,source,6,ENDEARING,LF,target,right,yellow,imageability,liberal,no,8,1,1.09433947738,-,-
5,001,2,source,7,TIRADE,LF,target,right,yellow,imageability,liberal,no,7,1,2.15329390622,-,-
5,001,2,source,8,EDUCATION,HF,target,right,yellow,imageability,liberal,no,8,1,1.98836323483,-,-
5,001,2,source,9,GESTURING,LF,target,right,yellow,imageability,conservative,no,7,1,2.05913333192,-,-
5,001,2,source,10,SHIELDING,LF,target,left,aqua,pleasantness,conservative,no,3,1,1.32950317003,-,-
5,001,2,source,11,NEEDED,HF,target,right,yellow,imageability,liberal,no,7,1,1.12965487104,-,-
5,001,2,source,12,RATHER,HF,target,left,aqua,pleasantness,conservative,no,3,1,2.50606254129,-,-
5,001,2,source,13,OUTSIDE,HF,target,right,yellow,imageability,liberal,no,3,0,1.92979044144,-,-
5,001,2,source,14,DENIALS,LF,target,right,yellow,imageability,conservative,no,7,1,1.01181933429,-,-
5,001,2,source,15,SIDED,LF,target,left,aqua,pleasantness,conservative,no,3,1,0.906225093796,-,-
5,001,2,source,16,TRYING,HF,target,left,aqua,pleasantness,conservative,no,3,1,2.40014862153,-,-
5,001,2,source,17,AEGIS,LF,target,right,yellow,imageability,conservative,no,8,1,1.47090515424,-,-
5,001,2,source,18,CADDIE,LF,target,left,aqua,pleasantness,conservative,no,8,0,1.05921325173,-,-
5,001,2,source,19,DOCTOR,HF,target,left,aqua,pleasantness,conservative,no,2,1,1.40025053763,-,-
5,001,2,source,20,DITTO,LF,target,left,aqua,pleasantness,conservative,no,7,0,1.38862733683,-,-
5,001,2,source,21,THUDDING,LF,target,left,aqua,pleasantness,liberal,no,2,1,0.553166474444,-,-
5,001,2,source,22,MAKES,HF,target,left,aqua,pleasantness,conservative,no,3,1,0.953241775041,-,-
5,001,2,source,23,MEANS,HF,target,right,yellow,imageability,conservative,no,8,1,1.3650322942,-,-
5,001,2,source,24,PROBABLY,HF,target,right,yellow,imageability,conservative,no,3,0,0.482678296344,-,-
5,001,2,source,25,WAYSIDE,LF,target,left,aqua,pleasantness,liberal,no,7,0,1.64736774187,-,-
5,001,2,source,26,AMPLIFY,LF,target,left,aqua,pleasantness,liberal,yes,3,1,1.69453583084,-,-
5,001,2,source,27,APTLY,LF,target,right,yellow,imageability,liberal,no,3,0,1.80017406389,-,-
5,001,2,source,28,CHROMIUM,LF,target,left,aqua,pleasantness,conservative,no,7,0,1.2121647492,-,-
5,001,2,source,29,REACHED,HF,target,left,aqua,pleasantness,conservative,no,3,1,1.43566711417,-,-
5,001,2,source,30,OPTIC,LF,target,right,yellow,imageability,conservative,no,3,0,1.29446639592,-,-
5,001,2,source,31,SUMMER,HF,target,left,aqua,pleasantness,liberal,no,7,0,0.882458846794,-,-
5,001,2,source,32,CAUGHT,HF,target,right,yellow,imageability,conservative,no,3,0,1.22385760488,-,-
5,001,2,source,33,LUMBER,LF,target,left,aqua,pleasantness,liberal,yes,3,1,0.941493562056,-,-
5,001,2,source,34,TOTAL,HF,target,left,aqua,pleasantness,conservative,no,7,0,1.0825912644,-,-
5,001,2,source,35,PHANTOMS,LF,target,right,yellow,imageability,liberal,no,8,1,1.35329764559,-,-
5,001,2,source,36,LANGUAGE,HF,target,right,yellow,imageability,conservative,no,3,0,1.32973963004,-,-
5,001,2,source,37,TOPICAL,LF,target,left,aqua,pleasantness,liberal,yes,3,1,1.25904578672,-,-
5,001,2,source,38,GNARLED,LF,target,right,yellow,imageability,conservative,no,7,1,1.49445290487,-,-
5,001,2,source,39,THYROID,LF,target,right,yellow,imageability,conservative,no,3,0,1.435543935,-,-
5,001,2,source,40,SUGARY,LF,target,left,aqua,pleasantness,conservative,no,3,1,1.0235774456,-,-
5,001,2,source,41,ENTIRELY,HF,target,right,yellow,imageability,conservative,no,7,1,1.517962162,-,-
5,001,2,source,42,HOURS,HF,target,left,aqua,pleasantness,liberal,no,3,1,0.847302926165,-,-
5,001,2,source,43,BEHIND,HF,target,right,yellow,imageability,liberal,no,3,0,0.835693656346,-,-
5,001,2,source,44,ABATED,LF,target,left,aqua,pleasantness,liberal,no,3,1,1.09433544473,-,-
5,001,2,source,45,EFFECT,HF,target,left,aqua,pleasantness,liberal,no,3,1,0.976673678592,-,-
5,001,2,source,46,HOTEL,HF,target,left,aqua,pleasantness,liberal,yes,7,0,1.40009216441,-,-
5,001,2,source,47,FREEDOM,HF,target,left,aqua,pleasantness,liberal,no,3,1,0.788566260493,-,-
5,001,2,recog,0,ENTIRELY,HF,target,right,yellow,imageability,conservative,no,z,1,2.12972012667,1,121
5,001,2,recog,1,AMONG,HF,lure,-,-,-,liberal,no,m,1,1.22387923456,1,122
5,001,2,recog,2,SUGARY,LF,target,left,aqua,pleasantness,conservative,no,z,1,0.647342812752,1,123
5,001,2,recog,3,ENDEARING,LF,target,right,yellow,imageability,liberal,no,z,1,0.882680642614,3,126
5,001,2,recog,4,WRITE,HF,lure,-,-,-,liberal,no,m,1,1.08261985956,1,127
5,001,2,recog,5,HECTOR,LF,lure,-,-,-,liberal,no,m,1,2.8942715822,1,128
5,001,2,recog,6,PEGGED,LF,lure,-,-,-,conservative,no,m,1,2.36516683812,3,131
5,001,2,recog,7,SOLEMNITY,LF,lure,-,-,-,conservative,no,m,1,0.906126477142,3,134
5,001,2,recog,8,SIDED,LF,target,left,aqua,pleasantness,conservative,no,z,1,1.03538358212,1,135
5,001,2,recog,9,TIRADE,LF,target,right,yellow,imageability,liberal,no,z,1,0.718056086114,3,138
5,001,2,recog,10,HARDLY,HF,lure,-,-,-,conservative,no,z,0,5.29436118038,-3,135
5,001,2,recog,11,THYROID,LF,target,right,yellow,imageability,conservative,no,z,1,0.800249217849,1,136
5,001,2,recog,12,CAUGHT,HF,target,right,yellow,imageability,conservative,no,z,1,3.67100861008,1,137
5,001,2,recog,13,FEELING,HF,lure,-,-,-,conservative,no,m,1,3.90599229984,3,140
5,001,2,recog,14,ABATED,LF,target,left,aqua,pleasantness,liberal,no,z,1,1.00025442364,3,143
5,001,2,recog,15,INORGANIC,LF,lure,-,-,-,liberal,no,m,1,0.988738638005,1,144
5,001,2,recog,16,HESITATES,LF,lure,-,-,-,liberal,no,m,1,2.69449037186,1,145
5,001,2,recog,17,DOCTOR,HF,target,left,aqua,pleasantness,conservative,no,m,0,1.91758983831,-1,144
5,001,2,recog,18,GNARLED,LF,target,right,yellow,imageability,conservative,no,z,1,0.870959191769,1,145
5,001,2,recog,19,HOTEL,HF,target,left,aqua,pleasantness,liberal,no,z,1,1.24710547289,3,148
5,001,2,recog,20,SPUDS,LF,target,right,yellow,imageability,liberal,no,z,1,0.91802903069,3,151
5,001,2,recog,21,CADDIE,LF,target,left,aqua,pleasantness,conservative,no,z,1,1.44707585124,1,152
5,001,2,recog,22,PROBABLY,HF,target,right,yellow,imageability,conservative,no,z,1,4.20034651473,1,153
5,001,2,recog,23,REACHED,HF,target,left,aqua,pleasantness,conservative,no,m,0,1.12977511737,-1,152
5,001,2,recog,24,OUTSIDE,HF,target,right,yellow,imageability,liberal,no,z,1,4.38860277432,3,155
5,001,2,recog,25,AUSPICES,LF,lure,-,-,-,liberal,no,z,0,2.05907907443,-1,154
5,001,2,recog,26,LUMBER,LF,target,left,aqua,pleasantness,liberal,no,z,1,0.706212189312,3,157
5,001,2,recog,27,UPTIGHT,LF,lure,-,-,-,conservative,no,z,0,2.60028177234,-3,154
5,001,2,recog,28,PHANTOMS,LF,target,right,yellow,imageability,liberal,no,z,1,0.553343544495,3,157
5,001,2,recog,29,TRYING,HF,target,left,aqua,pleasantness,conservative,no,z,1,1.83562583448,1,158
5,001,2,recog,30,DITTO,LF,target,left,aqua,pleasantness,conservative,yes,m,0,2.24747061114,-1,157
5,001,2,recog,31,NEEDED,HF,target,right,yellow,imageability,liberal,no,z,1,0.953297865554,3,160
5,001,2,recog,32,IDEAS,HF,lure,-,-,-,conservative,no,m,1,1.34149847456,3,163
5,001,2,recog,33,OVARIES,LF,lure,-,-,-,liberal,no,m,1,1.32977299106,1,164
5,001,2,recog,34,FREEDOM,HF,target,left,aqua,pleasantness,liberal,no,z,1,0.81205058851,3,167
5,001,2,recog,35,PYJAMA,LF,lure,-,-,-,conservative,no,z,0,0.870905300883,-3,164
5,001,2,recog,36,FATHER,HF,lure,-,-,-,liberal,no,z,0,0.447304979151,-1,163
5,001,2,recog,37,HOURS,HF,target,left,aqua,pleasantness,liberal,no,z,1,0.729699083562,3,166
5,001,2,recog,38,SNIGGERED,LF,lure,-,-,-,conservative,no,m,1,1.54163859086,3,169
5,001,2,recog,39,ELECTING,LF,lure,-,-,-,conservative,no,m,1,1.00038346848,3,172
5,001,2,recog,40,MURPHY,LF,lure,-,-,-,conservative,no,m,1,0.94125563563,3,175
5,001,2,recog,41,ANOINTED,LF,lure,-,-,-,conservative,no,m,1,1.22378391735,3,178
5,001,2,recog,42,SUMMER,HF,target,left,aqua,pleasantness,liberal,no,z,1,2.38854155134,3,181
5,001,2,recog,43,HOPPER,LF,lure,-,-,-,conservative,no,m,1,1.56505143097,3,184
5,001,2,recog,44,PREPARED,HF,lure,-,-,-,liberal,no,m,1,3.62392703981,1,185
5,001,2,recog,45,MEANS,HF,target,right,yellow,imageability,conservative,no,z,1,1.44730277952,1,186
5,001,2,recog,46,RATHER,HF,target,left,aqua,pleasantness,conservative,no,m,0,1.00043332671,-1,185
5,001,2,recog,47,BREAK,HF,lure,-,-,-,liberal,no,z,0,2.04738438572,-1,184
5,001,2,recog,48,MAKES,HF,target,left,aqua,pleasantness,conservative,no,z,1,0.529721373125,1,185
5,001,2,recog,49,BEHIND,HF,target,right,yellow,imageability,liberal,no,z,1,0.859093665292,3,188
5,001,2,recog,50,CUTLER,LF,lure,-,-,-,liberal,no,m,1,1.75328092842,1,189
5,001,2,recog,51,APPEARED,HF,lure,-,-,-,liberal,no,z,0,0.941511892289,-1,188
5,001,2,recog,52,ZEALOTS,LF,lure,-,-,-,liberal,no,m,1,1.07093433597,1,189
5,001,2,recog,53,TERMS,HF,lure,-,-,-,conservative,no,m,1,0.870909700139,3,192
5,001,2,recog,54,ABETTED,LF,lure,-,-,-,conservative,no,z,0,0.717923375226,-3,189
5,001,2,recog,55,THUDDING,LF,target,left,aqua,pleasantness,liberal,no,z,1,0.564955747151,3,192
5,001,2,recog,56,CORNER,HF,lure,-,-,-,liberal,no,z,0,1.6710577351,-1,191
5,001,2,recog,57,BOGEY,LF,lure,-,-,-,liberal,no,z,0,0.9886517527,-1,190
5,001,2,recog,58,LIKELY,HF,lure,-,-,-,conservative,no,z,0,0.918049193946,-3,187
5,001,2,recog,59,NEARLY,HF,target,right,yellow,imageability,liberal,yes,z,1,0.917906218128,3,190
5,001,2,recog,60,QUESTION,HF,lure,-,-,-,conservative,no,z,0,1.05903178242,-3,187
5,001,2,recog,61,ALIAS,LF,lure,-,-,-,liberal,no,m,1,0.294229202701,1,188
5,001,2,recog,62,FINAL,HF,lure,-,-,-,liberal,no,m,1,1.07066744778,1,189
5,001,2,recog,63,SHIELDING,LF,target,left,aqua,pleasantness,conservative,no,z,1,1.16492443911,1,190
5,001,2,recog,64,EFFECT,HF,target,left,aqua,pleasantness,liberal,no,z,1,0.647214501121,3,193
5,001,2,recog,65,CHROMIUM,LF,target,left,aqua,pleasantness,conservative,no,z,1,0.917987604363,1,194
5,001,2,recog,66,AEGIS,LF,target,right,yellow,imageability,conservative,no,z,1,0.565009638037,1,195
5,001,2,recog,67,DEVELOPED,HF,lure,-,-,-,liberal,no,m,1,1.04740381577,1,196
5,001,2,recog,68,HOWEVER,HF,lure,-,-,-,liberal,no,m,1,1.27090508092,1,197
5,001,2,recog,69,DENIALS,LF,target,right,yellow,imageability,conservative,no,m,0,1.10621490219,-1,196
5,001,2,recog,70,DIGESTING,LF,lure,-,-,-,conservative,no,m,1,1.17672214373,3,199
5,001,2,recog,71,ADHERE,LF,lure,-,-,-,liberal,no,m,1,3.36508508528,1,200
5,001,2,recog,72,SLUGS,LF,target,right,yellow,imageability,liberal,no,z,1,0.88247351098,3,203
5,001,2,recog,73,EDUCATION,HF,target,right,yellow,imageability,liberal,no,m,0,0.870910433349,-3,200
5,001,2,recog,74,YELLOWED,LF,lure,-,-,-,liberal,no,m,1,0.847331154724,1,201
5,001,2,recog,75,EVIDENCE,HF,lure,-,-,-,conservative,no,m,1,1.65920100714,3,204
5,001,2,recog,76,WESTERN,HF,lure,-,-,-,liberal,no,m,1,2.98861399242,1,205
5,001,2,recog,77,WINDOW,HF,lure,-,-,-,conservative,no,z,0,1.03562407478,-3,202
5,001,2,recog,78,AMPLIFY,LF,target,left,aqua,pleasantness,liberal,no,z,1,0.588547856939,3,205
5,001,2,recog,79,APTLY,LF,target,right,yellow,imageability,liberal,no,z,1,0.623906509946,3,208
5,001,2,recog,80,AXIOM,LF,lure,-,-,-,conservative,no,m,1,1.9650743071,3,211
5,001,2,recog,81,TOTAL,HF,target,left,aqua,pleasantness,conservative,no,z,1,0.870991819584,1,212
5,001,2,recog,82,INTEREST,HF,lure,-,-,-,conservative,no,m,1,2.61207617752,3,215
5,001,2,recog,83,MINISTER,HF,lure,-,-,-,conservative,no,m,1,0.894209259407,3,218
5,001,2,recog,84,COUNCIL,HF,lure,-,-,-,liberal,no,m,1,0.76507203415,1,219
5,001,2,recog,85,LANGUAGE,HF,target,right,yellow,imageability,conservative,no,z,1,1.65910165727,1,220
5,001,2,recog,86,WAYSIDE,LF,target,left,aqua,pleasantness,liberal,no,z,1,0.659124020157,3,223
5,001,2,recog,87,CHIEF,HF,target,right,yellow,imageability,liberal,no,m,0,1.0120642262,-3,220
5,001,2,recog,88,LEARN,HF,target,left,aqua,pleasantness,liberal,no,z,1,0.894446819228,3,223
5,001,2,recog,89,ADMIRALS,LF,lure,-,-,-,liberal,yes,z,0,0.83554371504,-1,222
5,001,2,recog,90,OPTIC,LF,target,right,yellow,imageability,conservative,no,z,1,0.870925097535,1,223
5,001,2,recog,91,HIMSELF,HF,lure,-,-,-,conservative,no,m,1,3.65904776639,3,226
5,001,2,recog,92,SPOKE,HF,lure,-,-,-,conservative,yes,m,1,2.07103478565,3,229
5,001,2,recog,93,TOPICAL,LF,target,left,aqua,pleasantness,liberal,no,m,0,1.11792902094,-3,226
5,001,2,recog,94,GROUND,HF,target,right,yellow,imageability,conservative,no,m,0,2.36510341551,-1,225
5,001,2,recog,95,GESTURING,LF,target,right,yellow,imageability,conservative,no,z,1,0.647068225861,1,226
5,001,3,source,0,COPIOUSLY,LF,target,right,yellow,imageability,conservative,no,7,1,1.55325555938,-,-
5,001,3,source,1,OUSTED,LF,target,left,aqua,pleasantness,conservative,no,7,0,1.67093052328,-,-
5,001,3,source,2,INEDIBLE,LF,target,left,aqua,pleasantness,conservative,yes,8,0,2.36477897038,-,-
5,001,3,source,3,VOICE,HF,target,left,aqua,pleasantness,conservative,no,3,1,4.20039453994,-,-
5,001,3,source,4,SAYING,HF,target,right,yellow,imageability,conservative,no,2,0,1.0588800081,-,-
5,001,3,source,5,PHRASED,LF,target,right,yellow,imageability,liberal,no,7,1,1.74143409878,-,-
5,001,3,source,6,EITHER,HF,target,left,aqua,pleasantness,liberal,no,3,1,2.84743563705,-,-
5,001,3,source,7,NUMBER,HF,target,right,yellow,imageability,conservative,no,2,0,0.847214941046,-,-
5,001,3,source,8,THEORY,HF,target,left,aqua,pleasantness,conservative,no,3,1,3.31792249538,-,-
5,001,3,source,9,GUARDSMEN,LF,target,right,yellow,imageability,conservative,no,3,0,1.49412626011,-,-
5,001,3,source,10,UGLIEST,LF,target,right,yellow,imageability,conservative,no,8,1,1.56494768185,-,-
5,001,3,source,11,ESCALATED,LF,target,left,aqua,pleasantness,liberal,no,7,0,1.56501843655,-,-
5,001,3,source,12,AVAILABLE,HF,target,right,yellow,imageability,liberal,no,7,1,1.92972481921,-,-
5,001,3,source,13,AROUND,HF,target,right,yellow,imageability,liberal,no,8,1,1.67085830217,-,-
5,001,3,source,14,SAWDUST,LF,target,left,aqua,pleasantness,liberal,no,3,1,1.83561190351,-,-
5,001,3,source,15,DELEGATED,LF,target,left,aqua,pleasantness,conservative,no,3,1,1.62388854632,-,-
5,001,3,source,16,SUCCESS,HF,target,right,yellow,imageability,conservative,no,3,0,1.78867184264,-,-
5,001,3,source,17,ERUDITE,LF,target,left,aqua,pleasantness,conservative,yes,3,1,2.07072683773,-,-
5,001,3,source,18,FIELD,HF,target,right,yellow,imageability,conservative,no,2,0,1.88261172094,-,-
5,001,3,source,19,FIGURE,HF,target,left,aqua,pleasantness,liberal,no,3,1,1.81202749242,-,-
5,001,3,source,20,FICKLE,LF,target,right,yellow,imageability,liberal,no,3,0,1.31796025566,-,-
5,001,3,source,21,MADDENED,LF,target,left,aqua,pleasantness,liberal,no,3,1,1.64736884168,-,-
5,001,3,source,22,LIARS,LF,target,right,yellow,imageability,conservative,no,3,0,1.32980525227,-,-
5,001,3,source,23,OATHS,LF,target,right,yellow,imageability,conservative,no,7,1,1.01201840062,-,-
5,001,3,source,24,FLOOR,HF,target,right,yellow,imageability,liberal,no,2,0,0.870891369906,-,-
5,001,3,source,25,PRIVATE,HF,target,right,yellow,imageability,conservative,no,8,1,1.21211782381,-,-
5,001,3,source,26,BELIEVE,HF,target,left,aqua,pleasantness,conservative,no,7,0,1.72969505091,-,-
5,001,3,source,27,TEACUP,LF,target,left,aqua,pleasantness,liberal,no,7,0,2.57682383986,-,-
5,001,3,source,28,CUSTODIAN,LF,target,right,yellow,imageability,conservative,no,3,0,1.32973889683,-,-
5,001,3,source,29,UNION,HF,target,left,aqua,pleasantness,liberal,no,2,1,1.75330439112,-,-
5,001,3,source,30,QUOTAS,LF,target,right,yellow,imageability,liberal,no,3,0,1.52973347108,-,-
5,001,3,source,31,TEMERITY,LF,target,left,aqua,pleasantness,liberal,no,7,0,1.18858180453,-,-
5,001,3,source,32,BUILDING,HF,target,left,aqua,pleasantness,liberal,no,2,1,1.57670689297,-,-
5,001,3,source,33,OPENED,HF,target,left,aqua,pleasantness,liberal,no,7,0,0.694363893253,-,-
5,001,3,source,34,IMPORTANT,HF,target,right,yellow,imageability,liberal,no,3,0,1.1885007849,-,-
5,001,3,source,35,LAVISHED,LF,target,right,yellow,imageability,liberal,no,3,0,1.04731803028,-,-
5,001,3,source,36,MIDDLE,HF,target,right,yellow,imageability,liberal,no,3,0,0.694223117063,-,-
5,001,3,source,37,WEDGES,LF,target,right,yellow,imageability,liberal,no,2,0,2.42381295244,-,-
5,001,3,source,38,TASSELS,LF,target,left,aqua,pleasantness,liberal,yes,3,1,2.14128980318,-,-
5,001,3,source,39,PASSED,HF,target,left,aqua,pleasantness,conservative,no,7,0,3.69434959567,-,-
5,001,3,source,40,JELLIES,LF,target,left,aqua,pleasantness,conservative,no,7,0,1.23565677592,-,-
5,001,3,source,41,SIMILAR,HF,target,right,yellow,imageability,conservative,no,7,1,2.09447072185,-,-
5,001,3,source,42,ASKED,HF,target,left,aqua,pleasantness,liberal,no,3,1,1.60033566323,-,-
5,001,3,source,43,RUMBLED,LF,target,left,aqua,pleasantness,conservative,no,3,1,1.24727374443,-,-
5,001,3,source,44,ECONOMIC,HF,target,left,aqua,pleasantness,conservative,no,3,1,1.14121391602,-,-
5,001,3,source,45,DURING,HF,target,right,yellow,imageability,liberal,no,3,0,1.29422846949,-,-
5,001,3,source,46,OBTAINS,LF,target,right,yellow,imageability,liberal,yes,3,0,0.870848843766,-,-
5,001,3,source,47,OFTEN,HF,target,left,aqua,pleasantness,conservative,no,2,1,0.835605304623,-,-
5,001,3,recog,0,SEPULCHRE,LF,lure,-,-,-,liberal,no,m,1,0.976721703802,1,227
5,001,3,recog,1,WAXEN,LF,lure,-,-,-,liberal,no,m,1,0.682579753011,1,228
5,001,3,recog,2,TWENTY,HF,lure,-,-,-,conservative,no,m,1,1.94150932606,3,231
5,001,3,recog,3,EASILY,HF,lure,-,-,-,liberal,no,m,1,2.68271429692,1,232
5,001,3,recog,4,DESERTER,LF,lure,-,-,-,conservative,no,m,1,0.918084754599,3,235
5,001,3,recog,5,CAPITAL,HF,lure,-,-,-,conservative,no,m,1,0.882670377684,3,238
5,001,3,recog,6,SIMILAR,HF,target,right,yellow,imageability,conservative,no,m,0,1.80017663013,-1,237
5,001,3,recog,7,WITHIN,HF,lure,-,-,-,conservative,yes,z,0,1.87064354515,-3,234
5,001,3,recog,8,AGNOSTIC,LF,lure,-,-,-,conservative,no,m,1,0.953166254481,3,237
5,001,3,recog,9,MATERIAL,HF,lure,-,-,-,liberal,no,m,1,1.32975722706,1,238
5,001,3,recog,10,CEMENTED,LF,lure,-,-,-,conservative,no,m,1,0.894416024436,3,241
5,001,3,recog,11,TURNED,HF,lure,-,-,-,liberal,no,m,1,0.788648013333,1,242
5,001,3,recog,12,QUICKLY,HF,lure,-,-,-,liberal,no,z,0,1.97662895282,-1,241
5,001,3,recog,13,FIELD,HF,target,right,yellow,imageability,conservative,yes,m,0,1.31790709798,-1,240
5,001,3,recog,14,UGLIEST,LF,target,right,yellow,imageability,conservative,no,m,0,2.97673416836,-1,239
5,001,3,recog,15,NUCLEAR,HF,lure,-,-,-,liberal,no,m,1,0.776788719135,1,240
5,001,3,recog,16,INVOLVED,HF,lure,-,-,-,liberal,no,z,0,0.82383216252,-1,239
5,001,3,recog,17,FICKLE,LF,target,right,yellow,imageability,liberal,no,z,1,0.670854636119,3,242
5,001,3,recog,18,CUSTODIAN,LF,target,right,yellow,imageability,conservative,no,z,1,0.894340137271,1,243
5,001,3,recog,19,ERUDITE,LF,target,left,aqua,pleasantness,conservative,no,z,1,0.776459141544,1,244
5,001,3,recog,20,OCTAGONAL,LF,lure,-,-,-,liberal,no,m,1,1.02392645324,1,245
5,001,3,recog,21,RUMBLED,LF,target,left,aqua,pleasantness,conservative,no,z,1,0.882643248938,1,246
5,001,3,recog,22,WEDGES,LF,target,right,yellow,imageability,liberal,no,z,1,0.741534181852,3,249
5,001,3,recog,23,IMPORTANT,HF,target,right,yellow,imageability,liberal,no,z,1,1.0474617393,3,252
5,001,3,recog,24,COPIOUSLY,LF,target,right,yellow,imageability,conservative,no,z,1,0.694440880232,1,253
5,001,3,recog,25,BEAUTIFUL,HF,lure,-,-,-,conservative,no,z,0,1.42392073421,-3,250
5,001,3,recog,26,HOSPITAL,HF,lure,-,-,-,liberal,no,m,1,0.788496239003,1,251
5,001,3,recog,27,DURING,HF,target,right,yellow,imageability,liberal,no,z,1,0.812104479396,3,254
5,001,3,recog,28,ENCLOSE,LF,lure,-,-,-,conservative,no,m,1,1.40038141549,3,257
5,001,3,recog,29,NEWMARKET,LF,lure,-,-,-,conservative,no,m,1,0.988503277812,3,260
5,001,3,recog,30,ASKED,HF,target,left,aqua,pleasantness,liberal,no,m,0,1.48274831783,-3,257
5,001,3,recog,31,PRIVATE,HF,target,right,yellow,imageability,conservative,no,z,1,0.988645520421,1,258
5,001,3,recog,32,BUMBLING,LF,lure,-,-,-,conservative,no,m,1,3.23575429276,3,261
5,001,3,recog,33,NOTHING,HF,lure,-,-,-,conservative,no,m,1,1.5061182652,3,264
5,001,3,recog,34,SUDDENLY,HF,lure,-,-,-,liberal,no,m,1,1.70614106801,1,265
5,001,3,recog,35,AROUND,HF,target,right,yellow,imageability,liberal,no,m,0,1.65883770192,-3,262
5,001,3,recog,36,AVAILABLE,HF,target,right,yellow,imageability,liberal,no,m,0,0.964950394723,-3,259
5,001,3,recog,37,QUOTAS,LF,target,right,yellow,imageability,liberal,no,z,1,0.729863689055,3,262
5,001,3,recog,38,WRANGLING,LF,lure,-,-,-,liberal,no,m,1,1.95332866035,1,263
5,001,3,recog,39,OATHS,LF,target,right,yellow,imageability,conservative,no,z,1,1.02378751007,1,264
5,001,3,recog,40,COMES,HF,lure,-,-,-,conservative,no,m,1,0.717932173739,3,267
5,001,3,recog,41,DRINK,HF,lure,-,-,-,liberal,no,m,1,2.20017494374,1,268
5,001,3,recog,42,SUCCESS,HF,target,right,yellow,imageability,conservative,no,m,0,3.6238793812,-1,267
5,001,3,recog,43,SAYING,HF,target,right,yellow,imageability,conservative,no,z,1,1.12987703346,1,268
5,001,3,recog,44,GOVERNS,LF,lure,-,-,-,conservative,yes,m,1,1.78862528384,3,271
5,001,3,recog,45,OBTAINS,LF,target,right,yellow,imageability,liberal,no,z,1,0.882433551072,3,274
5,001,3,recog,46,PHRASED,LF,target,right,yellow,imageability,liberal,no,z,1,1.18848282127,3,277
5,001,3,recog,47,STUDENT,HF,lure,-,-,-,liberal,no,z,0,2.04743204433,-1,276
5,001,3,recog,48,LIARS,LF,target,right,yellow,imageability,conservative,no,z,1,0.494435674446,1,277
5,001,3,recog,49,DELEGATED,LF,target,left,aqua,pleasantness,conservative,no,m,0,0.753185611207,-1,276
5,001,3,recog,50,INACTION,LF,lure,-,-,-,liberal,no,m,1,0.870964324234,1,277
5,001,3,recog,51,TEMERITY,LF,target,left,aqua,pleasantness,liberal,no,z,1,0.906271652588,3,280
5,001,3,recog,52,NOXIOUS,LF,lure,-,-,-,conservative,no,m,1,0.882716569871,3,283
5,001,3,recog,53,BELIEVE,HF,target,left,aqua,pleasantness,conservative,no,z,1,0.753362314654,1,284
5,001,3,recog,54,MADDENED,LF,target,left,aqua,pleasantness,liberal,no,z,1,1.08274780459,3,287
5,001,3,recog,55,MUSIC,HF,lure,-,-,-,conservative,no,m,1,0.800249217849,3,290
5,001,3,recog,56,WIRING,LF,lure,-,-,-,conservative,no,m,1,1.52976096643,3,293
5,001,3,recog,57,OPENED,HF,target,left,aqua,pleasantness,liberal,no,z,1,0.71788121569,3,296
5,001,3,recog,58,DULLED,LF,lure,-,-,-,conservative,no,m,1,2.62364585403,3,299
5,001,3,recog,59,UNDER,HF,lure,-,-,-,liberal,no,z,0,3.02386229742,-1,298
5,001,3,recog,60,BUILDING,HF,target,left,aqua,pleasantness,liberal,no,m,0,0.870865340975,-3,295
5,001,3,recog,61,EITHER,HF,target,left,aqua,pleasantness,liberal,no,z,1,0.412036510892,3,298
5,001,3,recog,62,GUARDSMEN,LF,target,right,yellow,imageability,conservative,no,m,0,1.08259273082,-1,297
5,001,3,recog,63,BOUGH,LF,lure,-,-,-,liberal,no,m,1,0.706026687353,1,298
5,001,3,recog,64,SYSTEM,HF,lure,-,-,-,conservative,no,m,1,2.94159437834,3,301
5,001,3,recog,65,BYPASS,LF,lure,-,-,-,liberal,no,m,1,1.03555588631,1,302
5,001,3,recog,66,MOODILY,LF,lure,-,-,-,conservative,no,m,1,0.812080650092,3,305
5,001,3,recog,67,ADULATION,LF,lure,-,-,-,liberal,no,m,1,2.48259104443,1,306
5,001,3,recog,68,JELLIES,LF,target,left,aqua,pleasantness,conservative,no,z,1,1.21207603087,1,307
5,001,3,recog,69,TOLERABLY,LF,lure,-,-,-,liberal,no,m,1,0.80023675329,1,308
5,001,3,recog,70,CHOICE,HF,lure,-,-,-,conservative,no,m,1,0.894512074858,3,311
5,001,3,recog,71,OUSTED,LF,target,left,aqua,pleasantness,conservative,no,z,1,0.918011067062,1,312
5,001,3,recog,72,INEDIBLE,LF,target,left,aqua,pleasantness,conservative,no,z,1,1.62380752669,1,313
5,001,3,recog,73,VOICE,HF,target,left,aqua,pleasantness,conservative,no,z,1,0.823762507634,1,314
5,001,3,recog,74,LAVISHED,LF,target,right,yellow,imageability,liberal,no,m,0,0.859153788456,-3,311
5,001,3,recog,75,ACIDITY,LF,lure,-,-,-,conservative,no,m,1,1.40009619706,3,314
5,001,3,recog,76,JINGLE,LF,lure,-,-,-,liberal,no,z,0,0.753315755862,-1,313
5,001,3,recog,77,NUMBER,HF,target,right,yellow,imageability,conservative,no,z,1,0.835695122765,1,314
5,001,3,recog,78,TASSELS,LF,target,left,aqua,pleasantness,liberal,no,z,1,1.16498126284,3,317
5,001,3,recog,79,FIGURE,HF,target,left,aqua,pleasantness,liberal,no,z,1,0.906216295284,3,320
5,001,3,recog,80,OFTEN,HF,target,left,aqua,pleasantness,conservative,no,z,1,0.788333099928,1,321
5,001,3,recog,81,DOUBT,HF,lure,-,-,-,conservative,no,m,1,0.800342335433,3,324
5,001,3,recog,82,ECONOMIC,HF,target,left,aqua,pleasantness,conservative,no,z,1,0.635699815304,1,325
5,001,3,recog,83,SAWDUST,LF,target,left,aqua,pleasantness,liberal,no,z,1,1.96513039761,3,328
5,001,3,recog,84,STOOD,HF,lure,-,-,-,liberal,no,m,1,0.964921432955,1,329
5,001,3,recog,85,BLACK,HF,lure,-,-,-,conservative,no,z,0,0.647254094424,-3,326
5,001,3,recog,86,DAUGHTER,HF,lure,-,-,-,conservative,no,m,1,0.482704325275,3,329
5,001,3,recog,87,MIDDLE,HF,target,right,yellow,imageability,liberal,no,m,0,1.07086211485,-3,326
5,001,3,recog,88,UNION,HF,target,left,aqua,pleasantness,liberal,no,z,1,0.235326098513,3,329
5,001,3,recog,89,FUDGE,LF,lure,-,-,-,liberal,no,z,0,1.3179400924,-1,328
5,001,3,recog,90,PASSED,HF,target,left,aqua,pleasantness,conservative,no,z,1,0.541479851041,1,329
5,001,3,recog,91,SABLE,LF,lure,-,-,-,liberal,yes,m,1,1.09443186176,1,330
5,001,3,recog,92,THEORY,HF,target,left,aqua,pleasantness,conservative,no,z,1,1.02352172169,1,331
5,001,3,recog,93,FLOOR,HF,target,right,yellow,imageability,liberal,no,z,1,1.51780708823,3,334
5,001,3,recog,94,TEACUP,LF,target,left,aqua,pleasantness,liberal,no,m,0,0.882602189216,-3,331
5,001,3,recog,95,ESCALATED,LF,target,left,aqua,pleasantness,liberal,no,z,1,0.635419362739,3,334
5,001,4,source,0,CLUBBED,LF,target,right,yellow,imageability,conservative,no,3,0,2.28278857103,-,-
5,001,4,source,1,MANDARIN,LF,target,left,aqua,pleasantness,liberal,yes,2,1,1.28264119595,-,-
5,001,4,source,2,YACHTING,LF,target,right,yellow,imageability,liberal,no,7,1,1.47090515424,-,-
5,001,4,source,3,SUPPORT,HF,target,right,yellow,imageability,conservative,no,8,1,2.52972137313,-,-
5,001,4,source,4,PISTONS,LF,target,left,aqua,pleasantness,conservative,no,7,0,1.68264317562,-,-
5,001,4,source,5,DIZZINESS,LF,target,right,yellow,imageability,conservative,yes,7,1,1.42387967448,-,-
5,001,4,source,6,BIGNESS,LF,target,right,yellow,imageability,liberal,no,3,0,1.31793422672,-,-
5,001,4,source,7,ANIMAL,HF,target,left,aqua,pleasantness,conservative,no,7,0,2.21215008502,-,-
5,001,4,source,8,VIGILANT,LF,target,left,aqua,pleasantness,liberal,no,2,1,3.72985452394,-,-
5,001,4,source,9,FALCON,LF,target,right,yellow,imageability,liberal,no,3,0,1.63531158097,-,-
5,001,4,source,10,AEONS,LF,target,left,aqua,pleasantness,conservative,no,8,0,1.9414887962,-,-
5,001,4,source,11,CHAIR,HF,target,right,yellow,imageability,liberal,no,8,1,1.76482310958,-,-
5,001,4,source,12,WHATEVER,HF,target,right,yellow,imageability,conservative,no,7,1,1.31796868756,-,-
5,001,4,source,13,BUDDIES,LF,target,left,aqua,pleasantness,conservative,no,3,1,2.24716522945,-,-
5,001,4,source,14,LIVED,HF,target,left,aqua,pleasantness,conservative,yes,3,1,6.88283901583,-,-
5,001,4,source,15,ORPHANAGE,LF,target,right,yellow,imageability,liberal,no,7,1,1.34151680479,-,-
5,001,4,source,16,PAPER,HF,target,left,aqua,pleasantness,conservative,no,3,1,1.4003667513,-,-
5,001,4,source,17,SLYLY,LF,target,right,yellow,imageability,liberal,no,3,0,1.03573332297,-,-
5,001,4,source,18,GARDEN,HF,target,left,aqua,pleasantness,conservative,no,3,1,0.976737467803,-,-
5,001,4,source,19,REQUIRED,HF,target,right,yellow,imageability,liberal,no,3,0,1.02379227593,-,-
5,001,4,source,20,MOTHER,HF,target,left,aqua,pleasantness,conservative,no,3,1,0.835621068623,-,-
5,001,4,source,21,WILDFOWL,LF,target,left,aqua,pleasantness,conservative,no,7,0,1.31802844412,-,-
5,001,4,source,22,HEALTH,HF,target,right,yellow,imageability,conservative,no,7,1,1.41192909573,-,-
5,001,4,source,23,AEROSOL,LF,target,right,yellow,imageability,conservative,no,3,0,1.21209692734,-,-
5,001,4,source,24,WOMAN,HF,target,left,aqua,pleasantness,liberal,no,8,0,1.62361359282,-,-
5,001,4,source,25,HAUNCHES,LF,target,right,yellow,imageability,conservative,no,2,0,0.941214209303,-,-
5,001,4,source,26,WHOLE,HF,target,right,yellow,imageability,liberal,no,7,1,0.98857623214,-,-
5,001,4,source,27,LOOKED,HF,target,right,yellow,imageability,conservative,no,3,0,1.0943805371,-,-
5,001,4,source,28,CITES,LF,target,right,yellow,imageability,liberal,no,3,0,0.753245734371,-,-
5,001,4,source,29,CARRIED,HF,target,right,yellow,imageability,liberal,no,7,1,1.11798217861,-,-
5,001,4,source,30,WALKED,HF,target,left,aqua,pleasantness,liberal,no,3,1,0.776755724715,-,-
5,001,4,source,31,ANVIL,LF,target,right,yellow,imageability,conservative,no,3,0,1.16490134302,-,-
5,001,4,source,32,PHYSICAL,HF,target,left,aqua,pleasantness,liberal,no,3,1,1.16496659865,-,-
5,001,4,source,33,RADIAL,LF,target,left,aqua,pleasantness,liberal,no,3,1,0.988595295582,-,-
5,001,4,source,34,INFECT,LF,target,left,aqua,pleasantness,liberal,no,3,1,1.77678945234,-,-
5,001,4,source,35,MAYBE,HF,target,left,aqua,pleasantness,liberal,no,7,0,0.576838504047,-,-
5,001,4,source,36,MOUTH,HF,target,right,yellow,imageability,conservative,no,7,1,1.3414779447,-,-
5,001,4,source,37,BEYOND,HF,target,left,aqua,pleasantness,liberal,no,3,1,0.976852581667,-,-
5,001,4,source,38,DWELT,LF,target,right,yellow,imageability,conservative,no,3,0,0.894415291227,-,-
5,001,4,source,39,AREAS,HF,target,right,yellow,imageability,conservative,no,7,1,0.72946775602,-,-
5,001,4,source,40,SITTING,HF,target,right,yellow,imageability,liberal,no,3,0,0.682705131806,-,-
5,001,4,source,41,BESOTTED,LF,target,left,aqua,pleasantness,liberal,no,7,0,1.04731509744,-,-
5,001,4,source,42,LARGE,HF,target,left,aqua,pleasantness,conservative,no,3,1,0.694366092882,-,-
5,001,4,source,43,INLAID,LF,target,left,aqua,pleasantness,conservative,no,3,1,0.92953931725,-,-
5,001,4,source,44,NORTH,HF,target,left,aqua,pleasantness,liberal,no,7,0,1.24732653551,-,-
5,001,4,source,45,PINAFORE,LF,target,left,aqua,pleasantness,liberal,no,3,1,1.12978501569,-,-
5,001,4,source,46,CEASELESS,LF,target,left,aqua,pleasantness,conservative,no,7,0,0.87106550712,-,-
5,001,4,source,47,USUAL,HF,target,right,yellow,imageability,liberal,yes,7,1,1.89443765411,-,-
5,001,4,recog,0,AEROSOL,LF,target,right,yellow,imageability,conservative,no,z,1,0.600283238762,1,335
5,001,4,recog,1,CLUBBED,LF,target,right,yellow,imageability,conservative,no,z,1,0.647356743729,1,336
5,001,4,recog,2,ANIMAL,HF,target,left,aqua,pleasantness,conservative,no,z,1,0.564909921569,1,337
5,001,4,recog,3,BESOTTED,LF,target,left,aqua,pleasantness,liberal,no,m,0,1.25929984375,-3,334
5,001,4,recog,4,HEEDED,LF,lure,-,-,-,conservative,no,m,1,0.847329688305,3,337
5,001,4,recog,5,BEYOND,HF,target,left,aqua,pleasantness,liberal,no,z,1,0.788547197051,3,340
5,001,4,recog,6,GEARING,LF,lure,-,-,-,conservative,no,m,1,0.929946615029,3,343
5,001,4,recog,7,VIGILANT,LF,target,left,aqua,pleasantness,liberal,no,z,1,0.718014659788,3,346
5,001,4,recog,8,EPIDEMICS,LF,lure,-,-,-,liberal,no,m,1,0.753150783764,1,347
5,001,4,recog,9,ALLOWED,HF,lure,-,-,-,liberal,no,m,1,2.07102782016,1,348
5,001,4,recog,10,SYMBOLIZE,LF,lure,-,-,-,conservative,no,m,1,1.82392601331,3,351
5,001,4,recog,11,LIVED,HF,target,left,aqua,pleasantness,conservative,no,m,0,0.882666345032,-1,350
5,001,4,recog,12,QUALITY,HF,lure,-,-,-,conservative,yes,z,0,2.00016827154,-3,347
5,001,4,recog,13,RASCAL,LF,lure,-,-,-,liberal,no,m,1,0.90621996133,1,348
5,001,4,recog,14,DWELT,LF,target,right,yellow,imageability,conservative,no,z,1,0.859196314596,1,349
5,001,4,recog,15,TEXTURES,LF,lure,-,-,-,conservative,no,m,1,0.788487807095,3,352
5,001,4,recog,16,LARGE,HF,target,left,aqua,pleasantness,conservative,no,z,1,0.694401286929,1,353
5,001,4,recog,17,CHURCH,HF,lure,-,-,-,conservative,no,z,0,0.670883231283,-3,350
5,001,4,recog,18,WAITING,HF,lure,-,-,-,conservative,no,z,0,0.788466177421,-3,347
5,001,4,recog,19,BIGNESS,LF,target,right,yellow,imageability,liberal,no,m,0,0.411988852286,-3,344
5,001,4,recog,20,MAPPED,LF,lure,-,-,-,conservative,no,m,1,0.741491655711,3,347
5,001,4,recog,21,MAUSOLEUM,LF,lure,-,-,-,liberal,no,m,1,0.658976278479,1,348
5,001,4,recog,22,HUMAN,HF,lure,-,-,-,liberal,no,z,0,0.741508519526,-1,347
5,001,4,recog,23,USUAL,HF,target,right,yellow,imageability,liberal,no,z,1,2.24735403085,3,350
5,001,4,recog,24,WILDFOWL,LF,target,left,aqua,pleasantness,conservative,no,z,1,0.647270591634,1,351
5,001,4,recog,25,PICTURE,HF,lure,-,-,-,liberal,no,z,0,0.670840338537,-1,350
5,001,4,recog,26,GENERAL,HF,lure,-,-,-,liberal,no,m,1,0.659180110671,1,351
5,001,4,recog,27,COLDEST,LF,lure,-,-,-,liberal,no,m,1,0.741455728455,1,352
5,001,4,recog,28,GARDEN,HF,target,left,aqua,pleasantness,conservative,no,m,0,0.682354291144,-1,351
5,001,4,recog,29,STAFF,HF,lure,-,-,-,liberal,no,z,0,0.41207573759,-1,350
5,001,4,recog,30,JUBILANT,LF,lure,-,-,-,conservative,no,m,1,0.541405430295,3,353
5,001,4,recog,31,UPKEEP,LF,lure,-,-,-,liberal,no,m,1,0.882767894523,1,354
5,001,4,recog,32,BAPTIZED,LF,lure,-,-,-,liberal,no,z,0,1.75311339009,-1,353
5,001,4,recog,33,HEALTH,HF,target,right,yellow,imageability,conservative,no,m,0,0.447415693759,-1,352
5,001,4,recog,34,HAPPEN,HF,lure,-,-,-,liberal,no,m,1,0.717857019783,1,353
5,001,4,recog,35,SOVIET,HF,lure,-,-,-,conservative,no,m,1,0.72986332245,3,356
5,001,4,recog,36,SITTING,HF,target,right,yellow,imageability,liberal,no,z,1,1.84737331426,3,359
5,001,4,recog,37,DIZZINESS,LF,target,right,yellow,imageability,conservative,no,m,0,1.41221468076,-1,358
5,001,4,recog,38,WALKED,HF,target,left,aqua,pleasantness,liberal,no,m,0,0.694333831671,-3,355
5,001,4,recog,39,SUPPORT,HF,target,right,yellow,imageability,conservative,yes,m,0,0.56511925283,-1,354
5,001,4,recog,40,SLEEP,HF,lure,-,-,-,conservative,no,z,0,0.353041022328,-3,351
5,001,4,recog,41,TRADE,HF,lure,-,-,-,conservative,no,m,1,0.294218571166,3,354
5,001,4,recog,42,PLODDED,LF,lure,-,-,-,conservative,no,m,1,1.65907342871,3,357
5,001,4,recog,43,TREES,HF,lure,-,-,-,liberal,no,z,0,1.7062191548,-1,356
5,001,4,recog,44,SLYLY,LF,target,right,yellow,imageability,liberal,no,z,1,0.847609407662,3,359
5,001,4,recog,45,VAGABOND,LF,lure,-,-,-,liberal,no,m,1,1.14143387882,1,360
5,001,4,recog,46,ORPHANAGE,LF,target,right,yellow,imageability,liberal,no,z,1,0.635708247212,3,363
5,001,4,recog,47,UPROOTED,LF,lure,-,-,-,conservative,no,m,1,0.906175968771,3,366
5,001,4,recog,48,OBESE,LF,lure,-,-,-,liberal,no,m,1,0.729774604122,1,367
5,001,4,recog,49,RADIAL,LF,target,left,aqua,pleasantness,liberal,no,m,0,1.21230552539,-3,364
5,001,4,recog,50,WOMAN,HF,target,left,aqua,pleasantness,liberal,no,z,1,0.68259771664,3,367
5,001,4,recog,51,LOOKED,HF,target,right,yellow,imageability,conservative,yes,m,0,1.1414639404,-1,366
5,001,4,recog,52,CEASELESS,LF,target,left,aqua,pleasantness,conservative,no,m,0,0.58847636903,-1,365
5,001,4,recog,53,PAPER,HF,target,left,aqua,pleasantness,conservative,no,z,1,0.529446786234,1,366
5,001,4,recog,54,WHITE,HF,lure,-,-,-,liberal,no,z,0,0.70613813517,-1,365
5,001,4,recog,55,DOING,HF,lure,-,-,-,liberal,no,m,1,0.529661249961,1,366
5,001,4,recog,56,MOTHER,HF,target,left,aqua,pleasantness,conservative,no,m,0,0.859177984364,-1,365
5,001,4,recog,57,PINAFORE,LF,target,left,aqua,pleasantness,liberal,no,m,0,0.588577185312,-3,362
5,001,4,recog,58,PISTONS,LF,target,left,aqua,pleasantness,conservative,no,m,0,0.306303327231,-1,361
5,001,4,recog,59,AEONS,LF,target,left,aqua,pleasantness,conservative,no,z,1,0.800144002311,1,362
5,001,4,recog,60,SEEMED,HF,lure,-,-,-,conservative,no,z,0,0.435578762445,-3,359
5,001,4,recog,61,INFECT,LF,target,left,aqua,pleasantness,liberal,no,z,1,0.353104811539,3,362
5,001,4,recog,62,GETTING,HF,lure,-,-,-,conservative,no,m,1,0.588642074337,3,365
5,001,4,recog,63,BUDDIES,LF,target,left,aqua,pleasantness,conservative,no,m,0,0.753277628977,-1,364
5,001,4,recog,64,REQUIRED,HF,target,right,yellow,imageability,liberal,no,z,1,0.812147738746,3,367
5,001,4,recog,65,MIMICKED,LF,lure,-,-,-,liberal,no,m,1,1.63566462126,1,368
5,001,4,recog,66,VETOED,LF,lure,-,-,-,conservative,no,m,1,0.812146272327,3,371
5,001,4,recog,67,MOUTH,HF,target,right,yellow,imageability,conservative,no,m,0,0.459150342372,-1,370
5,001,4,recog,68,MYTHIC,LF,lure,-,-,-,conservative,no,m,1,0.365006998483,3,373
5,001,4,recog,69,HEMMED,LF,lure,-,-,-,liberal,no,z,0,0.776562524058,-1,372
5,001,4,recog,70,CARRIED,HF,target,right,yellow,imageability,liberal,no,z,1,0.435692409891,3,375
5,001,4,recog,71,WHOLE,HF,target,right,yellow,imageability,liberal,no,z,1,0.470893789497,3,378
5,001,4,recog,72,MAYBE,HF,target,left,aqua,pleasantness,liberal,no,z,1,0.447296547244,3,381
5,001,4,recog,73,ANVIL,LF,target,right,yellow,imageability,conservative,no,z,1,0.647197637306,1,382
5,001,4,recog,74,AREAS,HF,target,right,yellow,imageability,conservative,no,m,0,0.847048869135,-1,381
5,001,4,recog,75,CERTAIN,HF,lure,-,-,-,liberal,no,z,0,0.600287638017,-1,380
5,001,4,recog,76,PHYSICAL,HF,target,left,aqua,pleasantness,liberal,no,z,1,0.388470796639,3,383
5,001,4,recog,77,HERSELF,HF,lure,-,-,-,conservative,no,m,1,0.929818670003,3,386
5,001,4,recog,78,CHAIR,HF,target,right,yellow,imageability,liberal,no,z,1,0.506117531988,3,389
5,001,4,recog,79,WHATEVER,HF,target,right,yellow,imageability,conservative,no,m,0,0.600262342296,-1,388
5,001,4,recog,80,FALCON,LF,target,right,yellow,imageability,liberal,no,m,0,1.11795138382,-3,385
5,001,4,recog,81,RAFTERS,LF,lure,-,-,-,conservative,no,m,1,0.459186269629,3,388
5,001,4,recog,82,YACHTING,LF,target,right,yellow,imageability,liberal,no,z,1,0.717921175599,3,391
5,001,4,recog,83,TAKEN,HF,lure,-,-,-,liberal,no,m,1,0.835686324253,1,392
5,001,4,recog,84,VELVETY,LF,lure,-,-,-,liberal,no,m,1,0.65885603215,1,393
5,001,4,recog,85,INLAID,LF,target,left,aqua,pleasantness,conservative,no,m,0,0.717969934018,-1,392
5,001,4,recog,86,NORTH,HF,target,left,aqua,pleasantness,liberal,yes,z,1,0.659048866202,3,395
5,001,4,recog,87,FOLLOWED,HF,lure,-,-,-,conservative,no,m,1,0.423925133462,3,398
5,001,4,recog,88,MANDARIN,LF,target,left,aqua,pleasantness,liberal,no,m,0,0.882737466336,-3,395
5,001,4,recog,89,SERIOUS,HF,lure,-,-,-,conservative,no,z,0,0.765014110613,-3,392
5,001,4,recog,90,LAGER,LF,lure,-,-,-,conservative,no,m,1,0.188537078762,3,395
5,001,4,recog,91,HAUNCHES,LF,target,right,yellow,imageability,conservative,no,m,0,0.812112544698,-1,394
5,001,4,recog,92,CACOPHONY,LF,lure,-,-,-,liberal,no,m,1,0.917895586593,1,395
5,001,4,recog,93,YOUNG,HF,lure,-,-,-,conservative,no,z,0,1.15318722427,-3,392
5,001,4,recog,94,SINCE,HF,lure,-,-,-,liberal,no,z,0,0.517749897901,-1,391
5,001,4,recog,95,CITES,LF,target,right,yellow,imageability,liberal,no,z,1,0.482548518294,3,394
