subj,session,cycle,task,trial,item,wf,type,source,colour,encoding,bias,null,response,corr,rt,points,total
6,001,0,source,0,EVENING,HF,target,left,yellow,pleasantness,conservative,no,3,1,2.94156944922,-,-
6,001,0,source,1,BRUISING,LF,target,left,yellow,pleasantness,conservative,no,3,1,2.98838816395,-,-
6,001,0,source,2,MEANS,HF,target,left,yellow,pleasantness,liberal,no,2,1,2.18865549207,-,-
6,001,0,source,3,VERBALLY,LF,target,right,aqua,imageability,conservative,no,8,1,2.96502921473,-,-
6,001,0,source,4,ARGUABLE,LF,target,left,yellow,pleasantness,conservative,no,8,0,1.74147809134,-,-
6,001,0,source,5,TOWARDS,HF,target,left,yellow,pleasantness,conservative,yes,7,0,1.69453729726,-,-
6,001,0,source,6,DENIALS,LF,target,right,aqua,imageability,liberal,no,9,1,1.788512003,-,-
6,001,0,source,7,EITHER,HF,target,left,yellow,pleasantness,liberal,no,1,1,2.35324595433,-,-
6,001,0,source,8,FORCE,HF,target,left,yellow,pleasantness,conservative,no,1,1,1.223898298,-,-
6,001,0,source,9,TWAIN,LF,target,left,yellow,pleasantness,conservative,no,1,1,1.29438904233,-,-
6,001,0,source,10,FOUND,HF,target,left,yellow,pleasantness,liberal,no,3,1,2.04732426256,-,-
6,001,0,source,11,DOWDY,LF,target,left,yellow,pleasantness,conservative,no,2,1,1.76504783824,-,-
6,001,0,source,12,BYGONE,LF,target,right,aqua,imageability,liberal,no,2,0,2.49455518757,-,-
6,001,0,source,13,DIZZINESS,LF,target,right,aqua,imageability,liberal,no,9,1,1.90618660031,-,-
6,001,0,source,14,BOVINE,LF,target,left,yellow,pleasantness,liberal,no,2,1,2.00033434345,-,-
6,001,0,source,15,LIFEBOAT,LF,target,right,aqua,imageability,liberal,no,3,0,3.36513860956,-,-
6,001,0,source,16,HINDERED,LF,target,right,aqua,imageability,conservative,no,8,1,6.61221878673,-,-
6,001,0,source,17,OPENED,HF,target,left,yellow,pleasantness,conservative,no,8,0,3.10620683688,-,-
6,001,0,source,18,ENOUGH,HF,target,right,aqua,imageability,conservative,yes,7,1,2.44745565367,-,-
6,001,0,source,19,GERANIUMS,LF,target,right,aqua,imageability,liberal,no,9,1,1.12971792704,-,-
6,001,0,source,20,SLACKEN,LF,target,left,yellow,pleasantness,liberal,no,3,1,2.0002833854,-,-
6,001,0,source,21,GIVEN,HF,target,right,aqua,imageability,liberal,no,2,0,2.14143534524,-,-
6,001,0,source,22,LETTER,HF,target,right,aqua,imageability,conservative,no,8,1,1.41215235796,-,-
6,001,0,source,23,TELEPHONE,HF,target,right,aqua,imageability,liberal,no,2,0,2.35323715582,-,-
6,001,0,source,24,HISTORY,HF,target,right,aqua,imageability,conservative,no,8,1,2.51792366851,-,-
6,001,0,source,25,RAREFIED,LF,target,left,yellow,pleasantness,liberal,no,1,1,2.09447365469,-,-
6,001,0,source,26,PHANTOMS,LF,target,left,yellow,pleasantness,conservative,no,1,1,1.05906221061,-,-
6,001,0,source,27,NOBLEMAN,LF,target,left,yellow,pleasantness,liberal,no,1,1,1.17678593294,-,-
6,001,0,source,28,GARDEN,HF,target,right,aqua,imageability,conservative,no,7,1,2.56506132929,-,-
6,001,0,source,29,FIELD,HF,target,right,aqua,imageability,liberal,no,8,1,2.16512497186,-,-
6,001,0,source,30,APART,HF,target,left,yellow,pleasantness,conservative,no,2,1,3.71802675774,-,-
6,001,0,source,31,LENGTHEN,LF,target,left,yellow,pleasantness,conservative,no,2,1,1.22383780823,-,-
6,001,0,source,32,GLIDED,LF,target,right,aqua,imageability,conservative,no,8,1,1.48271642323,-,-
6,001,0,source,33,AROUND,HF,target,right,aqua,imageability,liberal,no,8,1,2.21218711209,-,-
6,001,0,source,34,UNCANNILY,LF,target,right,aqua,imageability,conservative,no,8,1,2.04748043614,-,-
6,001,0,source,35,ANYONE,HF,target,left,yellow,pleasantness,liberal,no,2,1,2.28247769027,-,-
6,001,0,source,36,BOASTS,LF,target,left,yellow,pleasantness,liberal,no,8,0,1.64741503387,-,-
6,001,0,source,37,SYNDICATE,LF,target,right,aqua,imageability,liberal,no,2,0,1.36481746387,-,-
6,001,0,source,38,PARENTS,HF,target,right,aqua,imageability,conservative,no,8,1,1.7649580201,-,-
6,001,0,source,39,STUDENT,HF,target,right,aqua,imageability,liberal,yes,2,0,4.44740066297,-,-
6,001,0,source,40,INFECT,LF,target,right,aqua,imageability,conservative,no,8,1,3.62410044381,-,-
6,001,0,source,41,ADENOIDS,LF,target,right,aqua,imageability,conservative,no,9,1,1.3886013079,-,-
6,001,0,source,42,WAITING,HF,target,left,yellow,pleasantness,conservative,no,2,1,2.25911104235,-,-
6,001,0,source,43,SHORT,HF,target,right,aqua,imageability,liberal,yes,2,0,0.729745642353,-,-
6,001,0,source,44,DURING,HF,target,left,yellow,pleasantness,liberal,no,2,1,2.68275315702,-,-
6,001,0,source,45,BOUGH,LF,target,left,yellow,pleasantness,liberal,no,7,0,2.28261956628,-,-
6,001,0,source,46,IDEAS,HF,target,right,aqua,imageability,conservative,no,9,1,7.6005061344,-,-
6,001,0,source,47,SUCCESS,HF,target,left,yellow,pleasantness,liberal,no,1,1,1.78849513919,-,-
6,001,0,recog,0,DURING,HF,target,left,yellow,pleasantness,liberal,no,z,1,1.54147911783,3,3
6,001,0,recog,1,APART,HF,target,left,yellow,pleasantness,conservative,no,z,1,4.30618967979,1,4
6,001,0,recog,2,VEILING,LF,lure,-,-,-,conservative,no,m,1,5.78867807491,3,7
6,001,0,recog,3,PRACTICE,HF,lure,-,-,-,conservative,no,z,0,5.30630699328,-3,4
6,001,0,recog,4,ABOVE,HF,lure,-,-,-,conservative,no,m,1,2.23564137852,3,7
6,001,0,recog,5,ANYONE,HF,target,left,yellow,pleasantness,liberal,no,m,0,2.78857395919,-3,4
6,001,0,recog,6,WATCH,HF,lure,-,-,-,conservative,no,z,0,5.35343035648,-3,1
6,001,0,recog,7,BRUISING,LF,target,left,yellow,pleasantness,conservative,no,z,1,6.18859573551,1,2
6,001,0,recog,8,DEEPEN,LF,lure,-,-,-,liberal,no,m,1,3.56503236753,1,3
6,001,0,recog,9,EDUCATION,HF,lure,-,-,-,conservative,no,m,1,3.47074714763,3,6
6,001,0,recog,10,DUGOUTS,LF,lure,-,-,-,liberal,no,m,1,2.58850276457,1,7
6,001,0,recog,11,FLECKED,LF,lure,-,-,-,conservative,no,m,1,1.15327227655,3,10
6,001,0,recog,12,SYNDICATE,LF,target,right,aqua,imageability,liberal,no,z,1,1.50595769236,3,13
6,001,0,recog,13,EVENING,HF,target,left,yellow,pleasantness,conservative,no,z,1,1.49461091147,1,14
6,001,0,recog,14,OFFER,HF,lure,-,-,-,conservative,no,z,0,1.65932858556,-3,11
6,001,0,recog,15,AROUND,HF,target,right,aqua,imageability,liberal,no,z,1,5.34157729456,3,14
6,001,0,recog,16,HISTORY,HF,target,right,aqua,imageability,conservative,no,z,1,1.37684356319,1,15
6,001,0,recog,17,TELEPHONE,HF,target,right,aqua,imageability,liberal,no,z,1,1.68272419525,3,18
6,001,0,recog,18,BAYING,LF,lure,-,-,-,liberal,no,m,1,1.32972973171,1,19
6,001,0,recog,19,ADENOIDS,LF,target,right,aqua,imageability,conservative,no,z,1,1.09424562659,1,20
6,001,0,recog,20,BYGONE,LF,target,right,aqua,imageability,liberal,no,z,1,1.20029262384,3,23
6,001,0,recog,21,IDEAS,HF,target,right,aqua,imageability,conservative,no,z,1,0.964771125045,1,24
6,001,0,recog,22,ACTION,HF,lure,-,-,-,conservative,no,m,1,1.04733379428,3,27
6,001,0,recog,23,DIZZINESS,LF,target,right,aqua,imageability,liberal,no,z,1,0.882651680846,3,30
6,001,0,recog,24,FORCE,HF,target,left,yellow,pleasantness,conservative,no,z,1,1.41208600252,1,31
6,001,0,recog,25,ROTARY,LF,lure,-,-,-,conservative,no,m,1,0.929750481535,3,34
6,001,0,recog,26,GEYSER,LF,lure,-,-,-,liberal,no,m,1,1.16479649409,1,35
6,001,0,recog,27,DOUBT,HF,lure,-,-,-,liberal,no,z,0,2.15324258157,-1,34
6,001,0,recog,28,ANSWER,HF,lure,-,-,-,conservative,no,m,1,1.12965010518,3,37
6,001,0,recog,29,BUSINESS,HF,lure,-,-,-,liberal,no,m,1,1.42386794314,1,38
6,001,0,recog,30,HINDERED,LF,target,right,aqua,imageability,conservative,no,z,1,1.02358881035,1,39
6,001,0,recog,31,BOUGH,LF,target,left,yellow,pleasantness,liberal,no,z,1,0.812008795579,3,42
6,001,0,recog,32,SUMMER,HF,lure,-,-,-,liberal,yes,z,0,1.21199794408,-1,41
6,001,0,recog,33,NINETIES,LF,lure,-,-,-,liberal,no,m,1,2.05919125545,1,42
6,001,0,recog,34,TWAIN,LF,target,left,yellow,pleasantness,conservative,no,z,1,0.800222455709,1,43
6,001,0,recog,35,STAFF,HF,lure,-,-,-,liberal,no,m,1,2.29443120187,1,44
6,001,0,recog,36,TREES,HF,lure,-,-,-,liberal,no,m,1,1.12979638044,1,45
6,001,0,recog,37,GLIDED,LF,target,right,aqua,imageability,conservative,no,z,1,0.788508703562,1,46
6,001,0,recog,38,HERSELF,HF,lure,-,-,-,conservative,no,m,1,0.96491630049,3,49
6,001,0,recog,39,PEOPLED,LF,lure,-,-,-,conservative,no,m,1,0.929768445163,3,52
6,001,0,recog,40,SENSE,HF,lure,-,-,-,liberal,no,m,1,1.07093910183,1,53
6,001,0,recog,41,ROOFED,LF,lure,-,-,-,liberal,no,z,0,1.04733232786,-1,52
6,001,0,recog,42,COACHED,LF,lure,-,-,-,liberal,no,m,1,0.941453602148,1,53
6,001,0,recog,43,GERANIUMS,LF,target,right,aqua,imageability,liberal,no,z,1,0.941448836286,3,56
6,001,0,recog,44,FLOOR,HF,lure,-,-,-,liberal,no,m,1,1.58847673563,1,57
6,001,0,recog,45,SUCCESS,HF,target,left,yellow,pleasantness,liberal,no,z,1,0.964956627003,3,60
6,001,0,recog,46,STUDENT,HF,target,right,aqua,imageability,liberal,no,m,0,1.34142845307,-3,57
6,001,0,recog,47,BOVINE,LF,target,left,yellow,pleasantness,liberal,no,z,1,1.63562246172,3,60
6,001,0,recog,48,PARENTS,HF,target,right,aqua,imageability,conservative,no,z,1,1.05919712113,1,61
6,001,0,recog,49,VERBALLY,LF,target,right,aqua,imageability,conservative,no,m,0,1.23535616009,-1,60
6,001,0,recog,50,WAITING,HF,target,left,yellow,pleasantness,conservative,no,z,1,1.57670029409,1,61
6,001,0,recog,51,WIPERS,LF,lure,-,-,-,liberal,no,m,1,1.03549796278,1,62
6,001,0,recog,52,SIMILAR,HF,lure,-,-,-,conservative,yes,m,1,1.3296498119,3,65
6,001,0,recog,53,DAILIES,LF,lure,-,-,-,conservative,no,m,1,2.82387248903,3,68
6,001,0,recog,54,MOTHER,HF,lure,-,-,-,conservative,no,m,1,1.20031975259,3,71
6,001,0,recog,55,COWARDS,LF,lure,-,-,-,conservative,no,m,1,0.917927847803,3,74
6,001,0,recog,56,PISTONS,LF,lure,-,-,-,conservative,no,m,1,0.882611354333,3,77
6,001,0,recog,57,COLDEST,LF,lure,-,-,-,conservative,yes,z,0,1.01213864695,-3,74
6,001,0,recog,58,INFECT,LF,target,right,aqua,imageability,conservative,no,m,0,1.03565523618,-1,73
6,001,0,recog,59,MODERN,HF,lure,-,-,-,liberal,no,m,1,1.60026380871,1,74
6,001,0,recog,60,GARDEN,HF,target,right,aqua,imageability,conservative,yes,m,0,1.05905157908,-1,73
6,001,0,recog,61,QUALITY,HF,lure,-,-,-,liberal,no,m,1,1.69430083725,1,74
6,001,0,recog,62,ARGUABLE,LF,target,left,yellow,pleasantness,conservative,no,m,0,2.45909278544,-1,73
6,001,0,recog,63,MITIGATE,LF,lure,-,-,-,conservative,no,m,1,1.45913127893,3,76
6,001,0,recog,64,UNCANNILY,LF,target,right,aqua,imageability,conservative,no,z,1,0.953207680807,1,77
6,001,0,recog,65,LENGTHEN,LF,target,left,yellow,pleasantness,conservative,no,z,1,0.823752609309,1,78
6,001,0,recog,66,SHORT,HF,target,right,aqua,imageability,liberal,no,m,0,0.870987786932,-3,75
6,001,0,recog,67,MEANS,HF,target,left,yellow,pleasantness,liberal,no,z,1,2.34156922926,3,78
6,001,0,recog,68,PASSED,HF,lure,-,-,-,liberal,no,m,1,0.941653035084,1,79
6,001,0,recog,69,OCCUPANCY,LF,lure,-,-,-,liberal,no,m,1,1.05910510336,1,80
6,001,0,recog,70,BECAME,HF,lure,-,-,-,conservative,no,m,1,0.894350402203,3,83
6,001,0,recog,71,ENOUGH,HF,target,right,aqua,imageability,conservative,no,z,1,1.9296456326,1,84
6,001,0,recog,72,TOWARDS,HF,target,left,yellow,pleasantness,conservative,no,m,0,0.882741132383,-1,83
6,001,0,recog,73,LIARS,LF,lure,-,-,-,liberal,no,m,1,1.25918692952,1,84
6,001,0,recog,74,GIVEN,HF,target,right,aqua,imageability,liberal,no,z,1,1.70614290103,3,87
6,001,0,recog,75,RAREFIED,LF,target,left,yellow,pleasantness,liberal,no,z,1,0.964871574721,3,90
6,001,0,recog,76,PADDLE,LF,lure,-,-,-,conservative,no,m,1,0.800365798131,3,93
6,001,0,recog,77,THEORY,HF,lure,-,-,-,liberal,no,m,1,1.05929170513,1,94
6,001,0,recog,78,DOWDY,LF,target,left,yellow,pleasantness,conservative,no,m,0,0.717698646568,-1,93
6,001,0,recog,79,LIFEBOAT,LF,target,right,aqua,imageability,liberal,no,z,1,0.753180478741,3,96
6,001,0,recog,80,FOUND,HF,target,left,yellow,pleasantness,liberal,no,m,0,1.09448281981,-3,93
6,001,0,recog,81,SLACKEN,LF,target,left,yellow,pleasantness,liberal,no,z,1,0.788501004863,3,96
6,001,0,recog,82,NOBLEMAN,LF,target,left,yellow,pleasantness,liberal,no,z,1,0.635659488792,3,99
6,001,0,recog,83,MOLARS,LF,lure,-,-,-,conservative,no,m,1,0.741439964454,3,102
6,001,0,recog,84,DENIALS,LF,target,right,aqua,imageability,liberal,no,m,0,1.69441521791,-3,99
6,001,0,recog,85,DEGREE,HF,lure,-,-,-,liberal,no,m,1,1.02377907816,1,100
6,001,0,recog,86,IRONICAL,LF,lure,-,-,-,liberal,no,m,1,0.753035303295,1,101
6,001,0,recog,87,EITHER,HF,target,left,yellow,pleasantness,liberal,no,z,1,0.964952960956,3,104
6,001,0,recog,88,PHANTOMS,LF,target,left,yellow,pleasantness,conservative,no,z,1,1.22369886506,1,105
6,001,0,recog,89,PEEKED,LF,lure,-,-,-,liberal,no,m,1,0.894312641922,1,106
6,001,0,recog,90,FIELD,HF,target,right,aqua,imageability,liberal,no,z,1,0.917976972828,3,109
6,001,0,recog,91,BOASTS,LF,target,left,yellow,pleasantness,liberal,no,m,0,2.24729684053,-3,106
6,001,0,recog,92,PAPER,HF,lure,-,-,-,conservative,no,m,1,1.22390343047,3,109
6,001,0,recog,93,LETTER,HF,target,right,aqua,imageability,conservative,no,z,1,2.2709428412,1,110
6,001,0,recog,94,BEDLAM,LF,lure,-,-,-,conservative,no,m,1,0.976810788736,3,113
6,001,0,recog,95,OPENED,HF,target,left,yellow,pleasantness,conservative,no,z,1,1.43571550598,1,114
6,001,1,source,0,EIGHT,HF,target,left,yellow,pleasantness,liberal,no,1,1,2.69446067688,-,-
6,001,1,source,1,GEOLOGIST,LF,target,left,yellow,pleasantness,conservative,no,1,1,1.07062382182,-,-
6,001,1,source,2,REPORT,HF,target,left,yellow,pleasantness,conservative,no,1,1,0.823836928381,-,-
6,001,1,source,3,SUDDENLY,HF,target,left,yellow,pleasantness,liberal,no,1,1,1.74154994585,-,-
6,001,1,source,4,SUBJECT,HF,target,right,aqua,imageability,liberal,no,8,1,1.48269625997,-,-
6,001,1,source,5,HELICAL,LF,target,right,aqua,imageability,liberal,no,8,1,1.3652126637,-,-
6,001,1,source,6,HYPNOSIS,LF,target,left,yellow,pleasantness,liberal,no,8,0,1.11809802569,-,-
6,001,1,source,7,OMELETTE,LF,target,left,yellow,pleasantness,liberal,no,1,1,1.18851141644,-,-
6,001,1,source,8,TICKLE,LF,target,right,aqua,imageability,liberal,no,8,1,2.56508369218,-,-
6,001,1,source,9,ENERGY,HF,target,right,aqua,imageability,liberal,no,8,1,1.02397191222,-,-
6,001,1,source,10,POACHED,LF,target,left,yellow,pleasantness,conservative,no,2,1,1.10594214832,-,-
6,001,1,source,11,WRANGLING,LF,target,left,yellow,pleasantness,liberal,no,2,1,0.929680460045,-,-
6,001,1,source,12,MOUTH,HF,target,right,aqua,imageability,conservative,no,8,1,2.47091211973,-,-
6,001,1,source,13,DAYBREAK,LF,target,right,aqua,imageability,conservative,no,2,0,3.57683043874,-,-
6,001,1,source,14,HAPPEN,HF,target,right,aqua,imageability,conservative,yes,2,0,1.20035054738,-,-
6,001,1,source,15,SMALL,HF,target,right,aqua,imageability,conservative,no,8,1,1.92983516721,-,-
6,001,1,source,16,TURNED,HF,target,right,aqua,imageability,liberal,no,8,1,1.41185687461,-,-
6,001,1,source,17,MERELY,HF,target,right,aqua,imageability,liberal,no,8,1,0.941464966892,-,-
6,001,1,source,18,WELCOMES,LF,target,left,yellow,pleasantness,conservative,yes,8,0,0.553074456673,-,-
6,001,1,source,19,SUGARY,LF,target,right,aqua,imageability,conservative,no,8,1,1.0355386559,-,-
6,001,1,source,20,BRACES,LF,target,right,aqua,imageability,conservative,no,8,1,1.02387219575,-,-
6,001,1,source,21,NEARLY,HF,target,right,aqua,imageability,conservative,no,8,1,1.05884334763,-,-
6,001,1,source,22,NUTSHELL,LF,target,right,aqua,imageability,liberal,no,8,1,1.43531114104,-,-
6,001,1,source,23,SHALL,HF,target,left,yellow,pleasantness,liberal,no,8,0,2.96498888821,-,-
6,001,1,source,24,QUESTION,HF,target,left,yellow,pleasantness,liberal,no,8,0,1.11808812736,-,-
6,001,1,source,25,BEAUTIFUL,HF,target,left,yellow,pleasantness,conservative,yes,8,0,0.529648052192,-,-
6,001,1,source,26,CERTAIN,HF,target,right,aqua,imageability,liberal,no,8,1,1.1767122454,-,-
6,001,1,source,27,GLASS,HF,target,left,yellow,pleasantness,liberal,no,2,1,1.49422634318,-,-
6,001,1,source,28,ATONEMENT,LF,target,right,aqua,imageability,liberal,yes,2,0,0.588265204746,-,-
6,001,1,source,29,CARRIED,HF,target,left,yellow,pleasantness,conservative,no,2,1,1.47084429787,-,-
6,001,1,source,30,MOSAICS,LF,target,left,yellow,pleasantness,liberal,no,2,1,0.965042412493,-,-
6,001,1,source,31,GOVERNS,LF,target,left,yellow,pleasantness,liberal,no,8,0,2.27095017329,-,-
6,001,1,source,32,HOVELS,LF,target,left,yellow,pleasantness,conservative,no,2,1,1.09439960055,-,-
6,001,1,source,33,DUSTER,LF,target,right,aqua,imageability,conservative,no,8,1,1.20033808282,-,-
6,001,1,source,34,BROUGHT,HF,target,right,aqua,imageability,conservative,no,8,1,1.21188393003,-,-
6,001,1,source,35,AEGIS,LF,target,right,aqua,imageability,conservative,no,8,1,1.76515122076,-,-
6,001,1,source,36,GEARING,LF,target,right,aqua,imageability,conservative,no,2,0,2.10630472033,-,-
6,001,1,source,37,FRIEND,HF,target,left,yellow,pleasantness,liberal,no,3,1,3.2122036093,-,-
6,001,1,source,38,VOUCH,LF,target,right,aqua,imageability,liberal,no,2,0,3.09422619654,-,-
6,001,1,source,39,LONGER,HF,target,left,yellow,pleasantness,conservative,no,2,1,3.41192396326,-,-
6,001,1,source,40,FARAWAY,LF,target,right,aqua,imageability,liberal,no,8,1,1.18869838481,-,-
6,001,1,source,41,PUPPETS,LF,target,left,yellow,pleasantness,conservative,no,1,1,1.7179527036,-,-
6,001,1,source,42,PREPARED,HF,target,right,aqua,imageability,conservative,no,1,0,3.08277603315,-,-
6,001,1,source,43,BUILDING,HF,target,left,yellow,pleasantness,conservative,no,1,1,1.10620427065,-,-
6,001,1,source,44,REQUIRED,HF,target,right,aqua,imageability,liberal,no,8,1,3.21189676119,-,-
6,001,1,source,45,BEYOND,HF,target,left,yellow,pleasantness,conservative,no,2,1,1.35320599443,-,-
6,001,1,source,46,VEERED,LF,target,left,yellow,pleasantness,liberal,no,2,1,1.35325658587,-,-
6,001,1,source,47,NIMBLE,LF,target,left,yellow,pleasantness,conservative,no,2,1,1.16480969185,-,-
6,001,1,recog,0,HAVING,HF,lure,-,-,-,conservative,no,None,-1,-1,-3,111
6,001,1,recog,1,OUTSIDE,HF,lure,-,-,-,conservative,no,z,0,1.47063350019,-3,108
6,001,1,recog,2,HYENA,LF,lure,-,-,-,liberal,no,m,1,3.34157472833,1,109
6,001,1,recog,3,GREATER,HF,lure,-,-,-,conservative,no,m,1,1.21209949357,3,112
6,001,1,recog,4,POACHED,LF,target,left,yellow,pleasantness,conservative,yes,m,0,0.623781864361,-1,111
6,001,1,recog,5,OLDER,HF,lure,-,-,-,liberal,no,m,1,1.20035677966,1,112
6,001,1,recog,6,SABLE,LF,lure,-,-,-,conservative,no,z,0,1.51794383177,-3,109
6,001,1,recog,7,WANTED,HF,lure,-,-,-,liberal,no,m,1,0.835537116156,1,110
6,001,1,recog,8,MONEY,HF,lure,-,-,-,liberal,no,z,0,1.24739252434,-1,109
6,001,1,recog,9,GEOLOGIST,LF,target,left,yellow,pleasantness,conservative,no,z,1,2.63561219679,1,110
6,001,1,recog,10,GLASS,HF,target,left,yellow,pleasantness,liberal,no,z,1,0.764986981869,3,113
6,001,1,recog,11,BUMBLING,LF,lure,-,-,-,liberal,no,m,1,0.835591373646,1,114
6,001,1,recog,12,SPICED,LF,lure,-,-,-,liberal,no,m,1,0.835667260811,1,115
6,001,1,recog,13,FRIEND,HF,target,left,yellow,pleasantness,liberal,no,z,1,0.729808698356,3,118
6,001,1,recog,14,WRANGLING,LF,target,left,yellow,pleasantness,liberal,no,z,1,0.812163502746,3,121
6,001,1,recog,15,COVER,HF,lure,-,-,-,liberal,no,m,1,0.929650031858,1,122
6,001,1,recog,16,HOVELS,LF,target,left,yellow,pleasantness,conservative,no,z,1,0.800264615245,1,123
6,001,1,recog,17,ERADICATE,LF,lure,-,-,-,liberal,no,m,1,0.753239135488,1,124
6,001,1,recog,18,BIKINI,LF,lure,-,-,-,conservative,no,m,1,0.706297241592,3,127
6,001,1,recog,19,TICKLE,LF,target,right,aqua,imageability,liberal,no,z,1,0.753179012323,3,130
6,001,1,recog,20,HAPPEN,HF,target,right,aqua,imageability,conservative,no,m,0,0.847280563281,-1,129
6,001,1,recog,21,NECESSARY,HF,lure,-,-,-,liberal,no,m,1,1.05909153898,1,130
6,001,1,recog,22,MIDDLE,HF,lure,-,-,-,conservative,no,m,1,0.847269198537,3,133
6,001,1,recog,23,SUBJECT,HF,target,right,aqua,imageability,liberal,no,z,1,0.717866551504,3,136
6,001,1,recog,24,ATONEMENT,LF,target,right,aqua,imageability,liberal,no,z,1,0.906143340956,3,139
6,001,1,recog,25,TURNED,HF,target,right,aqua,imageability,liberal,no,z,1,0.788543897609,3,142
6,001,1,recog,26,VEERED,LF,target,left,yellow,pleasantness,liberal,no,z,1,0.706168563357,3,145
6,001,1,recog,27,DEBACLE,LF,lure,-,-,-,liberal,no,m,1,0.870817315765,1,146
6,001,1,recog,28,SUDDENLY,HF,target,left,yellow,pleasantness,liberal,no,z,1,0.776741427133,3,149
6,001,1,recog,29,SHALL,HF,target,left,yellow,pleasantness,liberal,no,z,1,0.694544629351,3,152
6,001,1,recog,30,FARAWAY,LF,target,right,aqua,imageability,liberal,no,z,1,1.21207456446,3,155
6,001,1,recog,31,CERTAIN,HF,target,right,aqua,imageability,liberal,no,z,1,0.929679360232,3,158
6,001,1,recog,32,QUESTION,HF,target,left,yellow,pleasantness,liberal,no,z,1,0.965021149423,3,161
6,001,1,recog,33,SUGARY,LF,target,right,aqua,imageability,conservative,no,z,1,0.823810899449,1,162
6,001,1,recog,34,BRACES,LF,target,right,aqua,imageability,conservative,no,z,1,0.612006889234,1,163
6,001,1,recog,35,SOVIET,HF,lure,-,-,-,conservative,no,m,1,0.941630305594,3,166
6,001,1,recog,36,OMELETTE,LF,target,left,yellow,pleasantness,liberal,no,z,1,1.15329683906,3,169
6,001,1,recog,37,COMES,HF,lure,-,-,-,conservative,no,m,1,0.812100446745,3,172
6,001,1,recog,38,MERELY,HF,target,right,aqua,imageability,liberal,no,z,1,0.859132158781,3,175
6,001,1,recog,39,WAFER,LF,lure,-,-,-,liberal,no,m,1,0.800052351145,1,176
6,001,1,recog,40,LONGER,HF,target,left,yellow,pleasantness,conservative,no,z,1,1.03560904399,1,177
6,001,1,recog,41,ATHEIST,LF,lure,-,-,-,conservative,no,m,1,0.741485056828,3,180
6,001,1,recog,42,SICKENED,LF,lure,-,-,-,conservative,no,m,1,1.07101205616,3,183
6,001,1,recog,43,REPORT,HF,target,left,yellow,pleasantness,conservative,no,z,1,0.705972796467,1,184
6,001,1,recog,44,WHOLE,HF,lure,-,-,-,conservative,no,m,1,1.09437540464,3,187
6,001,1,recog,45,LULLED,LF,lure,-,-,-,conservative,no,m,1,1.16496476563,3,190
6,001,1,recog,46,CHIEF,HF,lure,-,-,-,conservative,no,m,1,0.953279168716,3,193
6,001,1,recog,47,HESITATES,LF,lure,-,-,-,liberal,no,m,1,0.953345890764,1,194
6,001,1,recog,48,VALUE,HF,lure,-,-,-,conservative,no,m,1,0.918056892645,3,197
6,001,1,recog,49,BRING,HF,lure,-,-,-,liberal,no,m,1,0.870860575114,1,198
6,001,1,recog,50,DUSTER,LF,target,right,aqua,imageability,conservative,no,z,1,0.741496421572,1,199
6,001,1,recog,51,TANGIER,LF,lure,-,-,-,conservative,no,m,1,0.729666822352,3,202
6,001,1,recog,52,AFRAID,HF,lure,-,-,-,conservative,no,m,1,1.6827205292,3,205
6,001,1,recog,53,MOSAICS,LF,target,left,yellow,pleasantness,liberal,no,z,1,0.741475525107,3,208
6,001,1,recog,54,NIMBLE,LF,target,left,yellow,pleasantness,conservative,no,z,1,0.788472776304,1,209
6,001,1,recog,55,NEARLY,HF,target,right,aqua,imageability,conservative,no,z,1,0.64735527731,1,210
6,001,1,recog,56,PREPARED,HF,target,right,aqua,imageability,conservative,no,z,1,0.612061879934,1,211
6,001,1,recog,57,VOUCH,LF,target,right,aqua,imageability,liberal,no,z,1,0.576696994648,3,214
6,001,1,recog,58,JANGLING,LF,lure,-,-,-,conservative,yes,m,1,0.576697727857,3,217
6,001,1,recog,59,CHROMIUM,LF,lure,-,-,-,conservative,no,m,1,0.741159145283,3,220
6,001,1,recog,60,PIPELINES,LF,lure,-,-,-,liberal,no,m,1,1.27097326939,1,221
6,001,1,recog,61,WELCOMES,LF,target,left,yellow,pleasantness,conservative,no,z,1,1.09453377785,1,222
6,001,1,recog,62,MINISTER,HF,lure,-,-,-,liberal,no,m,1,0.717958569274,1,223
6,001,1,recog,63,POWER,HF,lure,-,-,-,liberal,no,m,1,0.741415035337,1,224
6,001,1,recog,64,GEARING,LF,target,right,aqua,imageability,conservative,no,z,1,0.906153605887,1,225
6,001,1,recog,65,EIGHT,HF,target,left,yellow,pleasantness,liberal,no,z,1,0.623822924083,3,228
6,001,1,recog,66,ISOLATING,LF,lure,-,-,-,liberal,no,m,1,0.870842244882,1,229
6,001,1,recog,67,LABOUR,HF,lure,-,-,-,conservative,no,m,1,0.859115661571,3,232
6,001,1,recog,68,BUILDING,HF,target,left,yellow,pleasantness,conservative,no,z,1,0.80027597999,1,233
6,001,1,recog,69,MAKES,HF,lure,-,-,-,conservative,no,m,1,1.03557238352,3,236
6,001,1,recog,70,FINAL,HF,lure,-,-,-,liberal,no,m,1,0.906200531284,1,237
6,001,1,recog,71,PUPPETS,LF,target,left,yellow,pleasantness,conservative,no,z,1,0.859102097199,1,238
6,001,1,recog,72,TILTS,LF,lure,-,-,-,conservative,no,m,1,0.682606515152,3,241
6,001,1,recog,73,BEAUTIFUL,HF,target,left,yellow,pleasantness,conservative,no,z,1,0.741488722874,1,242
6,001,1,recog,74,BROUGHT,HF,target,right,aqua,imageability,conservative,no,z,1,0.69441631772,1,243
6,001,1,recog,75,BEYOND,HF,target,left,yellow,pleasantness,conservative,no,z,1,0.659281660161,1,244
6,001,1,recog,76,TIRADE,LF,lure,-,-,-,conservative,no,m,1,0.776831978485,3,247
6,001,1,recog,77,SMALL,HF,target,right,aqua,imageability,conservative,yes,m,0,0.823866256754,-1,246
6,001,1,recog,78,SOCIAL,HF,lure,-,-,-,liberal,no,m,1,0.882780725687,1,247
6,001,1,recog,79,MOUTH,HF,target,right,aqua,imageability,conservative,no,z,1,0.82379366903,1,248
6,001,1,recog,80,SLIGHTLY,HF,lure,-,-,-,liberal,no,m,1,0.765133990338,1,249
6,001,1,recog,81,NUTSHELL,LF,target,right,aqua,imageability,liberal,no,z,1,0.776748759226,3,252
6,001,1,recog,82,REQUIRED,HF,target,right,aqua,imageability,liberal,yes,m,0,0.588821710621,-3,249
6,001,1,recog,83,FLAGGED,LF,lure,-,-,-,conservative,no,m,1,0.800282212269,3,252
6,001,1,recog,84,HYPNOSIS,LF,target,left,yellow,pleasantness,liberal,no,z,1,0.765017410055,3,255
6,001,1,recog,85,ENERGY,HF,target,right,aqua,imageability,liberal,no,z,1,0.7179134769,3,258
6,001,1,recog,86,GOVERNS,LF,target,left,yellow,pleasantness,liberal,no,z,1,1.37688535612,3,261
6,001,1,recog,87,LEOPARDS,LF,lure,-,-,-,conservative,no,m,1,1.20032341863,3,264
6,001,1,recog,88,JOVIAL,LF,lure,-,-,-,liberal,no,z,0,1.07098529402,-1,263
6,001,1,recog,89,HOTEL,HF,lure,-,-,-,liberal,no,m,1,0.717895879877,1,264
6,001,1,recog,90,CARRIED,HF,target,left,yellow,pleasantness,conservative,no,m,0,1.05912563322,-1,263
6,001,1,recog,91,AEGIS,LF,target,right,aqua,imageability,conservative,no,z,1,0.823860024475,1,264
6,001,1,recog,92,ATROCITY,LF,lure,-,-,-,liberal,no,m,1,0.964867175466,1,265
6,001,1,recog,93,HELICAL,LF,target,right,aqua,imageability,liberal,no,z,1,1.05896359396,3,268
6,001,1,recog,94,DAYBREAK,LF,target,right,aqua,imageability,conservative,no,z,1,0.800254716919,1,269
6,001,1,recog,95,PRYING,LF,lure,-,-,-,liberal,no,m,1,0.882620886054,1,270
6,001,2,source,0,IMMEDIACY,LF,target,right,aqua,imageability,conservative,no,2,0,3.40027510014,-,-
6,001,2,source,1,SURER,LF,target,left,yellow,pleasantness,conservative,no,2,1,1.30619811169,-,-
6,001,2,source,2,FATHER,HF,target,right,aqua,imageability,conservative,no,8,1,3.08265212077,-,-
6,001,2,source,3,OBVIOUSLY,HF,target,left,yellow,pleasantness,conservative,no,2,1,0.906290349425,-,-
6,001,2,source,4,SOMEONE,HF,target,left,yellow,pleasantness,conservative,yes,2,1,0.741264360821,-,-
6,001,2,source,5,SLOWLY,HF,target,left,yellow,pleasantness,conservative,yes,2,1,0.506145027338,-,-
6,001,2,source,6,MOMENT,HF,target,right,aqua,imageability,liberal,yes,2,0,0.576883229816,-,-
6,001,2,source,7,BIRCHES,LF,target,left,yellow,pleasantness,conservative,no,2,1,2.6474564602,-,-
6,001,2,source,8,VAINLY,LF,target,right,aqua,imageability,liberal,no,8,1,1.07108281086,-,-
6,001,2,source,9,KIDNAP,LF,target,right,aqua,imageability,liberal,no,9,1,1.67085793556,-,-
6,001,2,source,10,JINGLE,LF,target,left,yellow,pleasantness,liberal,no,1,1,1.28278710461,-,-
6,001,2,source,11,CONCERNED,HF,target,left,yellow,pleasantness,liberal,no,2,1,2.11804560122,-,-
6,001,2,source,12,KITCHEN,HF,target,right,aqua,imageability,conservative,no,7,1,1.15324184836,-,-
6,001,2,source,13,NIGHT,HF,target,left,yellow,pleasantness,liberal,no,7,0,1.38859874167,-,-
6,001,2,source,14,UNPACK,LF,target,left,yellow,pleasantness,conservative,no,8,0,2.78852593398,-,-
6,001,2,source,15,THANK,HF,target,right,aqua,imageability,liberal,no,8,1,1.23558088875,-,-
6,001,2,source,16,RUINOUS,LF,target,left,yellow,pleasantness,conservative,no,8,0,1.07084488444,-,-
6,001,2,source,17,CLEAR,HF,target,left,yellow,pleasantness,conservative,no,2,1,1.8004343532,-,-
6,001,2,source,18,SCOFFED,LF,target,right,aqua,imageability,liberal,yes,2,0,0.588601381221,-,-
6,001,2,source,19,HUMAN,HF,target,right,aqua,imageability,conservative,no,8,1,0.741280858031,-,-
6,001,2,source,20,HOBBLE,LF,target,left,yellow,pleasantness,liberal,no,8,0,2.47121493518,-,-
6,001,2,source,21,AFTERNOON,HF,target,left,yellow,pleasantness,liberal,no,8,0,1.24738665867,-,-
6,001,2,source,22,FECKLESS,LF,target,right,aqua,imageability,conservative,no,8,1,0.906004764394,-,-
6,001,2,source,23,ANIMAL,HF,target,right,aqua,imageability,liberal,no,8,1,1.47097884178,-,-
6,001,2,source,24,UNDER,HF,target,left,yellow,pleasantness,liberal,no,2,1,1.74120423766,-,-
6,001,2,source,25,LATER,HF,target,left,yellow,pleasantness,conservative,no,2,1,0.964983755747,-,-
6,001,2,source,26,TAGGED,LF,target,right,aqua,imageability,conservative,no,2,0,1.15329463943,-,-
6,001,2,source,27,PYJAMA,LF,target,left,yellow,pleasantness,conservative,no,2,1,1.12956871894,-,-
6,001,2,source,28,RETURN,HF,target,left,yellow,pleasantness,liberal,no,2,1,1.0592576109,-,-
6,001,2,source,29,VEGAN,LF,target,right,aqua,imageability,conservative,no,8,1,1.1413935523,-,-
6,001,2,source,30,REWRITE,LF,target,right,aqua,imageability,liberal,no,8,1,1.02401553817,-,-
6,001,2,source,31,BAFFLING,LF,target,right,aqua,imageability,conservative,no,8,1,0.976564430403,-,-
6,001,2,source,32,GOADED,LF,target,right,aqua,imageability,liberal,no,8,1,1.01177974099,-,-
6,001,2,source,33,BALDING,LF,target,left,yellow,pleasantness,liberal,no,8,0,0.941429039635,-,-
6,001,2,source,34,NIPPED,LF,target,right,aqua,imageability,conservative,no,2,0,5.64743959638,-,-
6,001,2,source,35,NESTING,LF,target,left,yellow,pleasantness,conservative,no,2,1,0.517884808416,-,-
6,001,2,source,36,WESTERN,HF,target,right,aqua,imageability,liberal,no,2,0,0.576712392044,-,-
6,001,2,source,37,AHEAD,HF,target,left,yellow,pleasantness,conservative,no,8,0,0.647279023541,-,-
6,001,2,source,38,HIGHER,HF,target,right,aqua,imageability,conservative,no,2,0,0.49437775091,-,-
6,001,2,source,39,HARDLY,HF,target,left,yellow,pleasantness,liberal,no,8,0,0.623564834401,-,-
6,001,2,source,40,OBESE,LF,target,right,aqua,imageability,liberal,no,8,1,0.529715140846,-,-
6,001,2,source,41,HEEDED,LF,target,left,yellow,pleasantness,liberal,no,8,0,0.70613336931,-,-
6,001,2,source,42,GODMOTHER,LF,target,left,yellow,pleasantness,liberal,no,8,0,1.45909021921,-,-
6,001,2,source,43,UNZIPPED,LF,target,left,yellow,pleasantness,liberal,no,1,1,1.01215551076,-,-
6,001,2,source,44,GROUND,HF,target,right,aqua,imageability,conservative,no,8,1,1.16504981791,-,-
6,001,2,source,45,VILLAGE,HF,target,right,aqua,imageability,conservative,no,8,1,1.42358419113,-,-
6,001,2,source,46,EXACTLY,HF,target,right,aqua,imageability,liberal,no,8,1,1.8473608497,-,-
6,001,2,source,47,FEELING,HF,target,right,aqua,imageability,liberal,no,8,1,1.01183143224,-,-
6,001,2,recog,0,MOMENT,HF,target,right,aqua,imageability,liberal,no,m,0,3.67088909696,-3,267
6,001,2,recog,1,NATIONAL,HF,lure,-,-,-,liberal,no,m,1,2.61211797045,1,268
6,001,2,recog,2,PRIVATE,HF,lure,-,-,-,liberal,no,z,0,1.48288102872,-1,267
6,001,2,recog,3,BASIC,HF,lure,-,-,-,conservative,no,z,0,1.65887399578,-3,264
6,001,2,recog,4,HEEDED,LF,target,left,yellow,pleasantness,liberal,no,m,0,2.30625090276,-3,261
6,001,2,recog,5,FEELING,HF,target,right,aqua,imageability,liberal,no,z,1,1.89436873243,3,264
6,001,2,recog,6,HARDLY,HF,target,left,yellow,pleasantness,liberal,no,z,1,0.988585030652,3,267
6,001,2,recog,7,HOBBLE,LF,target,left,yellow,pleasantness,liberal,no,z,1,1.05921178531,3,270
6,001,2,recog,8,OBVIOUSLY,HF,target,left,yellow,pleasantness,conservative,no,m,0,1.01188605634,-1,269
6,001,2,recog,9,UNPACK,LF,target,left,yellow,pleasantness,conservative,no,z,1,1.38860387413,1,270
6,001,2,recog,10,SINCE,HF,lure,-,-,-,liberal,no,m,1,0.847440036308,1,271
6,001,2,recog,11,SURER,LF,target,left,yellow,pleasantness,conservative,yes,m,0,1.45917307186,-1,270
6,001,2,recog,12,JAILS,LF,lure,-,-,-,liberal,no,m,1,0.976962196461,1,271
6,001,2,recog,13,JEWELLED,LF,lure,-,-,-,conservative,no,m,1,1.89443288825,3,274
6,001,2,recog,14,GOADED,LF,target,right,aqua,imageability,liberal,no,z,1,1.3768442964,3,277
6,001,2,recog,15,SLEEP,HF,lure,-,-,-,conservative,no,z,0,1.05892839991,-3,274
6,001,2,recog,16,AHEAD,HF,target,left,yellow,pleasantness,conservative,no,z,1,1.74155837776,1,275
6,001,2,recog,17,PANACHE,LF,lure,-,-,-,liberal,no,m,1,0.812119510187,1,276
6,001,2,recog,18,IMMEDIACY,LF,target,right,aqua,imageability,conservative,yes,m,0,0.694099204688,-1,275
6,001,2,recog,19,ATTACK,HF,lure,-,-,-,liberal,no,m,1,1.07092920351,1,276
6,001,2,recog,20,KIDNAP,LF,target,right,aqua,imageability,liberal,no,z,1,0.72973831026,3,279
6,001,2,recog,21,PYJAMA,LF,target,left,yellow,pleasantness,conservative,no,z,1,0.67066363509,1,280
6,001,2,recog,22,UNDER,HF,target,left,yellow,pleasantness,liberal,no,z,1,0.800290277571,3,283
6,001,2,recog,23,CLEAR,HF,target,left,yellow,pleasantness,conservative,no,z,1,0.671013009332,1,284
6,001,2,recog,24,THANK,HF,target,right,aqua,imageability,liberal,no,z,1,0.612149131844,3,287
6,001,2,recog,25,HIGHER,HF,target,right,aqua,imageability,conservative,no,z,1,0.565040799434,1,288
6,001,2,recog,26,BEGAN,HF,lure,-,-,-,liberal,no,m,1,0.917675623797,1,289
6,001,2,recog,27,ALTHOUGH,HF,lure,-,-,-,conservative,no,m,1,0.8240114322,3,292
6,001,2,recog,28,SCOFFED,LF,target,right,aqua,imageability,liberal,yes,z,1,1.4593809367,3,295
6,001,2,recog,29,TRADE,HF,lure,-,-,-,conservative,no,m,1,1.45924052712,3,298
6,001,2,recog,30,AMALGAM,LF,lure,-,-,-,conservative,no,m,1,1.30627363225,3,301
6,001,2,recog,31,DEVELOPED,HF,lure,-,-,-,liberal,no,z,0,1.63554620795,-1,300
6,001,2,recog,32,MOPED,LF,lure,-,-,-,liberal,no,m,1,0.84736304933,1,301
6,001,2,recog,33,ANIMAL,HF,target,right,aqua,imageability,liberal,no,z,1,0.917798069753,3,304
6,001,2,recog,34,NESTING,LF,target,left,yellow,pleasantness,conservative,no,z,1,0.788539131748,1,305
6,001,2,recog,35,BIRCHES,LF,target,left,yellow,pleasantness,conservative,no,z,1,0.894370565459,1,306
6,001,2,recog,36,ESPECIAL,LF,lure,-,-,-,liberal,no,m,1,0.964923999188,1,307
6,001,2,recog,37,RETURN,HF,target,left,yellow,pleasantness,liberal,no,z,1,0.541334675595,3,310
6,001,2,recog,38,KNOWLEDGE,HF,lure,-,-,-,liberal,no,m,1,0.788618318355,1,311
6,001,2,recog,39,PAGANISM,LF,lure,-,-,-,conservative,no,z,0,1.21211415776,-3,308
6,001,2,recog,40,MARKET,HF,lure,-,-,-,conservative,no,m,1,0.635555739672,3,311
6,001,2,recog,41,LATER,HF,target,left,yellow,pleasantness,conservative,no,z,1,0.800327304642,1,312
6,001,2,recog,42,BLOOD,HF,lure,-,-,-,liberal,no,m,1,0.729634194536,1,313
6,001,2,recog,43,NIGHT,HF,target,left,yellow,pleasantness,liberal,no,z,1,0.612007622444,3,316
6,001,2,recog,44,OBESE,LF,target,right,aqua,imageability,liberal,no,z,1,0.576927222376,3,319
6,001,2,recog,45,CONCERNED,HF,target,left,yellow,pleasantness,liberal,no,z,1,0.647297353774,3,322
6,001,2,recog,46,BIBLES,LF,lure,-,-,-,liberal,no,m,1,0.85887810175,1,323
6,001,2,recog,47,FECKLESS,LF,target,right,aqua,imageability,conservative,no,z,1,0.776744359971,1,324
6,001,2,recog,48,EASILY,HF,lure,-,-,-,liberal,no,m,1,0.894378264156,1,325
6,001,2,recog,49,UNRAVEL,LF,lure,-,-,-,conservative,no,z,0,1.11796824764,-3,322
6,001,2,recog,50,UPDATE,LF,lure,-,-,-,liberal,no,m,1,0.635668653908,1,323
6,001,2,recog,51,RESEARCH,HF,lure,-,-,-,conservative,no,m,1,1.2237883166,3,326
6,001,2,recog,52,REWRITE,LF,target,right,aqua,imageability,liberal,no,z,1,1.05916779275,3,329
6,001,2,recog,53,GROUND,HF,target,right,aqua,imageability,conservative,no,z,1,0.812178533537,1,330
6,001,2,recog,54,DAMASK,LF,lure,-,-,-,liberal,no,m,1,0.729802832681,1,331
6,001,2,recog,55,WESTERN,HF,target,right,aqua,imageability,liberal,no,z,1,0.670822741513,3,334
6,001,2,recog,56,HILLSIDES,LF,lure,-,-,-,liberal,no,m,1,0.788454446071,1,335
6,001,2,recog,57,HOPPER,LF,lure,-,-,-,conservative,no,m,1,1.14150390031,3,338
6,001,2,recog,58,NIBBLE,LF,lure,-,-,-,liberal,no,z,0,0.658883894104,-1,337
6,001,2,recog,59,SLOWLY,HF,target,left,yellow,pleasantness,conservative,no,m,0,1.17670674633,-1,336
6,001,2,recog,60,DEJECTED,LF,lure,-,-,-,conservative,no,z,0,0.859094765106,-3,333
6,001,2,recog,61,DRINK,HF,lure,-,-,-,conservative,no,m,1,1.12967430109,3,336
6,001,2,recog,62,DOING,HF,lure,-,-,-,conservative,no,m,1,0.706084977494,3,339
6,001,2,recog,63,RUINOUS,LF,target,left,yellow,pleasantness,conservative,no,m,0,0.917895219988,-1,338
6,001,2,recog,64,FATHER,HF,target,right,aqua,imageability,conservative,no,z,1,0.729721446446,1,339
6,001,2,recog,65,ROLLERS,LF,lure,-,-,-,liberal,no,z,0,1.17693807387,-1,338
6,001,2,recog,66,MAYBE,HF,lure,-,-,-,liberal,no,m,1,0.906109979933,1,339
6,001,2,recog,67,TAGGED,LF,target,right,aqua,imageability,conservative,no,z,1,0.647351244659,1,340
6,001,2,recog,68,CESSATION,LF,lure,-,-,-,liberal,no,m,1,1.00023426038,1,341
6,001,2,recog,69,NAPPY,LF,lure,-,-,-,conservative,no,m,1,0.953193383226,3,344
6,001,2,recog,70,AFTERNOON,HF,target,left,yellow,pleasantness,liberal,no,z,1,0.635518345997,3,347
6,001,2,recog,71,NEEDED,HF,lure,-,-,-,conservative,no,z,0,0.894372031878,-3,344
6,001,2,recog,72,JINGLE,LF,target,left,yellow,pleasantness,liberal,no,m,0,0.494378850724,-3,341
6,001,2,recog,73,POUNDS,HF,lure,-,-,-,conservative,no,m,1,1.0591402974,3,344
6,001,2,recog,74,KITCHEN,HF,target,right,aqua,imageability,conservative,no,z,1,0.7179684676,1,345
6,001,2,recog,75,BAFFLING,LF,target,right,aqua,imageability,conservative,no,z,1,0.870896502372,1,346
6,001,2,recog,76,SOMEONE,HF,target,left,yellow,pleasantness,conservative,no,z,1,0.729778636773,1,347
6,001,2,recog,77,BALDING,LF,target,left,yellow,pleasantness,liberal,yes,m,0,0.682780285762,-3,344
6,001,2,recog,78,UNZIPPED,LF,target,left,yellow,pleasantness,liberal,no,z,1,0.906296581705,3,347
6,001,2,recog,79,MIMICKED,LF,lure,-,-,-,conservative,no,m,1,0.929637200695,3,350
6,001,2,recog,80,INTEREST,HF,lure,-,-,-,liberal,no,m,1,1.41210103331,1,351
6,001,2,recog,81,UDDER,LF,lure,-,-,-,conservative,no,m,1,1.02395724803,3,354
6,001,2,recog,82,VEGAN,LF,target,right,aqua,imageability,conservative,no,z,1,0.694426582651,1,355
6,001,2,recog,83,EXACTLY,HF,target,right,aqua,imageability,liberal,no,z,1,0.682695600084,3,358
6,001,2,recog,84,HUMAN,HF,target,right,aqua,imageability,conservative,no,z,1,0.506183154223,1,359
6,001,2,recog,85,GODMOTHER,LF,target,left,yellow,pleasantness,liberal,no,z,1,0.553319348587,3,362
6,001,2,recog,86,ALONE,HF,lure,-,-,-,conservative,no,z,0,0.76488799861,-3,359
6,001,2,recog,87,LOUDEST,LF,lure,-,-,-,conservative,no,m,1,1.34145301558,3,362
6,001,2,recog,88,SELECTS,LF,lure,-,-,-,liberal,no,m,1,0.764979649775,1,363
6,001,2,recog,89,ELLIPSE,LF,lure,-,-,-,conservative,no,m,1,0.659095424993,3,366
6,001,2,recog,90,NIPPED,LF,target,right,aqua,imageability,conservative,no,z,1,0.659118887692,1,367
6,001,2,recog,91,WINDOW,HF,lure,-,-,-,conservative,no,m,1,0.835589540622,3,370
6,001,2,recog,92,VAINLY,LF,target,right,aqua,imageability,liberal,no,m,0,1.07095816528,-3,367
6,001,2,recog,93,VILLAGE,HF,target,right,aqua,imageability,conservative,no,z,1,0.670631740485,1,368
6,001,2,recog,94,FUNNILY,LF,lure,-,-,-,conservative,no,m,1,0.929776143861,3,371
6,001,2,recog,95,REACHED,HF,lure,-,-,-,liberal,no,z,0,0.6121377671,-1,370
6,001,3,source,0,TOOTHACHE,LF,target,left,yellow,pleasantness,conservative,no,2,1,2.11770685851,-,-
6,001,3,source,1,PROBABLY,HF,target,left,yellow,pleasantness,liberal,no,2,1,0.929743882652,-,-
6,001,3,source,2,BLACK,HF,target,right,aqua,imageability,liberal,no,8,1,1.63532624515,-,-
6,001,3,source,3,SNOBBISH,LF,target,left,yellow,pleasantness,liberal,yes,2,1,1.62379799497,-,-
6,001,3,source,4,EXPECT,HF,target,left,yellow,pleasantness,conservative,no,8,0,1.18850995002,-,-
6,001,3,source,5,USING,HF,target,right,aqua,imageability,conservative,no,8,1,1.5062128492,-,-
6,001,3,source,6,PHRASED,LF,target,right,aqua,imageability,liberal,no,2,0,0.882401289862,-,-
6,001,3,source,7,SOYBEAN,LF,target,right,aqua,imageability,liberal,no,8,1,1.03547486669,-,-
6,001,3,source,8,ACCORDING,HF,target,left,yellow,pleasantness,conservative,no,8,0,2.20029592328,-,-
6,001,3,source,9,REEDY,LF,target,left,yellow,pleasantness,liberal,no,2,1,1.16475580097,-,-
6,001,3,source,10,PERHAPS,HF,target,left,yellow,pleasantness,liberal,yes,2,1,0.576690762369,-,-
6,001,3,source,11,RENAMED,LF,target,left,yellow,pleasantness,liberal,no,2,1,0.858937858311,-,-
6,001,3,source,12,GENERAL,HF,target,right,aqua,imageability,liberal,no,8,1,1.58830663107,-,-
6,001,3,source,13,EMOTIVE,LF,target,right,aqua,imageability,liberal,yes,8,1,1.36495897327,-,-
6,001,3,source,14,EMULATION,LF,target,right,aqua,imageability,conservative,no,2,0,1.32984741181,-,-
6,001,3,source,15,CLUBBED,LF,target,right,aqua,imageability,conservative,no,8,1,2.01200153681,-,-
6,001,3,source,16,CAPITAL,HF,target,right,aqua,imageability,conservative,no,9,1,1.20022846803,-,-
6,001,3,source,17,AMULETS,LF,target,left,yellow,pleasantness,conservative,no,1,1,1.90630757984,-,-
6,001,3,source,18,UGLIEST,LF,target,right,aqua,imageability,conservative,no,9,1,3.40009179781,-,-
6,001,3,source,19,MEMBERS,HF,target,left,yellow,pleasantness,liberal,no,1,1,1.91814707739,-,-
6,001,3,source,20,COPIOUSLY,LF,target,right,aqua,imageability,liberal,no,8,1,1.61206591259,-,-
6,001,3,source,21,DUNGEON,LF,target,right,aqua,imageability,liberal,no,8,1,3.17677750103,-,-
6,001,3,source,22,CHAIR,HF,target,left,yellow,pleasantness,conservative,no,9,0,1.70631777146,-,-
6,001,3,source,23,IMPORTANT,HF,target,left,yellow,pleasantness,conservative,no,2,1,1.82388788643,-,-
6,001,3,source,24,BESOTTED,LF,target,left,yellow,pleasantness,conservative,no,2,1,1.63543402693,-,-
6,001,3,source,25,DRYER,LF,target,right,aqua,imageability,liberal,no,9,1,2.8826714775,-,-
6,001,3,source,26,RAPACIOUS,LF,target,right,aqua,imageability,conservative,no,7,1,1.92948469316,-,-
6,001,3,source,27,USUAL,HF,target,left,yellow,pleasantness,liberal,no,3,1,1.04739795009,-,-
6,001,3,source,28,THOUSAND,HF,target,left,yellow,pleasantness,conservative,no,7,0,0.870988886745,-,-
6,001,3,source,29,DAUGHTER,HF,target,right,aqua,imageability,conservative,no,9,1,1.20028675817,-,-
6,001,3,source,30,UNABATED,LF,target,left,yellow,pleasantness,conservative,no,3,1,0.858895698773,-,-
6,001,3,source,31,LIVED,HF,target,right,aqua,imageability,liberal,no,7,1,0.776683870201,-,-
6,001,3,source,32,FULCRUM,LF,target,left,yellow,pleasantness,liberal,no,1,1,1.11786046587,-,-
6,001,3,source,33,QUOTAS,LF,target,left,yellow,pleasantness,conservative,no,1,1,2.17680536299,-,-
6,001,3,source,34,ACACIA,LF,target,left,yellow,pleasantness,conservative,no,3,1,1.18827972229,-,-
6,001,3,source,35,TIMES,HF,target,right,aqua,imageability,liberal,no,7,1,1.42383421551,-,-
6,001,3,source,36,DECIDED,HF,target,right,aqua,imageability,liberal,no,7,1,1.60046874072,-,-
6,001,3,source,37,IDIOCY,LF,target,left,yellow,pleasantness,liberal,no,1,1,2.22364974004,-,-
6,001,3,source,38,BOTANIST,LF,target,right,aqua,imageability,conservative,no,9,1,3.5650224692,-,-
6,001,3,source,39,VEHEMENCE,LF,target,left,yellow,pleasantness,liberal,no,3,1,1.42359408945,-,-
6,001,3,source,40,WHATEVER,HF,target,right,aqua,imageability,conservative,no,8,1,1.55317160691,-,-
6,001,3,source,41,TABLE,HF,target,right,aqua,imageability,liberal,no,9,1,1.10598540767,-,-
6,001,3,source,42,FURTHER,HF,target,left,yellow,pleasantness,liberal,no,7,0,0.94145690159,-,-
6,001,3,source,43,AMONG,HF,target,left,yellow,pleasantness,conservative,no,3,1,1.23565091024,-,-
6,001,3,source,44,ALREADY,HF,target,right,aqua,imageability,conservative,no,7,1,0.741534181851,-,-
6,001,3,source,45,HOWEVER,HF,target,right,aqua,imageability,conservative,no,3,0,1.32976089311,-,-
6,001,3,source,46,BYPASS,LF,target,right,aqua,imageability,conservative,no,7,1,1.25917556477,-,-
6,001,3,source,47,AVAILABLE,HF,target,left,yellow,pleasantness,liberal,yes,7,0,0.87087817214,-,-
6,001,3,recog,0,BUCKED,LF,lure,-,-,-,liberal,no,m,1,1.7885900898,1,371
6,001,3,recog,1,EARLIER,HF,lure,-,-,-,conservative,no,m,1,0.847412174355,3,374
6,001,3,recog,2,DAUGHTER,HF,target,right,aqua,imageability,conservative,no,z,1,0.612155364122,1,375
6,001,3,recog,3,HOWEVER,HF,target,right,aqua,imageability,conservative,no,z,1,0.706110273215,1,376
6,001,3,recog,4,HOLED,LF,lure,-,-,-,conservative,no,m,1,0.659032368991,3,379
6,001,3,recog,5,ARMAMENT,LF,lure,-,-,-,liberal,no,m,1,0.835566444528,1,380
6,001,3,recog,6,QUOTAS,LF,target,left,yellow,pleasantness,conservative,no,z,1,0.635544374929,1,381
6,001,3,recog,7,SORRY,HF,lure,-,-,-,conservative,no,m,1,0.68262997785,3,384
6,001,3,recog,8,OTHERS,HF,lure,-,-,-,conservative,no,z,0,0.929741316419,-3,381
6,001,3,recog,9,ACACIA,LF,target,left,yellow,pleasantness,conservative,no,z,1,1.10613131632,1,382
6,001,3,recog,10,TODAY,HF,lure,-,-,-,conservative,no,m,1,0.95328026853,3,385
6,001,3,recog,11,HAUNCHES,LF,lure,-,-,-,conservative,no,m,1,0.682586351895,3,388
6,001,3,recog,12,HOSPITAL,HF,lure,-,-,-,liberal,no,m,1,0.741290389751,1,389
6,001,3,recog,13,TOPICAL,LF,lure,-,-,-,liberal,no,m,1,0.647357843543,1,390
6,001,3,recog,14,LAWFUL,LF,lure,-,-,-,liberal,no,m,1,0.635506614648,1,391
6,001,3,recog,15,FAMILY,HF,lure,-,-,-,liberal,no,z,0,0.764926492098,-1,390
6,001,3,recog,16,WHATEVER,HF,target,right,aqua,imageability,conservative,no,m,0,0.705890310419,-1,389
6,001,3,recog,17,CAPITAL,HF,target,right,aqua,imageability,conservative,no,z,1,3.61217332775,1,390
6,001,3,recog,18,HOIST,LF,lure,-,-,-,conservative,no,m,1,1.91786992427,3,393
6,001,3,recog,19,DUNGEON,LF,target,right,aqua,imageability,liberal,no,z,1,1.16476203325,3,396
6,001,3,recog,20,BLACK,HF,target,right,aqua,imageability,liberal,no,z,1,0.858890932914,3,399
6,001,3,recog,21,COPIOUSLY,LF,target,right,aqua,imageability,liberal,no,m,0,1.0473436926,-3,396
6,001,3,recog,22,GOUGED,LF,lure,-,-,-,conservative,no,z,0,0.612055647654,-3,393
6,001,3,recog,23,ITSELF,HF,lure,-,-,-,liberal,no,m,1,0.553279022075,1,394
6,001,3,recog,24,BELIEVE,HF,lure,-,-,-,conservative,no,z,0,0.906328476311,-3,391
6,001,3,recog,25,EMOTIVE,LF,target,right,aqua,imageability,liberal,no,m,0,1.03558704771,-3,388
6,001,3,recog,26,UNLESS,HF,lure,-,-,-,liberal,no,z,0,1.01199970378,-1,387
6,001,3,recog,27,GIMMICKS,LF,lure,-,-,-,conservative,no,m,1,0.906112912769,3,390
6,001,3,recog,28,THOUSAND,HF,target,left,yellow,pleasantness,conservative,no,z,1,0.811798364502,1,391
6,001,3,recog,29,BOTANIST,LF,target,right,aqua,imageability,conservative,no,z,1,0.823884586986,1,392
6,001,3,recog,30,DECIDED,HF,target,right,aqua,imageability,liberal,no,m,0,0.812079550278,-3,389
6,001,3,recog,31,RENAMED,LF,target,left,yellow,pleasantness,liberal,no,z,1,0.847305859003,3,392
6,001,3,recog,32,SCHOOL,HF,lure,-,-,-,liberal,no,m,1,0.800447917576,1,393
6,001,3,recog,33,UGLIEST,LF,target,right,aqua,imageability,conservative,no,z,1,0.882684675265,1,394
6,001,3,recog,34,SNOBBISH,LF,target,left,yellow,pleasantness,liberal,no,z,1,0.729424863275,3,397
6,001,3,recog,35,FUMING,LF,lure,-,-,-,liberal,no,m,1,0.753255632697,1,398
6,001,3,recog,36,IDIOCY,LF,target,left,yellow,pleasantness,liberal,no,z,1,0.682546025382,3,401
6,001,3,recog,37,AMULETS,LF,target,left,yellow,pleasantness,conservative,no,z,1,0.682817312832,1,402
6,001,3,recog,38,TABLE,HF,target,right,aqua,imageability,liberal,yes,z,1,0.80046954725,3,405
6,001,3,recog,39,FIGURE,HF,lure,-,-,-,conservative,no,m,1,0.788583490912,3,408
6,001,3,recog,40,LOOKED,HF,lure,-,-,-,liberal,no,z,0,1.14154092738,-1,407
6,001,3,recog,41,LIVED,HF,target,right,aqua,imageability,liberal,no,m,0,1.05908274047,-3,404
6,001,3,recog,42,OVENS,LF,lure,-,-,-,liberal,no,m,1,0.965174756777,1,405
6,001,3,recog,43,UNTIL,HF,lure,-,-,-,conservative,no,m,1,0.623855918502,3,408
6,001,3,recog,44,PHRASED,LF,target,right,aqua,imageability,liberal,no,m,0,0.835623268251,-3,405
6,001,3,recog,45,AREAS,HF,lure,-,-,-,liberal,no,m,1,1.48282933746,1,406
6,001,3,recog,46,SIGNPOST,LF,lure,-,-,-,conservative,no,m,1,0.823796235263,3,409
6,001,3,recog,47,TIMES,HF,target,right,aqua,imageability,liberal,no,z,1,0.729457857695,3,412
6,001,3,recog,48,BYPASS,LF,target,right,aqua,imageability,conservative,no,z,1,0.659081127413,1,413
6,001,3,recog,49,MEMBERS,HF,target,left,yellow,pleasantness,liberal,no,z,1,0.65886703029,3,416
6,001,3,recog,50,INVOLVED,HF,lure,-,-,-,conservative,no,m,1,0.800410523902,3,419
6,001,3,recog,51,REJOICED,LF,lure,-,-,-,liberal,no,m,1,0.92981610377,1,420
6,001,3,recog,52,ACCORDING,HF,target,left,yellow,pleasantness,conservative,no,z,1,0.68263547692,1,421
6,001,3,recog,53,ERRANT,LF,lure,-,-,-,conservative,no,m,1,0.70616966317,3,424
6,001,3,recog,54,CHAIR,HF,target,left,yellow,pleasantness,conservative,no,z,1,0.682597350034,1,425
6,001,3,recog,55,HUNDRED,HF,lure,-,-,-,conservative,no,z,0,1.36482846201,-3,422
6,001,3,recog,56,DRYER,LF,target,right,aqua,imageability,liberal,no,z,1,0.835551780343,3,425
6,001,3,recog,57,AMONG,HF,target,left,yellow,pleasantness,conservative,no,z,1,1.08243875686,1,426
6,001,3,recog,58,LEVEL,HF,lure,-,-,-,liberal,no,m,1,0.729467022811,1,427
6,001,3,recog,59,PROBABLY,HF,target,left,yellow,pleasantness,liberal,no,z,1,0.882588624843,3,430
6,001,3,recog,60,ORDER,HF,lure,-,-,-,liberal,no,m,1,0.835410270944,1,431
6,001,3,recog,61,AVAILABLE,HF,target,left,yellow,pleasantness,liberal,no,z,1,0.823833262335,3,434
6,001,3,recog,62,MASKING,LF,lure,-,-,-,liberal,no,m,1,0.835611903507,1,435
6,001,3,recog,63,USUAL,HF,target,left,yellow,pleasantness,liberal,no,z,1,1.07092297123,3,438
6,001,3,recog,64,CLUBBED,LF,target,right,aqua,imageability,conservative,no,z,1,0.717975066484,1,439
6,001,3,recog,65,VEHEMENCE,LF,target,left,yellow,pleasantness,liberal,no,z,1,0.764928325121,3,442
6,001,3,recog,66,ALREADY,HF,target,right,aqua,imageability,conservative,no,z,1,0.894334271596,1,443
6,001,3,recog,67,SOYBEAN,LF,target,right,aqua,imageability,liberal,no,z,1,0.659085160063,3,446
6,001,3,recog,68,NEITHER,HF,lure,-,-,-,conservative,no,z,0,0.741440331059,-3,443
6,001,3,recog,69,WONDROUS,LF,lure,-,-,-,conservative,no,m,1,0.905952339926,3,446
6,001,3,recog,70,TYRANTS,LF,lure,-,-,-,conservative,no,m,1,0.800433253389,3,449
6,001,3,recog,71,AFFABLE,LF,lure,-,-,-,conservative,no,m,1,0.741211936354,3,452
6,001,3,recog,72,CLASS,HF,lure,-,-,-,liberal,no,m,1,0.918033063341,1,453
6,001,3,recog,73,EMULATION,LF,target,right,aqua,imageability,conservative,no,z,1,0.706126770425,1,454
6,001,3,recog,74,SAINTLY,LF,lure,-,-,-,liberal,yes,m,1,1.1768849162,1,455
6,001,3,recog,75,UNABATED,LF,target,left,yellow,pleasantness,conservative,no,m,0,1.17676650289,-1,454
6,001,3,recog,76,REEDY,LF,target,left,yellow,pleasantness,liberal,no,z,1,0.68245620724,3,457
6,001,3,recog,77,PERHAPS,HF,target,left,yellow,pleasantness,liberal,no,z,1,0.647304685868,3,460
6,001,3,recog,78,BESOTTED,LF,target,left,yellow,pleasantness,conservative,no,z,1,0.682674337015,1,461
6,001,3,recog,79,RAPACIOUS,LF,target,right,aqua,imageability,conservative,no,z,1,0.694146130085,1,462
6,001,3,recog,80,MYSELF,HF,lure,-,-,-,conservative,no,m,1,0.741514018597,3,465
6,001,3,recog,81,ENVIRONS,LF,lure,-,-,-,liberal,yes,m,1,0.70619789173,1,466
6,001,3,recog,82,EVOCATION,LF,lure,-,-,-,liberal,no,m,1,0.85907936771,1,467
6,001,3,recog,83,EXPECT,HF,target,left,yellow,pleasantness,conservative,no,z,1,0.718003295042,1,468
6,001,3,recog,84,MATERIAL,HF,lure,-,-,-,conservative,no,m,1,0.929817936794,3,471
6,001,3,recog,85,GENERAL,HF,target,right,aqua,imageability,liberal,no,z,1,0.800513906415,3,474
6,001,3,recog,86,FURTHER,HF,target,left,yellow,pleasantness,liberal,no,z,1,0.871094835493,3,477
6,001,3,recog,87,ALLOWED,HF,lure,-,-,-,liberal,no,z,0,0.753412539492,-1,476
6,001,3,recog,88,YEOMAN,LF,lure,-,-,-,conservative,no,m,1,0.812013561441,3,479
6,001,3,recog,89,TOOTHACHE,LF,target,left,yellow,pleasantness,conservative,no,z,1,0.718159102025,1,480
6,001,3,recog,90,FULCRUM,LF,target,left,yellow,pleasantness,liberal,no,z,1,0.717976532902,3,483
6,001,3,recog,91,SPRATS,LF,lure,-,-,-,conservative,no,m,1,0.729899616312,3,486
6,001,3,recog,92,IMPORTANT,HF,target,left,yellow,pleasantness,conservative,no,m,0,1.12980737858,-1,485
6,001,3,recog,93,CLOSE,HF,lure,-,-,-,liberal,no,z,0,0.647391204568,-1,484
6,001,3,recog,94,DEDICATE,LF,lure,-,-,-,liberal,yes,m,1,1.1294635034,1,485
6,001,3,recog,95,USING,HF,target,right,aqua,imageability,conservative,no,z,1,1.17680572959,1,486
6,001,4,source,0,WRONG,HF,target,right,aqua,imageability,conservative,no,2,0,1.54142486034,-,-
6,001,4,source,1,BOOKS,HF,target,left,yellow,pleasantness,conservative,no,2,1,0.96471906718,-,-
6,001,4,source,2,UNHEEDED,LF,target,left,yellow,pleasantness,conservative,no,8,0,1.02384066775,-,-
6,001,4,source,3,DOTTY,LF,target,left,yellow,pleasantness,liberal,no,2,1,0.741472958875,-,-
6,001,4,source,4,MAMMAL,LF,target,left,yellow,pleasantness,liberal,no,8,0,1.23555266019,-,-
6,001,4,source,5,SEVEN,HF,target,left,yellow,pleasantness,liberal,no,1,1,0.906037392208,-,-
6,001,4,source,6,IRRIGATED,LF,target,left,yellow,pleasantness,conservative,no,1,1,0.988530773162,-,-
6,001,4,source,7,SERIOUS,HF,target,right,aqua,imageability,liberal,no,8,1,1.23562231508,-,-
6,001,4,source,8,CENTRAL,HF,target,right,aqua,imageability,liberal,no,8,1,1.09435487478,-,-
6,001,4,source,9,PLACE,HF,target,right,aqua,imageability,conservative,no,8,1,0.800393660085,-,-
6,001,4,source,10,BIDDER,LF,target,right,aqua,imageability,liberal,no,8,1,0.847298893514,-,-
6,001,4,source,11,SPOKE,HF,target,right,aqua,imageability,conservative,no,8,1,0.776601017547,-,-
6,001,4,source,12,REUNITED,LF,target,right,aqua,imageability,conservative,no,8,1,0.612207055381,-,-
6,001,4,source,13,SALAMI,LF,target,left,yellow,pleasantness,liberal,no,2,1,1.00025552345,-,-
6,001,4,source,14,REFECTORY,LF,target,right,aqua,imageability,liberal,no,2,0,0.835330717731,-,-
6,001,4,source,15,AUSPICES,LF,target,left,yellow,pleasantness,liberal,yes,2,1,0.800051251332,-,-
6,001,4,source,16,OUGHT,HF,target,right,aqua,imageability,conservative,no,8,1,0.741207170493,-,-
6,001,4,source,17,ZOOLOGY,LF,target,right,aqua,imageability,liberal,yes,8,1,0.623816325198,-,-
6,001,4,source,18,LODGERS,LF,target,right,aqua,imageability,conservative,no,2,0,0.753211640138,-,-
6,001,4,source,19,TRIED,HF,target,left,yellow,pleasantness,liberal,no,8,0,0.882586425216,-,-
6,001,4,source,20,VOICE,HF,target,right,aqua,imageability,conservative,no,7,1,0.388472996267,-,-
6,001,4,source,21,OFTEN,HF,target,left,yellow,pleasantness,conservative,no,3,1,0.0709391018336,-,-
6,001,4,source,22,SAYING,HF,target,left,yellow,pleasantness,liberal,no,7,0,1.29444256661,-,-
6,001,4,source,23,HEALTH,HF,target,left,yellow,pleasantness,conservative,no,2,1,0.941733321504,-,-
6,001,4,source,24,BETTER,HF,target,right,aqua,imageability,liberal,no,2,0,0.929664696045,-,-
6,001,4,source,25,MAPPED,LF,target,left,yellow,pleasantness,liberal,yes,7,0,4.50612119803,-,-
6,001,4,source,26,PIECE,HF,target,left,yellow,pleasantness,conservative,no,7,0,0.765050404476,-,-
6,001,4,source,27,TOTAL,HF,target,right,aqua,imageability,liberal,yes,7,1,0.917943611803,-,-
6,001,4,source,28,RINSING,LF,target,left,yellow,pleasantness,conservative,no,2,1,0.941251969583,-,-
6,001,4,source,29,SLUGS,LF,target,right,aqua,imageability,conservative,no,9,1,1.90624195761,-,-
6,001,4,source,30,CHOICE,HF,target,left,yellow,pleasantness,conservative,no,8,0,1.09434754269,-,-
6,001,4,source,31,PUCKERED,LF,target,right,aqua,imageability,liberal,no,9,1,1.21216621562,-,-
6,001,4,source,32,LEARN,HF,target,left,yellow,pleasantness,liberal,no,1,1,2.45918626963,-,-
6,001,4,source,33,RICKETS,LF,target,right,aqua,imageability,conservative,no,2,0,1.00048428476,-,-
6,001,4,source,34,TUCKER,LF,target,left,yellow,pleasantness,conservative,no,1,1,0.917722915798,-,-
6,001,4,source,35,FIVER,LF,target,left,yellow,pleasantness,conservative,no,3,1,1.55319067035,-,-
6,001,4,source,36,INSIDE,HF,target,right,aqua,imageability,conservative,no,9,1,1.60031659979,-,-
6,001,4,source,37,CAFETERIA,LF,target,right,aqua,imageability,liberal,no,8,1,1.3179793191,-,-
6,001,4,source,38,HUSBAND,HF,target,left,yellow,pleasantness,liberal,no,1,1,1.02379374235,-,-
6,001,4,source,39,MEETING,HF,target,right,aqua,imageability,liberal,no,8,1,1.16474223659,-,-
6,001,4,source,40,SITTING,HF,target,left,yellow,pleasantness,conservative,no,2,1,1.54147068592,-,-
6,001,4,source,41,DIVAN,LF,target,right,aqua,imageability,conservative,no,3,0,1.17685962047,-,-
6,001,4,source,42,CAVERN,LF,target,right,aqua,imageability,liberal,no,9,1,1.03560867739,-,-
6,001,4,source,43,INHABITS,LF,target,left,yellow,pleasantness,liberal,no,1,1,1.05916632633,-,-
6,001,4,source,44,TRUTH,HF,target,left,yellow,pleasantness,liberal,no,1,1,1.37699497092,-,-
6,001,4,source,45,UNEARTHED,LF,target,right,aqua,imageability,conservative,no,1,0,1.57677874749,-,-
6,001,4,source,46,INROADS,LF,target,left,yellow,pleasantness,conservative,no,1,1,0.941248303538,-,-
6,001,4,source,47,LARGE,HF,target,right,aqua,imageability,liberal,no,9,1,1.32967107497,-,-
6,001,4,recog,0,AUSPICES,LF,target,left,yellow,pleasantness,liberal,no,z,1,2.9297794433,3,489
6,001,4,recog,1,TUCKER,LF,target,left,yellow,pleasantness,conservative,no,z,1,0.859092932082,1,490
6,001,4,recog,2,HUSBAND,HF,target,left,yellow,pleasantness,liberal,no,z,1,0.62375583543,3,493
6,001,4,recog,3,WASHBASIN,LF,lure,-,-,-,conservative,no,m,1,0.870812183299,3,496
6,001,4,recog,4,REOPEN,LF,lure,-,-,-,liberal,no,m,1,1.09447695413,1,497
6,001,4,recog,5,FRONT,HF,lure,-,-,-,conservative,no,m,1,1.45913311195,3,500
6,001,4,recog,6,DIVAN,LF,target,right,aqua,imageability,conservative,no,z,1,0.859075701663,1,501
6,001,4,recog,7,SEVEN,HF,target,left,yellow,pleasantness,liberal,no,z,1,0.706305306896,3,504
6,001,4,recog,8,RANGE,HF,lure,-,-,-,conservative,no,m,1,1.52946621628,3,507
6,001,4,recog,9,SYSTEM,HF,lure,-,-,-,liberal,no,m,1,0.75331648907,1,508
6,001,4,recog,10,WHETHER,HF,lure,-,-,-,liberal,no,m,1,1.36496483895,1,509
6,001,4,recog,11,DIFFERENT,HF,lure,-,-,-,liberal,no,m,1,0.847338120213,1,510
6,001,4,recog,12,REUNITED,LF,target,right,aqua,imageability,conservative,no,m,0,1.02383480207,-1,509
6,001,4,recog,13,SPOKE,HF,target,right,aqua,imageability,conservative,no,m,0,1.09444542613,-1,508
6,001,4,recog,14,TIDILY,LF,lure,-,-,-,liberal,no,z,0,0.764950688006,-1,507
6,001,4,recog,15,UNHEEDED,LF,target,left,yellow,pleasantness,conservative,no,z,1,0.988690612794,1,508
6,001,4,recog,16,OFTEN,HF,target,left,yellow,pleasantness,conservative,no,z,1,0.847149685416,1,509
6,001,4,recog,17,BOOKS,HF,target,left,yellow,pleasantness,conservative,no,z,1,0.823886053406,1,510
6,001,4,recog,18,REFECTORY,LF,target,right,aqua,imageability,liberal,no,z,1,0.647276090704,3,513
6,001,4,recog,19,TRYING,HF,lure,-,-,-,conservative,no,z,0,0.694329432416,-3,510
6,001,4,recog,20,EJECTED,LF,lure,-,-,-,liberal,no,m,1,0.976694941661,1,511
6,001,4,recog,21,INHABITS,LF,target,left,yellow,pleasantness,liberal,no,z,1,0.953256805833,3,514
6,001,4,recog,22,PUBLIC,HF,lure,-,-,-,liberal,no,m,1,0.859018511335,1,515
6,001,4,recog,23,MEETING,HF,target,right,aqua,imageability,liberal,no,z,1,0.741419801197,3,518
6,001,4,recog,24,HIMSELF,HF,lure,-,-,-,conservative,no,m,1,1.36499563374,3,521
6,001,4,recog,25,SOFTENING,LF,lure,-,-,-,conservative,no,z,0,0.729458224299,-3,518
6,001,4,recog,26,ALERTING,LF,lure,-,-,-,conservative,no,m,1,0.505973456357,3,521
6,001,4,recog,27,UNEARTHED,LF,target,right,aqua,imageability,conservative,no,z,1,0.776852874949,1,522
6,001,4,recog,28,BETTER,HF,target,right,aqua,imageability,liberal,no,z,1,0.753283861257,3,525
6,001,4,recog,29,PLACE,HF,target,right,aqua,imageability,conservative,no,z,1,0.670882864677,1,526
6,001,4,recog,30,TRIED,HF,target,left,yellow,pleasantness,liberal,no,z,1,0.600292403878,3,529
6,001,4,recog,31,CYANIDE,LF,lure,-,-,-,conservative,no,m,1,1.02389015938,3,532
6,001,4,recog,32,ELATION,LF,lure,-,-,-,liberal,no,m,1,0.741455361849,1,533
6,001,4,recog,33,UPSTART,LF,lure,-,-,-,conservative,no,z,0,0.611996990909,-3,530
6,001,4,recog,34,SWEARS,LF,lure,-,-,-,liberal,no,m,1,0.435615056307,1,531
6,001,4,recog,35,FIVER,LF,target,left,yellow,pleasantness,conservative,yes,z,1,0.741512552178,1,532
6,001,4,recog,36,TALKING,HF,lure,-,-,-,conservative,yes,z,0,0.565167644645,-3,529
6,001,4,recog,37,MAPPED,LF,target,left,yellow,pleasantness,liberal,no,m,0,0.376829632216,-3,526
6,001,4,recog,38,LEARN,HF,target,left,yellow,pleasantness,liberal,no,z,1,0.317969054167,3,529
6,001,4,recog,39,ZOOLOGY,LF,target,right,aqua,imageability,liberal,no,m,0,0.741406603429,-3,526
6,001,4,recog,40,SEDAN,LF,lure,-,-,-,liberal,no,m,1,0.741404037197,1,527
6,001,4,recog,41,STRAIGHT,HF,lure,-,-,-,liberal,no,z,0,0.694206619854,-1,526
6,001,4,recog,42,CAVERN,LF,target,right,aqua,imageability,liberal,no,m,0,0.42386354388,-3,523
6,001,4,recog,43,HANDS,HF,lure,-,-,-,liberal,no,m,1,0.811814861714,1,524
6,001,4,recog,44,KOSHER,LF,lure,-,-,-,conservative,no,m,1,0.694435381161,3,527
6,001,4,recog,45,NUMBER,HF,lure,-,-,-,conservative,no,m,1,1.12967246806,3,530
6,001,4,recog,46,WRONG,HF,target,right,aqua,imageability,conservative,no,z,1,0.976694941663,1,531
6,001,4,recog,47,ENTIRELY,HF,lure,-,-,-,conservative,no,m,1,0.765138022989,3,534
6,001,4,recog,48,PHYSICAL,HF,lure,-,-,-,liberal,no,m,1,0.764951054611,1,535
6,001,4,recog,49,LOCAL,HF,lure,-,-,-,liberal,no,m,1,1.14150719975,1,536
6,001,4,recog,50,TRUTH,HF,target,left,yellow,pleasantness,liberal,no,z,1,0.682430178309,3,539
6,001,4,recog,51,DOCTOR,HF,lure,-,-,-,conservative,no,m,1,0.69442804907,3,542
6,001,4,recog,52,BUGGED,LF,lure,-,-,-,liberal,no,z,0,0.812162769536,-1,541
6,001,4,recog,53,CENTRAL,HF,target,right,aqua,imageability,liberal,no,z,1,0.659062063969,3,544
6,001,4,recog,54,RECENT,HF,lure,-,-,-,conservative,no,z,0,0.906182934259,-3,541
6,001,4,recog,55,LODGERS,LF,target,right,aqua,imageability,conservative,yes,m,0,0.882764228478,-1,540
6,001,4,recog,56,RICKETS,LF,target,right,aqua,imageability,conservative,no,m,0,0.67090889361,-1,539
6,001,4,recog,57,DYNAMISM,LF,lure,-,-,-,liberal,no,m,1,0.952963155498,1,540
6,001,4,recog,58,SERIOUS,HF,target,right,aqua,imageability,liberal,no,z,1,0.577004942565,3,543
6,001,4,recog,59,RIVER,HF,lure,-,-,-,liberal,no,m,1,0.847362682724,1,544
6,001,4,recog,60,CHOICE,HF,target,left,yellow,pleasantness,conservative,no,z,1,0.565062062502,1,545
6,001,4,recog,61,SITTING,HF,target,left,yellow,pleasantness,conservative,no,z,1,0.61212053668,1,546
6,001,4,recog,62,INROADS,LF,target,left,yellow,pleasantness,conservative,no,z,1,0.600213217271,1,547
6,001,4,recog,63,EXCEPT,HF,lure,-,-,-,conservative,no,z,0,0.729651058351,-3,544
6,001,4,recog,64,EMIGRATED,LF,lure,-,-,-,conservative,no,z,0,0.670883964491,-3,541
6,001,4,recog,65,VOICE,HF,target,right,aqua,imageability,conservative,no,z,1,0.812060120232,1,542
6,001,4,recog,66,SALAMI,LF,target,left,yellow,pleasantness,liberal,no,z,1,0.8000959771,3,545
6,001,4,recog,67,UNSAVOURY,LF,lure,-,-,-,liberal,no,m,1,0.953309230299,1,546
6,001,4,recog,68,TOTAL,HF,target,right,aqua,imageability,liberal,yes,m,0,0.729779369982,-3,543
6,001,4,recog,69,OUGHT,HF,target,right,aqua,imageability,conservative,no,m,0,0.917988337571,-1,542
6,001,4,recog,70,SAVOURED,LF,lure,-,-,-,conservative,no,z,0,0.364901049736,-3,539
6,001,4,recog,71,CAFETERIA,LF,target,right,aqua,imageability,liberal,no,z,1,0.847321989608,3,542
6,001,4,recog,72,RINSING,LF,target,left,yellow,pleasantness,conservative,no,m,0,0.847338120213,-1,541
6,001,4,recog,73,TIERS,LF,lure,-,-,-,conservative,no,z,0,1.78856955994,-3,538
6,001,4,recog,74,EPIDEMICS,LF,lure,-,-,-,conservative,no,m,1,0.847383579192,3,541
6,001,4,recog,75,PUCKERED,LF,target,right,aqua,imageability,liberal,no,z,1,0.812050955115,3,544
6,001,4,recog,76,POINT,HF,lure,-,-,-,conservative,no,m,1,0.76487003498,3,547
6,001,4,recog,77,SLUGS,LF,target,right,aqua,imageability,conservative,no,z,1,0.8588348424,1,548
6,001,4,recog,78,MAMMAL,LF,target,left,yellow,pleasantness,liberal,no,z,1,0.706257648289,3,551
6,001,4,recog,79,BIDDER,LF,target,right,aqua,imageability,liberal,no,z,1,0.72964629249,3,554
6,001,4,recog,80,HYSTERICS,LF,lure,-,-,-,liberal,no,m,1,0.871002817725,1,555
6,001,4,recog,81,IRRIGATED,LF,target,left,yellow,pleasantness,conservative,no,z,1,0.623753635802,1,556
6,001,4,recog,82,PIECE,HF,target,left,yellow,pleasantness,conservative,no,z,1,0.765047838242,1,557
6,001,4,recog,83,BEHIND,HF,lure,-,-,-,conservative,no,m,1,0.847337020399,3,560
6,001,4,recog,84,CUSTODIAN,LF,lure,-,-,-,conservative,no,m,1,1.09440326659,3,563
6,001,4,recog,85,HEALTH,HF,target,left,yellow,pleasantness,conservative,no,z,1,0.647263626146,1,564
6,001,4,recog,86,CALLED,HF,lure,-,-,-,liberal,no,m,1,0.764989548101,1,565
6,001,4,recog,87,YOUNG,HF,lure,-,-,-,liberal,no,m,1,0.776825012998,1,566
6,001,4,recog,88,DOTTY,LF,target,left,yellow,pleasantness,liberal,no,z,1,0.718054619696,3,569
6,001,4,recog,89,SAYING,HF,target,left,yellow,pleasantness,liberal,no,m,0,0.647090588745,-3,566
6,001,4,recog,90,WEEKS,HF,lure,-,-,-,liberal,no,z,0,0.376771708679,-1,565
6,001,4,recog,91,ONCOMING,LF,lure,-,-,-,conservative,no,m,1,0.482594343877,3,568
6,001,4,recog,92,DUMMIES,LF,lure,-,-,-,liberal,no,z,0,0.635367304878,-1,567
6,001,4,recog,93,INSIDE,HF,target,right,aqua,imageability,conservative,no,m,0,0.435549067468,-1,566
6,001,4,recog,94,DONATE,LF,lure,-,-,-,liberal,no,z,0,0.659113755226,-1,565
6,001,4,recog,95,LARGE,HF,target,right,aqua,imageability,liberal,no,z,1,1.77687707086,3,568
