subj,session,cycle,task,trial,item,wf,type,source,colour,encoding,bias,null,response,corr,rt,points,total
7,001,0,source,0,PIRACY,LF,target,right,yellow,pleasantness,conservative,yes,2,0,5.07812109345,-,-
7,001,0,source,1,SUMMER,HF,target,left,aqua,imageability,conservative,no,1,1,2.2260742879,-,-
7,001,0,source,2,FIGURE,HF,target,left,aqua,imageability,liberal,no,2,1,1.22659780318,-,-
7,001,0,source,3,DOING,HF,target,left,aqua,imageability,conservative,no,7,0,2.33260121848,-,-
7,001,0,source,4,DEVELOPED,HF,target,right,yellow,pleasantness,conservative,no,7,1,0.813326103846,-,-
7,001,0,source,5,FREEDOM,HF,target,right,yellow,pleasantness,conservative,no,8,1,1.9726848196,-,-
7,001,0,source,6,BOWER,LF,target,right,yellow,pleasantness,liberal,no,2,0,1.75961006177,-,-
7,001,0,source,7,BEAUTIFUL,HF,target,right,yellow,pleasantness,liberal,yes,2,0,0.959721217165,-,-
7,001,0,source,8,TODAY,HF,target,right,yellow,pleasantness,conservative,no,8,1,1.26651144505,-,-
7,001,0,source,9,DRINK,HF,target,right,yellow,pleasantness,conservative,no,8,1,1.91942630347,-,-
7,001,0,source,10,TELEPHONE,HF,target,right,yellow,pleasantness,liberal,no,8,1,0.706624668208,-,-
7,001,0,source,11,ABOVE,HF,target,left,aqua,imageability,conservative,no,2,1,1.42634711706,-,-
7,001,0,source,12,AVAILABLE,HF,target,right,yellow,pleasantness,liberal,yes,2,0,6.74432656798,-,-
7,001,0,source,13,JEERED,LF,target,left,aqua,imageability,conservative,no,8,0,1.50614067318,-,-
7,001,0,source,14,SECOND,HF,target,right,yellow,pleasantness,conservative,no,8,1,0.840022451128,-,-
7,001,0,source,15,LAUNCHER,LF,target,left,aqua,imageability,liberal,no,2,1,1.18648875935,-,-
7,001,0,source,16,ANYONE,HF,target,right,yellow,pleasantness,conservative,no,2,0,0.693302157102,-,-
7,001,0,source,17,HARDLY,HF,target,left,aqua,imageability,liberal,no,2,1,0.666660067742,-,-
7,001,0,source,18,DAYBREAK,LF,target,right,yellow,pleasantness,conservative,no,8,1,2.89249532751,-,-
7,001,0,source,19,DOODLE,LF,target,right,yellow,pleasantness,conservative,no,9,1,0.839975891868,-,-
7,001,0,source,20,FOUND,HF,target,left,aqua,imageability,liberal,no,8,0,2.22611021542,-,-
7,001,0,source,21,HOTEL,HF,target,left,aqua,imageability,conservative,no,3,1,1.7862719479,-,-
7,001,0,source,22,RODENTS,LF,target,left,aqua,imageability,conservative,no,2,1,1.38637518452,-,-
7,001,0,source,23,LASER,LF,target,left,aqua,imageability,conservative,no,3,1,1.19960963645,-,-
7,001,0,source,24,IDIOCY,LF,target,right,yellow,pleasantness,liberal,no,8,1,1.11997518805,-,-
7,001,0,source,25,IDLING,LF,target,right,yellow,pleasantness,conservative,no,8,1,0.866451541428,-,-
7,001,0,source,26,REREAD,LF,target,right,yellow,pleasantness,conservative,yes,8,1,1.01319859782,-,-
7,001,0,source,27,FUDGE,LF,target,right,yellow,pleasantness,liberal,no,9,1,0.959809936117,-,-
7,001,0,source,28,BAFFLING,LF,target,left,aqua,imageability,conservative,no,9,0,0.946422535577,-,-
7,001,0,source,29,BLUECOATS,LF,target,left,aqua,imageability,liberal,no,3,1,1.25308958348,-,-
7,001,0,source,30,EASILY,HF,target,left,aqua,imageability,liberal,no,2,1,5.79811813112,-,-
7,001,0,source,31,SACRAMENT,LF,target,left,aqua,imageability,liberal,no,3,1,0.893299297546,-,-
7,001,0,source,32,LINEAGE,LF,target,left,aqua,imageability,liberal,no,3,1,1.01323562523,-,-
7,001,0,source,33,NEPHEWS,LF,target,left,aqua,imageability,liberal,no,2,1,1.74632971059,-,-
7,001,0,source,34,VACATED,LF,target,left,aqua,imageability,liberal,no,8,0,1.82603014831,-,-
7,001,0,source,35,PATCHY,LF,target,left,aqua,imageability,conservative,no,2,1,0.759975202614,-,-
7,001,0,source,36,FRACTIONS,LF,target,right,yellow,pleasantness,conservative,no,1,0,2.43933858164,-,-
7,001,0,source,37,EARLIER,HF,target,left,aqua,imageability,conservative,no,2,1,1.70613084803,-,-
7,001,0,source,38,NIGHT,HF,target,left,aqua,imageability,liberal,no,2,1,2.90560887253,-,-
7,001,0,source,39,FURTHER,HF,target,right,yellow,pleasantness,liberal,no,8,1,0.799903142266,-,-
7,001,0,source,40,CHLORIDE,LF,target,right,yellow,pleasantness,liberal,no,9,1,0.719790271251,-,-
7,001,0,source,41,FEELING,HF,target,right,yellow,pleasantness,liberal,no,8,1,1.89300747798,-,-
7,001,0,source,42,FULCRUM,LF,target,left,aqua,imageability,conservative,no,3,1,1.17318017944,-,-
7,001,0,source,43,SAMENESS,LF,target,right,yellow,pleasantness,liberal,no,8,1,1.13320714713,-,-
7,001,0,source,44,DECIDED,HF,target,right,yellow,pleasantness,liberal,no,3,0,0.866616148152,-,-
7,001,0,source,45,FLOOR,HF,target,left,aqua,imageability,conservative,no,2,1,0.666745487251,-,-
7,001,0,source,46,BROUGHT,HF,target,left,aqua,imageability,liberal,no,3,1,0.639905063319,-,-
7,001,0,source,47,BATCHES,LF,target,right,yellow,pleasantness,liberal,no,2,0,0.560191427707,-,-
7,001,0,recog,0,EQUALLED,LF,lure,-,-,-,liberal,yes,None,-1,-1,-1,-1
7,001,0,recog,1,DONATE,LF,lure,-,-,-,conservative,no,z,0,2.29273450223,-3,-4
7,001,0,recog,2,EARLIER,HF,target,left,aqua,imageability,conservative,no,m,0,3.38570869237,-1,-5
7,001,0,recog,3,SACRAMENT,LF,target,left,aqua,imageability,liberal,no,z,1,2.81261488562,3,-2
7,001,0,recog,4,LINEAGE,LF,target,left,aqua,imageability,liberal,no,z,1,1.29289654258,3,1
7,001,0,recog,5,BASIC,HF,lure,-,-,-,conservative,no,z,0,1.95930108509,-3,-2
7,001,0,recog,6,DOODLE,LF,target,right,yellow,pleasantness,conservative,no,z,1,3.4789769015,1,-1
7,001,0,recog,7,REREAD,LF,target,right,yellow,pleasantness,conservative,no,z,1,1.39973655599,1,0
7,001,0,recog,8,CANNOT,HF,lure,-,-,-,liberal,no,m,1,1.19983363361,1,1
7,001,0,recog,9,HARDLY,HF,target,left,aqua,imageability,liberal,no,z,1,0.946584576042,3,4
7,001,0,recog,10,EMULATION,LF,lure,-,-,-,conservative,no,m,1,1.3996929297,3,7
7,001,0,recog,11,ABOVE,HF,target,left,aqua,imageability,conservative,no,z,1,2.59939055203,1,8
7,001,0,recog,12,TERMS,HF,lure,-,-,-,conservative,no,None,-1,-1,-3,5
7,001,0,recog,13,IDIOCY,LF,target,right,yellow,pleasantness,liberal,no,z,1,4.13195591618,3,8
7,001,0,recog,14,BLUECOATS,LF,target,left,aqua,imageability,liberal,no,z,1,2.27943655383,3,11
7,001,0,recog,15,PUMPKIN,LF,lure,-,-,-,liberal,no,m,1,7.61043606477,1,12
7,001,0,recog,16,FUDGE,LF,target,right,yellow,pleasantness,liberal,yes,m,0,2.65259004419,-3,9
7,001,0,recog,17,NIGHT,HF,target,left,aqua,imageability,liberal,no,z,1,6.25119312364,3,12
7,001,0,recog,18,CONCERNED,HF,lure,-,-,-,liberal,no,m,1,1.37307723612,1,13
7,001,0,recog,19,FEELING,HF,target,right,yellow,pleasantness,liberal,no,z,1,3.65231582196,3,16
7,001,0,recog,20,OTHERS,HF,lure,-,-,-,liberal,no,m,1,1.23985395837,1,17
7,001,0,recog,21,BATCHES,LF,target,right,yellow,pleasantness,liberal,no,z,1,0.800014590961,3,20
7,001,0,recog,22,BAFFLING,LF,target,left,aqua,imageability,conservative,no,m,0,1.2531431081,-1,19
7,001,0,recog,23,DOING,HF,target,left,aqua,imageability,conservative,no,z,1,0.666759051732,1,20
7,001,0,recog,24,TELEPHONE,HF,target,right,yellow,pleasantness,liberal,no,None,-1,-1,-3,17
7,001,0,recog,25,TIDILY,LF,lure,-,-,-,conservative,no,m,1,1.42648716096,3,20
7,001,0,recog,26,TOGETHER,HF,lure,-,-,-,liberal,no,m,1,1.09315456089,1,21
7,001,0,recog,27,PIRACY,LF,target,right,yellow,pleasantness,conservative,no,z,1,1.39970099507,1,22
7,001,0,recog,28,FARAWAY,LF,lure,-,-,-,conservative,no,z,0,1.01323379215,-3,19
7,001,0,recog,29,HIGHER,HF,lure,-,-,-,liberal,no,z,0,2.732618229,-1,18
7,001,0,recog,30,AFRAID,HF,lure,-,-,-,conservative,no,z,0,1.26652757579,-3,15
7,001,0,recog,31,LAUNCHER,LF,target,left,aqua,imageability,liberal,no,z,1,6.22448027914,3,18
7,001,0,recog,32,FULCRUM,LF,target,left,aqua,imageability,conservative,no,z,1,1.10660428472,1,19
7,001,0,recog,33,BORAX,LF,lure,-,-,-,conservative,no,m,1,1.35982694663,3,22
7,001,0,recog,34,AWAITS,LF,lure,-,-,-,conservative,no,m,1,1.71966489148,3,25
7,001,0,recog,35,TODAY,HF,target,right,yellow,pleasantness,conservative,no,z,1,1.30651453929,1,26
7,001,0,recog,36,FRONT,HF,lure,-,-,-,liberal,no,m,1,2.07950027019,1,27
7,001,0,recog,37,ANYONE,HF,target,right,yellow,pleasantness,conservative,no,z,1,1.03985681781,1,28
7,001,0,recog,38,JEERED,LF,target,left,aqua,imageability,conservative,no,z,1,0.853288871236,1,29
7,001,0,recog,39,PAPER,HF,lure,-,-,-,liberal,no,m,1,0.866663807188,1,30
7,001,0,recog,40,BECAME,HF,lure,-,-,-,conservative,no,m,1,1.65274511918,3,33
7,001,0,recog,41,HOTEL,HF,target,left,aqua,imageability,conservative,no,z,1,0.973217500024,1,34
7,001,0,recog,42,DRINK,HF,target,right,yellow,pleasantness,conservative,no,z,1,1.06651907053,1,35
7,001,0,recog,43,SAPLINGS,LF,lure,-,-,-,liberal,no,m,1,1.21322103415,1,36
7,001,0,recog,44,BEHIND,HF,lure,-,-,-,liberal,no,m,1,4.18533211329,1,37
7,001,0,recog,45,COFFINS,LF,lure,-,-,-,conservative,no,z,0,1.02657133411,-3,34
7,001,0,recog,46,IDLING,LF,target,right,yellow,pleasantness,conservative,no,m,0,1.98596040497,-1,33
7,001,0,recog,47,FIGURE,HF,target,left,aqua,imageability,liberal,no,z,1,3.3323229634,3,36
7,001,0,recog,48,SAMENESS,LF,target,right,yellow,pleasantness,liberal,no,z,1,1.18649279221,3,39
7,001,0,recog,49,BROUGHT,HF,target,left,aqua,imageability,liberal,no,z,1,2.27934746828,3,42
7,001,0,recog,50,PELTED,LF,lure,-,-,-,liberal,no,m,1,0.959918085253,1,43
7,001,0,recog,51,KOSHER,LF,lure,-,-,-,liberal,no,m,1,1.11994219339,1,44
7,001,0,recog,52,NEPHEWS,LF,target,left,aqua,imageability,liberal,no,z,1,1.05322882091,3,47
7,001,0,recog,53,EASILY,HF,target,left,aqua,imageability,liberal,no,m,0,2.26604328747,-3,44
7,001,0,recog,54,PATCHY,LF,target,left,aqua,imageability,conservative,no,z,1,1.1064965023,1,45
7,001,0,recog,55,FOUND,HF,target,left,aqua,imageability,liberal,no,z,1,2.54596083029,3,48
7,001,0,recog,56,AGELESS,LF,lure,-,-,-,conservative,no,m,1,4.05212459958,3,51
7,001,0,recog,57,RANGE,HF,lure,-,-,-,conservative,no,m,1,2.49264768965,3,54
7,001,0,recog,58,HOODLUMS,LF,lure,-,-,-,liberal,no,z,0,1.799656049,-1,53
7,001,0,recog,59,WAITING,HF,lure,-,-,-,conservative,no,z,0,3.38565773389,-3,50
7,001,0,recog,60,CHLORIDE,LF,target,right,yellow,pleasantness,liberal,no,z,1,1.8395139667,3,53
7,001,0,recog,61,FURTHER,HF,target,right,yellow,pleasantness,liberal,no,z,1,0.973234363948,3,56
7,001,0,recog,62,FREEDOM,HF,target,right,yellow,pleasantness,conservative,no,z,1,1.49299743306,1,57
7,001,0,recog,63,BUTCHERED,LF,lure,-,-,-,liberal,no,m,1,0.946374509949,1,58
7,001,0,recog,64,FRACTIONS,LF,target,right,yellow,pleasantness,conservative,no,z,1,2.45272928174,1,59
7,001,0,recog,65,SUMMER,HF,target,left,aqua,imageability,conservative,no,z,1,4.57165010704,1,60
7,001,0,recog,66,DAYBREAK,LF,target,right,yellow,pleasantness,conservative,no,z,1,0.853351194412,1,61
7,001,0,recog,67,SUBJECT,HF,lure,-,-,-,conservative,no,z,0,0.986386769335,-3,58
7,001,0,recog,68,SECOND,HF,target,right,yellow,pleasantness,conservative,no,m,0,0.813293842366,-1,57
7,001,0,recog,69,BOWER,LF,target,right,yellow,pleasantness,liberal,no,z,1,2.61243700772,3,60
7,001,0,recog,70,TREES,HF,lure,-,-,-,liberal,no,m,1,3.47893400851,1,61
7,001,0,recog,71,PSALMS,LF,lure,-,-,-,conservative,no,m,1,2.45279747073,3,64
7,001,0,recog,72,SPOKE,HF,lure,-,-,-,conservative,no,m,1,1.95953901333,3,67
7,001,0,recog,73,FLOOR,HF,target,left,aqua,imageability,conservative,no,m,0,2.17279194226,-1,66
7,001,0,recog,74,AVAILABLE,HF,target,right,yellow,pleasantness,liberal,no,z,1,0.613432713202,3,69
7,001,0,recog,75,PAMPERED,LF,lure,-,-,-,liberal,no,m,1,1.09329130547,1,70
7,001,0,recog,76,RUGGER,LF,lure,-,-,-,conservative,no,m,1,3.1457135902,3,73
7,001,0,recog,77,WOODCOCK,LF,lure,-,-,-,liberal,no,m,1,1.22652558156,1,74
7,001,0,recog,78,BREAK,HF,lure,-,-,-,conservative,no,m,1,2.93236204376,3,77
7,001,0,recog,79,ENROLMENT,LF,lure,-,-,-,conservative,no,z,0,1.0665520652,-3,74
7,001,0,recog,80,SIESTA,LF,lure,-,-,-,liberal,no,m,1,7.35755251464,1,75
7,001,0,recog,81,SEVEN,HF,lure,-,-,-,liberal,no,m,1,1.11994475953,1,76
7,001,0,recog,82,LASER,LF,target,left,aqua,imageability,conservative,no,z,1,1.06653556786,1,77
7,001,0,recog,83,UNTIL,HF,lure,-,-,-,conservative,no,m,1,1.31982165284,3,80
7,001,0,recog,84,VACATED,LF,target,left,aqua,imageability,liberal,yes,m,0,0.906682298868,-3,77
7,001,0,recog,85,LANGUAGE,HF,lure,-,-,-,conservative,no,m,1,4.31855649094,3,80
7,001,0,recog,86,USING,HF,lure,-,-,-,conservative,no,m,1,1.66630922444,3,83
7,001,0,recog,87,ELECTING,LF,lure,-,-,-,liberal,no,m,1,4.39878997568,1,84
7,001,0,recog,88,DEVELOPED,HF,target,right,yellow,pleasantness,conservative,no,m,0,3.31907597347,-1,83
7,001,0,recog,89,BEAUTIFUL,HF,target,right,yellow,pleasantness,liberal,no,z,1,1.57303368312,3,86
7,001,0,recog,90,AMULETS,LF,lure,-,-,-,liberal,no,m,1,1.38645070558,1,87
7,001,0,recog,91,DECIDED,HF,target,right,yellow,pleasantness,liberal,no,m,0,1.57302378479,-3,84
7,001,0,recog,92,HYENA,LF,lure,-,-,-,conservative,yes,z,0,0.999927778379,-3,81
7,001,0,recog,93,FIELD,HF,lure,-,-,-,liberal,no,m,1,1.17316368211,1,82
7,001,0,recog,94,RODENTS,LF,target,left,aqua,imageability,conservative,no,z,1,1.11990186654,1,83
7,001,0,recog,95,AREAS,HF,lure,-,-,-,liberal,no,m,1,4.62520374206,1,84
7,001,1,source,0,SOYBEAN,LF,target,left,aqua,imageability,conservative,no,8,0,1.77293440595,-,-
7,001,1,source,1,CHIEF,HF,target,right,yellow,pleasantness,conservative,no,8,1,0.786487512989,-,-
7,001,1,source,2,STOOD,HF,target,right,yellow,pleasantness,liberal,no,2,0,0.426571847289,-,-
7,001,1,source,3,COUNCIL,HF,target,left,aqua,imageability,liberal,no,8,0,0.413519159192,-,-
7,001,1,source,4,LIGHT,HF,target,right,yellow,pleasantness,conservative,no,2,0,0.253562873462,-,-
7,001,1,source,5,MAUSOLEUM,LF,target,right,yellow,pleasantness,liberal,no,8,1,0.253281685757,-,-
7,001,1,source,6,DAILIES,LF,target,right,yellow,pleasantness,liberal,no,2,0,0.199993841001,-,-
7,001,1,source,7,DAMASK,LF,target,right,yellow,pleasantness,liberal,no,2,0,3.7052968163,-,-
7,001,1,source,8,FUELLED,LF,target,right,yellow,pleasantness,liberal,no,8,1,2.94581360067,-,-
7,001,1,source,9,ALKALINE,LF,target,left,aqua,imageability,conservative,no,3,1,2.69254694588,-,-
7,001,1,source,10,VINEYARDS,LF,target,left,aqua,imageability,liberal,no,3,1,1.27978373098,-,-
7,001,1,source,11,SPUDS,LF,target,right,yellow,pleasantness,conservative,no,7,1,1.66631728981,-,-
7,001,1,source,12,WETTER,LF,target,right,yellow,pleasantness,liberal,no,7,1,1.31969737296,-,-
7,001,1,source,13,HUDDLE,LF,target,left,aqua,imageability,conservative,no,8,0,1.53307861451,-,-
7,001,1,source,14,MERELY,HF,target,right,yellow,pleasantness,conservative,no,3,0,1.38647930103,-,-
7,001,1,source,15,INITIATES,LF,target,left,aqua,imageability,liberal,no,3,1,1.10649283614,-,-
7,001,1,source,16,BUSINESS,HF,target,right,yellow,pleasantness,liberal,no,3,0,1.15984557022,-,-
7,001,1,source,17,NUANCE,LF,target,left,aqua,imageability,liberal,no,8,0,2.07948890538,-,-
7,001,1,source,18,SNEAKED,LF,target,right,yellow,pleasantness,conservative,no,7,1,1.79957062949,-,-
7,001,1,source,19,SEEMED,HF,target,left,aqua,imageability,conservative,no,7,0,1.57314073248,-,-
7,001,1,source,20,INTEREST,HF,target,left,aqua,imageability,liberal,no,3,1,1.61304850876,-,-
7,001,1,source,21,RIVER,HF,target,left,aqua,imageability,conservative,yes,2,1,1.62610742915,-,-
7,001,1,source,22,DAUGHTER,HF,target,right,yellow,pleasantness,conservative,no,8,1,1.4661155825,-,-
7,001,1,source,23,POINT,HF,target,right,yellow,pleasantness,conservative,no,7,1,1.09323778085,-,-
7,001,1,source,24,UNDER,HF,target,right,yellow,pleasantness,liberal,no,8,1,1.9862096979,-,-
7,001,1,source,25,ACQUIRES,LF,target,right,yellow,pleasantness,conservative,yes,2,0,2.09280811693,-,-
7,001,1,source,26,MEANS,HF,target,left,aqua,imageability,liberal,no,2,1,1.38641404489,-,-
7,001,1,source,27,NUCLEAR,HF,target,left,aqua,imageability,conservative,no,8,0,1.18654375058,-,-
7,001,1,source,28,CENTRAL,HF,target,left,aqua,imageability,conservative,no,2,1,1.2663376733,-,-
7,001,1,source,29,UNFAILING,LF,target,left,aqua,imageability,liberal,no,8,0,1.23967432068,-,-
7,001,1,source,30,JUTTED,LF,target,left,aqua,imageability,liberal,no,2,1,1.10653792892,-,-
7,001,1,source,31,PRACTICE,HF,target,left,aqua,imageability,liberal,no,8,0,1.25314824062,-,-
7,001,1,source,32,TIGHTNESS,LF,target,left,aqua,imageability,conservative,no,2,1,1.43950868747,-,-
7,001,1,source,33,FATHER,HF,target,right,yellow,pleasantness,liberal,yes,8,1,1.30616552907,-,-
7,001,1,source,34,SOJOURN,LF,target,right,yellow,pleasantness,liberal,no,8,1,0.933247033972,-,-
7,001,1,source,35,CLOSE,HF,target,left,aqua,imageability,liberal,no,7,0,0.706728418008,-,-
7,001,1,source,36,ASKED,HF,target,left,aqua,imageability,conservative,no,3,1,2.18614011584,-,-
7,001,1,source,37,SUSPEND,LF,target,left,aqua,imageability,conservative,no,3,1,0.959719750681,-,-
7,001,1,source,38,THANK,HF,target,right,yellow,pleasantness,liberal,no,8,1,1.11982744525,-,-
7,001,1,source,39,BABBLED,LF,target,left,aqua,imageability,conservative,no,2,1,1.14655715367,-,-
7,001,1,source,40,AMONG,HF,target,left,aqua,imageability,liberal,no,2,1,1.06660449004,-,-
7,001,1,source,41,DOWDY,LF,target,left,aqua,imageability,liberal,no,3,1,1.07987091027,-,-
7,001,1,source,42,ECHELONS,LF,target,right,yellow,pleasantness,conservative,no,8,1,2.13293365797,-,-
7,001,1,source,43,QUESTION,HF,target,right,yellow,pleasantness,liberal,no,9,1,1.39970026177,-,-
7,001,1,source,44,RAYON,LF,target,right,yellow,pleasantness,conservative,yes,3,0,1.34621224948,-,-
7,001,1,source,45,ONCOMING,LF,target,right,yellow,pleasantness,conservative,no,2,0,1.13323610916,-,-
7,001,1,source,46,SHALL,HF,target,left,aqua,imageability,conservative,no,8,0,1.69303563354,-,-
7,001,1,source,47,LONGER,HF,target,right,yellow,pleasantness,conservative,no,2,0,1.38642430992,-,-
7,001,1,recog,0,BUSINESS,HF,target,right,yellow,pleasantness,liberal,no,z,1,2.85250176513,3,87
7,001,1,recog,1,SUSPEND,LF,target,left,aqua,imageability,conservative,yes,z,1,1.99953110924,1,88
7,001,1,recog,2,EVOCATION,LF,lure,-,-,-,liberal,no,m,1,1.38643494155,1,89
7,001,1,recog,3,VINEYARDS,LF,target,left,aqua,imageability,liberal,no,z,1,1.27981232631,3,92
7,001,1,recog,4,SYNDICATE,LF,lure,-,-,-,conservative,no,m,1,1.75965075509,3,95
7,001,1,recog,5,NORTH,HF,lure,-,-,-,conservative,no,m,1,1.75960566243,3,98
7,001,1,recog,6,WETTER,LF,target,right,yellow,pleasantness,liberal,no,z,1,1.39970062848,3,101
7,001,1,recog,7,PRACTICE,HF,target,left,aqua,imageability,liberal,no,z,1,2.46598250407,3,104
7,001,1,recog,8,CEMENTED,LF,lure,-,-,-,conservative,no,m,1,1.34644027927,3,107
7,001,1,recog,9,HUDDLE,LF,target,left,aqua,imageability,conservative,no,z,1,1.09329533821,1,108
7,001,1,recog,10,MUNCH,LF,lure,-,-,-,conservative,no,m,1,1.06653703435,3,111
7,001,1,recog,11,UNFAILING,LF,target,left,aqua,imageability,liberal,no,m,0,1.25326225546,-3,108
7,001,1,recog,12,GALACTIC,LF,lure,-,-,-,conservative,no,m,1,0.973299620091,3,111
7,001,1,recog,13,JINGLE,LF,lure,-,-,-,conservative,no,z,0,2.3458122809,-3,108
7,001,1,recog,14,POSITION,HF,lure,-,-,-,conservative,no,m,1,0.560027920874,3,111
7,001,1,recog,15,THOUSAND,HF,lure,-,-,-,liberal,no,z,0,1.43972645223,-1,110
7,001,1,recog,16,TALKING,HF,lure,-,-,-,conservative,no,m,1,0.560059449053,3,113
7,001,1,recog,17,OFTEN,HF,lure,-,-,-,conservative,no,m,1,0.560154766892,3,116
7,001,1,recog,18,LIGHT,HF,target,right,yellow,pleasantness,conservative,no,z,1,0.853296570014,1,117
7,001,1,recog,19,SPUDS,LF,target,right,yellow,pleasantness,conservative,no,m,0,0.813121536979,-1,116
7,001,1,recog,20,DOCTOR,HF,lure,-,-,-,conservative,no,z,0,0.600058877142,-3,113
7,001,1,recog,21,AVIDLY,LF,lure,-,-,-,conservative,no,m,1,0.413471500273,3,116
7,001,1,recog,22,DAILIES,LF,target,right,yellow,pleasantness,liberal,no,z,1,1.25292351027,3,119
7,001,1,recog,23,THANK,HF,target,right,yellow,pleasantness,liberal,no,z,1,1.23963472713,3,122
7,001,1,recog,24,ALKALINE,LF,target,left,aqua,imageability,conservative,no,z,1,0.759785666713,1,123
7,001,1,recog,25,ARGUABLE,LF,lure,-,-,-,liberal,no,m,1,0.933313389891,1,124
7,001,1,recog,26,PISTONS,LF,lure,-,-,-,liberal,no,m,1,1.03992647317,1,125
7,001,1,recog,27,SOJOURN,LF,target,right,yellow,pleasantness,liberal,no,m,0,0.653326558415,-3,122
7,001,1,recog,28,SEEMED,HF,target,left,aqua,imageability,conservative,no,z,1,0.333498306572,1,123
7,001,1,recog,29,CENTRAL,HF,target,left,aqua,imageability,conservative,no,m,0,1.26647698402,-1,122
7,001,1,recog,30,VETOED,LF,lure,-,-,-,conservative,no,z,0,0.186933087534,-3,119
7,001,1,recog,31,MESSED,LF,lure,-,-,-,liberal,no,z,0,3.6255149917,-1,118
7,001,1,recog,32,ANIMAL,HF,lure,-,-,-,liberal,no,z,0,5.25157989445,-1,117
7,001,1,recog,33,CHIEF,HF,target,right,yellow,pleasantness,conservative,no,m,0,0.653465135954,-1,116
7,001,1,recog,34,HOIST,LF,lure,-,-,-,conservative,no,m,1,1.6529346552,3,119
7,001,1,recog,35,JUTTED,LF,target,left,aqua,imageability,liberal,no,m,0,2.81264934666,-3,116
7,001,1,recog,36,NUANCE,LF,target,left,aqua,imageability,liberal,no,z,1,3.90542850166,3,119
7,001,1,recog,37,DAUGHTER,HF,target,right,yellow,pleasantness,conservative,no,z,1,1.5329752313,1,120
7,001,1,recog,38,ALDER,LF,lure,-,-,-,liberal,no,z,0,1.23981106526,-1,119
7,001,1,recog,39,OPPOSES,LF,lure,-,-,-,liberal,no,z,0,1.05317272991,-1,118
7,001,1,recog,40,STOOD,HF,target,right,yellow,pleasantness,liberal,no,m,0,2.05292197061,-3,115
7,001,1,recog,41,GIVEN,HF,lure,-,-,-,liberal,no,z,0,1.23977953696,-1,114
7,001,1,recog,42,SMALL,HF,lure,-,-,-,liberal,no,m,1,4.11871735821,1,115
7,001,1,recog,43,ROUND,HF,lure,-,-,-,conservative,no,m,1,2.89249202819,3,118
7,001,1,recog,44,THEORY,HF,lure,-,-,-,conservative,no,z,0,1.22646325815,-3,115
7,001,1,recog,45,INITIATES,LF,target,left,aqua,imageability,liberal,no,m,0,2.18622590206,-3,112
7,001,1,recog,46,ONCOMING,LF,target,right,yellow,pleasantness,conservative,no,m,0,1.0662690443,-1,111
7,001,1,recog,47,NUCLEAR,HF,target,left,aqua,imageability,conservative,yes,z,1,0.93336104881,1,112
7,001,1,recog,48,KERNEL,LF,lure,-,-,-,conservative,no,m,1,1.99960626371,3,115
7,001,1,recog,49,MONEY,HF,lure,-,-,-,liberal,no,m,1,2.73256177153,1,116
7,001,1,recog,50,MAUSOLEUM,LF,target,right,yellow,pleasantness,liberal,no,m,0,1.22646619112,-3,113
7,001,1,recog,51,MERELY,HF,target,right,yellow,pleasantness,conservative,no,z,1,1.49305645679,1,114
7,001,1,recog,52,UNDER,HF,target,right,yellow,pleasantness,liberal,no,z,1,1.02629234595,3,117
7,001,1,recog,53,POINT,HF,target,right,yellow,pleasantness,conservative,no,m,0,1.66628099571,-1,116
7,001,1,recog,54,SOLEMNITY,LF,lure,-,-,-,liberal,no,z,0,1.4264244712,-1,115
7,001,1,recog,55,MARKET,HF,lure,-,-,-,liberal,no,m,1,0.986524613691,1,116
7,001,1,recog,56,AMONG,HF,target,left,aqua,imageability,liberal,no,z,1,1.69297221047,3,119
7,001,1,recog,57,DAMASK,LF,target,right,yellow,pleasantness,liberal,no,z,1,2.74592057674,3,122
7,001,1,recog,58,FATHER,HF,target,right,yellow,pleasantness,liberal,no,m,0,1.85273272789,-3,119
7,001,1,recog,59,ACQUIRES,LF,target,right,yellow,pleasantness,conservative,no,m,0,1.33311703498,-1,118
7,001,1,recog,60,ASKED,HF,target,left,aqua,imageability,conservative,no,z,1,0.373533295584,1,119
7,001,1,recog,61,SHALL,HF,target,left,aqua,imageability,conservative,no,z,1,0.786636722158,1,120
7,001,1,recog,62,LONGER,HF,target,right,yellow,pleasantness,conservative,no,z,1,6.82424843661,1,121
7,001,1,recog,63,SUPPORT,HF,lure,-,-,-,conservative,no,m,1,4.34521251137,3,124
7,001,1,recog,64,ISOLATING,LF,lure,-,-,-,conservative,no,m,1,6.38458357437,3,127
7,001,1,recog,65,QUESTION,HF,target,right,yellow,pleasantness,liberal,no,z,1,5.14511052112,3,130
7,001,1,recog,66,MOTHER,HF,lure,-,-,-,conservative,no,z,0,5.02514229866,-3,127
7,001,1,recog,67,ECHELONS,LF,target,right,yellow,pleasantness,conservative,no,m,0,0.720037731226,-1,126
7,001,1,recog,68,SNEAKED,LF,target,right,yellow,pleasantness,conservative,no,z,1,0.306819190038,1,127
7,001,1,recog,69,RAYON,LF,target,right,yellow,pleasantness,conservative,no,z,1,0.893288299325,1,128
7,001,1,recog,70,EITHER,HF,lure,-,-,-,conservative,no,z,0,1.10652399785,-3,125
7,001,1,recog,71,COUNCIL,HF,target,left,aqua,imageability,liberal,no,m,0,0.626519495738,-3,122
7,001,1,recog,72,RIVER,HF,target,left,aqua,imageability,conservative,no,m,0,0.853241578792,-1,121
7,001,1,recog,73,EDUCATION,HF,lure,-,-,-,liberal,no,z,0,0.186720455298,-1,120
7,001,1,recog,74,GENERAL,HF,lure,-,-,-,conservative,yes,m,1,2.75919579552,3,123
7,001,1,recog,75,HIMSELF,HF,lure,-,-,-,liberal,no,z,0,4.93170398357,-1,122
7,001,1,recog,76,DOWDY,LF,target,left,aqua,imageability,liberal,no,m,0,1.29315316782,-3,119
7,001,1,recog,77,VAULTED,LF,lure,-,-,-,liberal,no,z,0,1.01332617726,-1,118
7,001,1,recog,78,RAREFIED,LF,lure,-,-,-,conservative,no,m,1,0.613396419096,3,121
7,001,1,recog,79,HOURS,HF,lure,-,-,-,liberal,no,z,0,1.3865364918,-1,120
7,001,1,recog,80,DEPARTS,LF,lure,-,-,-,liberal,no,m,1,1.13319688209,1,121
7,001,1,recog,81,LAMENT,LF,lure,-,-,-,conservative,no,m,1,1.38620251243,3,124
7,001,1,recog,82,INTEREST,HF,target,left,aqua,imageability,liberal,no,m,0,0.733428064734,-3,121
7,001,1,recog,83,CLEAR,HF,lure,-,-,-,conservative,no,z,0,0.426790345344,-3,118
7,001,1,recog,84,TROUBLE,HF,lure,-,-,-,liberal,no,m,1,3.66531205247,1,119
7,001,1,recog,85,RIDDLES,LF,lure,-,-,-,liberal,no,m,1,2.45268565556,1,120
7,001,1,recog,86,CLOSE,HF,target,left,aqua,imageability,liberal,no,m,0,2.14619494567,-3,117
7,001,1,recog,87,FUELLED,LF,target,right,yellow,pleasantness,liberal,no,z,1,0.706459328183,3,120
7,001,1,recog,88,DIOCESE,LF,lure,-,-,-,liberal,no,z,0,1.25308958348,-1,119
7,001,1,recog,89,SLIGHTLY,HF,lure,-,-,-,liberal,no,z,0,1.38644007395,-1,118
7,001,1,recog,90,SOYBEAN,LF,target,left,aqua,imageability,conservative,no,m,0,0.60017289198,-1,117
7,001,1,recog,91,ALREADY,HF,lure,-,-,-,liberal,no,z,0,0.293556435849,-1,116
7,001,1,recog,92,THRASH,LF,lure,-,-,-,liberal,no,m,1,0.52011427877,1,117
7,001,1,recog,93,TIGHTNESS,LF,target,left,aqua,imageability,conservative,no,z,1,2.51931764104,1,118
7,001,1,recog,94,MEANS,HF,target,left,aqua,imageability,liberal,yes,m,0,1.01325358893,-3,115
7,001,1,recog,95,BABBLED,LF,target,left,aqua,imageability,conservative,no,z,1,0.70646885992,1,116
7,001,2,source,0,OPENED,HF,target,right,yellow,pleasantness,conservative,no,2,0,1.18656794669,-,-
7,001,2,source,1,CREAK,LF,target,right,yellow,pleasantness,liberal,no,8,1,0.746740677394,-,-
7,001,2,source,2,SINCE,HF,target,left,aqua,imageability,liberal,no,8,0,1.05305321596,-,-
7,001,2,source,3,JOVIAL,LF,target,left,aqua,imageability,liberal,no,8,0,0.946638833848,-,-
7,001,2,source,4,ENVIRONS,LF,target,right,yellow,pleasantness,conservative,no,3,0,1.11964084208,-,-
7,001,2,source,5,PERHAPS,HF,target,right,yellow,pleasantness,liberal,no,8,1,1.10653609585,-,-
7,001,2,source,6,WHITE,HF,target,right,yellow,pleasantness,liberal,no,8,1,0.786717375857,-,-
7,001,2,source,7,HYDRAULIC,LF,target,right,yellow,pleasantness,conservative,no,8,1,1.03996203409,-,-
7,001,2,source,8,STRAIGHT,HF,target,left,aqua,imageability,conservative,no,8,0,0.893135057413,-,-
7,001,2,source,9,SOFTENING,LF,target,right,yellow,pleasantness,conservative,no,8,1,0.839746395708,-,-
7,001,2,source,10,EIGHT,HF,target,left,aqua,imageability,liberal,no,2,1,1.18658481061,-,-
7,001,2,source,11,PEACEABLY,LF,target,right,yellow,pleasantness,conservative,no,2,0,1.02659553022,-,-
7,001,2,source,12,COOING,LF,target,right,yellow,pleasantness,liberal,no,3,0,1.59976779099,-,-
7,001,2,source,13,GRUBS,LF,target,left,aqua,imageability,liberal,no,2,1,1.38647013577,-,-
7,001,2,source,14,MIDDLE,HF,target,right,yellow,pleasantness,liberal,no,8,1,1.31981688691,-,-
7,001,2,source,15,INSIDE,HF,target,left,aqua,imageability,liberal,no,8,0,1.11996858916,-,-
7,001,2,source,16,DUNGEON,LF,target,left,aqua,imageability,liberal,yes,2,1,0.90661337669,-,-
7,001,2,source,17,BOXCAR,LF,target,right,yellow,pleasantness,liberal,no,2,0,1.51970147889,-,-
7,001,2,source,18,RICKETS,LF,target,left,aqua,imageability,conservative,no,3,1,1.19977057714,-,-
7,001,2,source,19,MUSIC,HF,target,right,yellow,pleasantness,conservative,no,2,0,1.58613989595,-,-
7,001,2,source,20,PROBABLY,HF,target,left,aqua,imageability,conservative,no,2,1,0.946549748303,-,-
7,001,2,source,21,SITTING,HF,target,left,aqua,imageability,conservative,no,2,1,2.15924763365,-,-
7,001,2,source,22,MITIGATE,LF,target,left,aqua,imageability,liberal,no,7,0,2.23945545603,-,-
7,001,2,source,23,LEARN,HF,target,left,aqua,imageability,conservative,no,7,0,2.03956939769,-,-
7,001,2,source,24,USELESSLY,LF,target,right,yellow,pleasantness,conservative,no,2,0,1.50616596907,-,-
7,001,2,source,25,MORNING,HF,target,left,aqua,imageability,conservative,no,3,1,1.47951764741,-,-
7,001,2,source,26,FLECKED,LF,target,left,aqua,imageability,liberal,no,7,0,1.65293282212,-,-
7,001,2,source,27,SUFFERER,LF,target,left,aqua,imageability,conservative,no,3,1,1.58629753697,-,-
7,001,2,source,28,WEIRDLY,LF,target,left,aqua,imageability,conservative,no,7,0,1.1862401996,-,-
7,001,2,source,29,TRADE,HF,target,right,yellow,pleasantness,liberal,no,7,1,1.09321688418,-,-
7,001,2,source,30,SENSE,HF,target,right,yellow,pleasantness,conservative,yes,7,1,1.98613564332,-,-
7,001,2,source,31,WEBBED,LF,target,right,yellow,pleasantness,liberal,no,2,0,4.43872378115,-,-
7,001,2,source,32,THING,HF,target,right,yellow,pleasantness,conservative,no,2,0,2.0795186006,-,-
7,001,2,source,33,ZIGZAG,LF,target,left,aqua,imageability,conservative,no,3,1,1.34646080935,-,-
7,001,2,source,34,BUNGALOWS,LF,target,left,aqua,imageability,conservative,no,2,1,2.10614455922,-,-
7,001,2,source,35,EGOISM,LF,target,right,yellow,pleasantness,liberal,no,8,1,0.733379672514,-,-
7,001,2,source,36,KITCHEN,HF,target,right,yellow,pleasantness,conservative,yes,8,1,0.813060313463,-,-
7,001,2,source,37,EMBATTLED,LF,target,left,aqua,imageability,liberal,no,8,0,2.01290237915,-,-
7,001,2,source,38,MAILBOX,LF,target,left,aqua,imageability,conservative,yes,8,0,0.666744754068,-,-
7,001,2,source,39,REACHED,HF,target,left,aqua,imageability,liberal,no,2,1,3.87868779502,-,-
7,001,2,source,40,TRYING,HF,target,left,aqua,imageability,liberal,no,8,0,1.38642321015,-,-
7,001,2,source,41,ICILY,LF,target,right,yellow,pleasantness,conservative,no,8,1,0.866405348992,-,-
7,001,2,source,42,CAUGHT,HF,target,right,yellow,pleasantness,liberal,no,8,1,1.27979912853,-,-
7,001,2,source,43,HERSELF,HF,target,left,aqua,imageability,conservative,no,8,0,1.13316315413,-,-
7,001,2,source,44,TRIED,HF,target,right,yellow,pleasantness,liberal,no,8,1,1.14632692432,-,-
7,001,2,source,45,MAYBE,HF,target,left,aqua,imageability,liberal,no,8,0,1.67966876295,-,-
7,001,2,source,46,IDEAS,HF,target,right,yellow,pleasantness,conservative,no,8,1,1.38653319224,-,-
7,001,2,source,47,PAWNS,LF,target,right,yellow,pleasantness,liberal,no,8,1,1.07982178486,-,-
7,001,2,recog,0,WANTED,HF,lure,-,-,-,conservative,no,m,1,1.58634886215,3,119
7,001,2,recog,1,EIGHT,HF,target,left,aqua,imageability,liberal,no,m,0,0.973217500024,-3,116
7,001,2,recog,2,MOBILIZE,LF,lure,-,-,-,liberal,no,m,1,0.999927045195,1,117
7,001,2,recog,3,PEACEABLY,LF,target,right,yellow,pleasantness,conservative,no,z,1,1.89285496948,1,118
7,001,2,recog,4,INDEED,HF,lure,-,-,-,conservative,no,m,1,2.25286595291,3,121
7,001,2,recog,5,WEEKS,HF,lure,-,-,-,conservative,no,m,1,1.2531123131,3,124
7,001,2,recog,6,SENSE,HF,target,right,yellow,pleasantness,conservative,no,z,1,1.35977525497,1,125
7,001,2,recog,7,SWAGGER,LF,lure,-,-,-,conservative,no,z,0,2.4793288447,-3,122
7,001,2,recog,8,OLDER,HF,lure,-,-,-,liberal,no,z,0,1.06649267476,-1,121
7,001,2,recog,9,SOFTENING,LF,target,right,yellow,pleasantness,conservative,no,m,0,1.3197739938,-1,120
7,001,2,recog,10,ZIGZAG,LF,target,left,aqua,imageability,conservative,no,z,1,1.05317199673,1,121
7,001,2,recog,11,MUSIC,HF,target,right,yellow,pleasantness,conservative,no,m,0,1.38642760937,-1,120
7,001,2,recog,12,TACITLY,LF,lure,-,-,-,conservative,no,z,0,1.0132370916,-3,117
7,001,2,recog,13,EIDERDOWN,LF,lure,-,-,-,conservative,no,z,0,1.34649160434,-3,114
7,001,2,recog,14,TRIED,HF,target,right,yellow,pleasantness,liberal,no,z,1,1.14657768374,3,117
7,001,2,recog,15,OPENED,HF,target,right,yellow,pleasantness,conservative,no,z,1,2.09276889008,1,118
7,001,2,recog,16,RATHER,HF,lure,-,-,-,liberal,no,z,0,2.11954369117,-1,117
7,001,2,recog,17,FLECKED,LF,target,left,aqua,imageability,liberal,no,z,1,1.06654803245,3,120
7,001,2,recog,18,TRYING,HF,target,left,aqua,imageability,liberal,no,z,1,1.0665399672,3,123
7,001,2,recog,19,BUNGALOWS,LF,target,left,aqua,imageability,conservative,no,z,1,1.02667838347,1,124
7,001,2,recog,20,MIDDLE,HF,target,right,yellow,pleasantness,liberal,no,z,1,5.47814286978,3,127
7,001,2,recog,21,EMBATTLED,LF,target,left,aqua,imageability,liberal,no,z,1,1.30649877526,3,130
7,001,2,recog,22,GRUBS,LF,target,left,aqua,imageability,liberal,no,z,1,0.973262959393,3,133
7,001,2,recog,23,PERHAPS,HF,target,right,yellow,pleasantness,liberal,no,m,0,4.22540083015,-3,130
7,001,2,recog,24,APART,HF,lure,-,-,-,conservative,no,m,1,1.11990883213,3,133
7,001,2,recog,25,PETERED,LF,lure,-,-,-,liberal,no,m,1,1.23995844135,1,134
7,001,2,recog,26,TINGLING,LF,lure,-,-,-,liberal,yes,m,1,0.693356048316,1,135
7,001,2,recog,27,EGOISM,LF,target,right,yellow,pleasantness,liberal,no,z,1,1.30643351912,3,138
7,001,2,recog,28,ALONE,HF,lure,-,-,-,liberal,no,z,0,3.41225876322,-1,137
7,001,2,recog,29,DUNGEON,LF,target,left,aqua,imageability,liberal,no,m,0,1.43971728708,-3,134
7,001,2,recog,30,INSIDE,HF,target,left,aqua,imageability,liberal,yes,m,0,0.626760356827,-3,131
7,001,2,recog,31,BIDDER,LF,lure,-,-,-,liberal,no,z,0,1.03986414999,-1,130
7,001,2,recog,32,ASHEN,LF,lure,-,-,-,conservative,no,m,1,0.57343255193,3,133
7,001,2,recog,33,MOVED,HF,lure,-,-,-,conservative,no,m,1,0.613119630609,3,136
7,001,2,recog,34,FORCE,HF,lure,-,-,-,liberal,no,z,0,1.82632196776,-1,135
7,001,2,recog,35,JOYFULLY,LF,lure,-,-,-,liberal,no,z,0,1.09316592582,-1,134
7,001,2,recog,36,PACIFISM,LF,lure,-,-,-,liberal,no,z,0,0.893396815052,-1,133
7,001,2,recog,37,NOVAS,LF,lure,-,-,-,liberal,no,z,0,1.25308921689,-1,132
7,001,2,recog,38,TWOFOLD,LF,lure,-,-,-,liberal,no,z,0,0.57348644326,-1,131
7,001,2,recog,39,JOVIAL,LF,target,left,aqua,imageability,liberal,no,z,1,1.1065075004,3,134
7,001,2,recog,40,ICILY,LF,target,right,yellow,pleasantness,conservative,no,z,1,1.61296785518,1,135
7,001,2,recog,41,SUFFERER,LF,target,left,aqua,imageability,conservative,no,z,1,1.49306965456,1,136
7,001,2,recog,42,EMOTIVE,LF,lure,-,-,-,liberal,no,m,1,1.67944953172,1,137
7,001,2,recog,43,ALTHOUGH,HF,lure,-,-,-,conservative,no,m,1,0.853296570014,3,140
7,001,2,recog,44,COOING,LF,target,right,yellow,pleasantness,liberal,no,z,1,1.07987750915,3,143
7,001,2,recog,45,PIANOS,LF,lure,-,-,-,conservative,no,z,0,1.30649877514,-3,140
7,001,2,recog,46,GAPED,LF,lure,-,-,-,liberal,no,None,-1,-1,-1,139
7,001,2,recog,47,MAYBE,HF,target,left,aqua,imageability,liberal,no,m,0,1.43973855034,-3,136
7,001,2,recog,48,PAWNS,LF,target,right,yellow,pleasantness,liberal,no,z,1,1.0000179637,3,139
7,001,2,recog,49,HYDRAULIC,LF,target,right,yellow,pleasantness,conservative,no,z,1,0.906676433049,1,140
7,001,2,recog,50,THING,HF,target,right,yellow,pleasantness,conservative,yes,m,0,3.46568408574,-1,139
7,001,2,recog,51,WINDOW,HF,lure,-,-,-,liberal,no,m,1,1.25312367792,1,140
7,001,2,recog,52,DIABETIC,LF,lure,-,-,-,conservative,no,m,1,0.813091475051,3,143
7,001,2,recog,53,WRITE,HF,lure,-,-,-,liberal,no,z,0,0.839744196041,-1,142
7,001,2,recog,54,UNION,HF,lure,-,-,-,conservative,no,m,1,0.386796416366,3,145
7,001,2,recog,55,CLICKS,LF,lure,-,-,-,liberal,no,m,1,0.426838004263,1,146
7,001,2,recog,56,ROCKER,LF,lure,-,-,-,conservative,no,m,1,0.360284472699,3,149
7,001,2,recog,57,GADGET,LF,lure,-,-,-,conservative,no,m,1,0.466762644472,3,152
7,001,2,recog,58,HERSELF,HF,target,left,aqua,imageability,conservative,no,m,0,1.45303283259,-1,151
7,001,2,recog,59,BOXCAR,LF,target,right,yellow,pleasantness,liberal,no,m,0,0.493230961845,-3,148
7,001,2,recog,60,STRAIGHT,HF,target,left,aqua,imageability,conservative,no,z,1,0.46677840862,1,149
7,001,2,recog,61,WHITE,HF,target,right,yellow,pleasantness,liberal,no,z,1,0.506717712968,3,152
7,001,2,recog,62,MAILBOX,LF,target,left,aqua,imageability,conservative,no,z,1,1.39974975388,1,153
7,001,2,recog,63,SPACE,HF,lure,-,-,-,liberal,no,z,0,0.453408971662,-1,152
7,001,2,recog,64,REACHED,HF,target,left,aqua,imageability,liberal,no,m,0,0.426889329334,-3,149
7,001,2,recog,65,ZIPPED,LF,lure,-,-,-,conservative,no,m,1,0.813092208351,3,152
7,001,2,recog,66,NADIR,LF,lure,-,-,-,conservative,no,m,1,0.799954467337,3,155
7,001,2,recog,67,USELESSLY,LF,target,right,yellow,pleasantness,conservative,no,m,0,0.613376622321,-1,154
7,001,2,recog,68,MORNING,HF,target,left,aqua,imageability,conservative,no,z,1,0.720224700985,1,155
7,001,2,recog,69,PHYSICAL,HF,lure,-,-,-,liberal,no,z,0,0.679952883511,-1,154
7,001,2,recog,70,LIVED,HF,lure,-,-,-,conservative,no,m,1,0.53353467409,3,157
7,001,2,recog,71,ENVIRONS,LF,target,right,yellow,pleasantness,conservative,no,m,0,0.506773437373,-1,156
7,001,2,recog,72,MITIGATE,LF,target,left,aqua,imageability,liberal,no,z,1,0.693358614575,3,159
7,001,2,recog,73,SINCE,HF,target,left,aqua,imageability,liberal,no,z,1,0.586730133742,3,162
7,001,2,recog,74,TRADE,HF,target,right,yellow,pleasantness,liberal,no,z,1,0.559767629602,3,165
7,001,2,recog,75,ECLECTIC,LF,lure,-,-,-,conservative,no,m,1,1.21317520831,3,168
7,001,2,recog,76,CAUGHT,HF,target,right,yellow,pleasantness,liberal,no,m,0,0.626428210642,-3,165
7,001,2,recog,77,LEARN,HF,target,left,aqua,imageability,conservative,no,z,1,0.493486853899,1,166
7,001,2,recog,78,EFFECT,HF,lure,-,-,-,liberal,no,z,0,0.413462335127,-1,165
7,001,2,recog,79,SOMEONE,HF,lure,-,-,-,liberal,no,m,1,0.453401273,1,166
7,001,2,recog,80,RICKETS,LF,target,left,aqua,imageability,conservative,no,m,0,0.440084994189,-1,165
7,001,2,recog,81,CREAK,LF,target,right,yellow,pleasantness,liberal,no,z,1,0.440095992526,3,168
7,001,2,recog,82,WEIRDLY,LF,target,left,aqua,imageability,conservative,no,m,0,0.586689073709,-1,167
7,001,2,recog,83,FUTURE,HF,lure,-,-,-,liberal,no,z,0,0.440186177962,-1,166
7,001,2,recog,84,WRONG,HF,lure,-,-,-,conservative,no,m,1,0.4798930533,3,169
7,001,2,recog,85,SITTING,HF,target,left,aqua,imageability,conservative,no,m,0,0.466757511953,-1,168
7,001,2,recog,86,IDEAS,HF,target,right,yellow,pleasantness,conservative,no,m,0,0.57347507833,-1,167
7,001,2,recog,87,PROBABLY,HF,target,left,aqua,imageability,conservative,yes,m,0,0.466771076433,-1,166
7,001,2,recog,88,WEBBED,LF,target,right,yellow,pleasantness,liberal,no,z,1,0.533538706717,3,169
7,001,2,recog,89,HOSPITAL,HF,lure,-,-,-,conservative,no,z,0,1.06649707409,-3,166
7,001,2,recog,90,BOOKS,HF,lure,-,-,-,liberal,no,m,1,0.493396301754,1,167
7,001,2,recog,91,KITCHEN,HF,target,right,yellow,pleasantness,conservative,no,z,1,2.61260381411,1,168
7,001,2,recog,92,CERTAIN,HF,lure,-,-,-,conservative,no,m,1,1.11969876604,3,171
7,001,2,recog,93,ENDEARING,LF,lure,-,-,-,conservative,no,m,1,0.386769287405,3,174
7,001,2,recog,94,ATONEMENT,LF,lure,-,-,-,liberal,no,z,0,0.666657868191,-1,173
7,001,2,recog,95,GARDEN,HF,lure,-,-,-,conservative,no,m,1,0.12028863735,3,176
7,001,3,source,0,DITTO,LF,target,right,yellow,pleasantness,liberal,no,7,1,1.83958472183,-,-
7,001,3,source,1,ARBITER,LF,target,left,aqua,imageability,conservative,no,8,0,0.480143079534,-,-
7,001,3,source,2,GROUND,HF,target,left,aqua,imageability,liberal,no,2,1,0.626490900409,-,-
7,001,3,source,3,HUSBAND,HF,target,left,aqua,imageability,conservative,no,8,0,0.799866481568,-,-
7,001,3,source,4,FLUFF,LF,target,right,yellow,pleasantness,liberal,no,3,0,0.866542093572,-,-
7,001,3,source,5,RESEARCH,HF,target,right,yellow,pleasantness,conservative,no,3,0,0.853309767903,-,-
7,001,3,source,6,BELIEVE,HF,target,left,aqua,imageability,liberal,no,8,0,0.933296525967,-,-
7,001,3,source,7,BEECHES,LF,target,left,aqua,imageability,liberal,no,8,0,1.38640597952,-,-
7,001,3,source,8,NOMAD,LF,target,right,yellow,pleasantness,conservative,no,3,0,0.706724385265,-,-
7,001,3,source,9,THYROID,LF,target,right,yellow,pleasantness,conservative,no,8,1,0.706517618732,-,-
7,001,3,source,10,POLICE,HF,target,right,yellow,pleasantness,conservative,no,3,0,0.560047717649,-,-
7,001,3,source,11,OXIDE,LF,target,right,yellow,pleasantness,liberal,no,8,1,0.666735955514,-,-
7,001,3,source,12,CHOICE,HF,target,right,yellow,pleasantness,liberal,yes,8,1,1.09323704755,-,-
7,001,3,source,13,LEPROSY,LF,target,right,yellow,pleasantness,conservative,no,3,0,0.879765620572,-,-
7,001,3,source,14,FIFTIETH,LF,target,right,yellow,pleasantness,conservative,no,8,1,0.679891293636,-,-
7,001,3,source,15,TICKLE,LF,target,left,aqua,imageability,conservative,no,3,1,0.426617306657,-,-
7,001,3,source,16,CHURCH,HF,target,left,aqua,imageability,liberal,no,8,0,0.373550892808,-,-
7,001,3,source,17,FIVER,LF,target,left,aqua,imageability,conservative,no,8,0,0.480057659908,-,-
7,001,3,source,18,AHEAD,HF,target,right,yellow,pleasantness,liberal,yes,3,0,0.826713137794,-,-
7,001,3,source,19,UNHEEDED,LF,target,right,yellow,pleasantness,liberal,no,8,1,0.37348013767,-,-
7,001,3,source,20,HAPPEN,HF,target,left,aqua,imageability,conservative,no,8,0,0.533334139851,-,-
7,001,3,source,21,AFTERNOON,HF,target,right,yellow,pleasantness,conservative,no,3,0,0.519870851655,-,-
7,001,3,source,22,LUNACY,LF,target,left,aqua,imageability,liberal,no,8,0,0.493429296417,-,-
7,001,3,source,23,BIBLES,LF,target,left,aqua,imageability,liberal,no,8,0,0.560132403858,-,-
7,001,3,source,24,IRISES,LF,target,right,yellow,pleasantness,conservative,no,3,0,0.640048040194,-,-
7,001,3,source,25,VILLAGE,HF,target,right,yellow,pleasantness,liberal,no,3,0,0.893322027172,-,-
7,001,3,source,26,OUSTED,LF,target,left,aqua,imageability,liberal,no,8,0,0.493217397365,-,-
7,001,3,source,27,RECENT,HF,target,right,yellow,pleasantness,liberal,no,3,0,0.520158271771,-,-
7,001,3,source,28,IMPORTANT,HF,target,right,yellow,pleasantness,liberal,no,8,1,0.613446277683,-,-
7,001,3,source,29,SNIGGERED,LF,target,left,aqua,imageability,liberal,no,3,1,0.613383221324,-,-
7,001,3,source,30,ERRANT,LF,target,right,yellow,pleasantness,liberal,no,8,1,0.773464153521,-,-
7,001,3,source,31,PIECE,HF,target,left,aqua,imageability,liberal,no,3,1,0.57340908912,-,-
7,001,3,source,32,PEGGED,LF,target,left,aqua,imageability,conservative,no,8,0,0.666647969745,-,-
7,001,3,source,33,ENTIRELY,HF,target,left,aqua,imageability,conservative,no,3,1,0.626721863053,-,-
7,001,3,source,34,GODMOTHER,LF,target,right,yellow,pleasantness,conservative,no,8,1,0.520043523633,-,-
7,001,3,source,35,ULCER,LF,target,left,aqua,imageability,conservative,yes,3,1,0.586800522404,-,-
7,001,3,source,36,VOICE,HF,target,right,yellow,pleasantness,conservative,no,8,1,0.613474506536,-,-
7,001,3,source,37,ALMOST,HF,target,right,yellow,pleasantness,conservative,yes,8,1,1.69291721925,-,-
7,001,3,source,38,PLACE,HF,target,left,aqua,imageability,conservative,no,3,1,1.83935559227,-,-
7,001,3,source,39,POUNDS,HF,target,right,yellow,pleasantness,conservative,no,2,0,1.41315915086,-,-
7,001,3,source,40,BEYOND,HF,target,right,yellow,pleasantness,liberal,no,2,0,0.826397855533,-,-
7,001,3,source,41,GLASS,HF,target,left,aqua,imageability,liberal,no,8,0,0.826472276822,-,-
7,001,3,source,42,GULLIBLE,LF,target,left,aqua,imageability,liberal,no,8,0,0.91976578196,-,-
7,001,3,source,43,FOOLHARDY,LF,target,left,aqua,imageability,conservative,no,8,0,0.480226665968,-,-
7,001,3,source,44,INVOLVED,HF,target,left,aqua,imageability,liberal,no,8,0,0.49351948197,-,-
7,001,3,source,45,WHATEVER,HF,target,left,aqua,imageability,conservative,no,2,1,0.480096153799,-,-
7,001,3,source,46,SCYTHE,LF,target,right,yellow,pleasantness,liberal,no,8,1,0.680069098133,-,-
7,001,3,source,47,SLEEP,HF,target,left,aqua,imageability,conservative,no,3,1,0.720046896371,-,-
7,001,3,recog,0,PEGGED,LF,target,left,aqua,imageability,conservative,no,m,0,3.2123694052,-1,175
7,001,3,recog,1,ARBITER,LF,target,left,aqua,imageability,conservative,no,z,1,1.35987607203,1,176
7,001,3,recog,2,TAGGED,LF,lure,-,-,-,liberal,no,z,0,0.693323786953,-1,175
7,001,3,recog,3,AFTERNOON,HF,target,right,yellow,pleasantness,conservative,no,m,0,0.653143987991,-1,174
7,001,3,recog,4,LIKELY,HF,lure,-,-,-,liberal,no,z,0,0.120069406112,-1,173
7,001,3,recog,5,DIMMED,LF,lure,-,-,-,conservative,no,m,1,0.919994178228,3,176
7,001,3,recog,6,FIVER,LF,target,left,aqua,imageability,conservative,no,z,1,1.4798072672,1,177
7,001,3,recog,7,FIFTIETH,LF,target,right,yellow,pleasantness,conservative,no,None,-1,-1,-1,176
7,001,3,recog,8,UNHEEDED,LF,target,right,yellow,pleasantness,liberal,no,z,1,0.973257460282,3,179
7,001,3,recog,9,BEECHES,LF,target,left,aqua,imageability,liberal,no,z,1,0.453416670556,3,182
7,001,3,recog,10,BEYOND,HF,target,right,yellow,pleasantness,liberal,no,z,1,1.93287199468,3,185
7,001,3,recog,11,ERRANT,LF,target,right,yellow,pleasantness,liberal,no,z,1,0.866585719748,3,188
7,001,3,recog,12,BEGAN,HF,lure,-,-,-,conservative,no,m,1,0.653372384259,3,191
7,001,3,recog,13,OUTSIDE,HF,lure,-,-,-,liberal,no,z,0,0.70686003007,-1,190
7,001,3,recog,14,VOWEL,LF,lure,-,-,-,liberal,no,z,0,1.2931234726,-1,189
7,001,3,recog,15,CASES,HF,lure,-,-,-,conservative,no,m,1,1.2796290227,3,192
7,001,3,recog,16,CLASS,HF,lure,-,-,-,conservative,no,z,0,1.57302635105,-3,189
7,001,3,recog,17,TICKLE,LF,target,left,aqua,imageability,conservative,no,m,0,0.546701743617,-1,188
7,001,3,recog,18,LYNCH,LF,lure,-,-,-,conservative,no,z,0,0.480229965528,-3,185
7,001,3,recog,19,BELIEVE,HF,target,left,aqua,imageability,liberal,no,m,0,0.720013168524,-3,182
7,001,3,recog,20,POUNDS,HF,target,right,yellow,pleasantness,conservative,no,z,1,2.07948267309,1,183
7,001,3,recog,21,LEOPARDS,LF,lure,-,-,-,liberal,no,z,0,0.853423416032,-1,182
7,001,3,recog,22,ENTIRELY,HF,target,left,aqua,imageability,conservative,no,m,0,0.479880222119,-1,181
7,001,3,recog,23,JAUNDICE,LF,lure,-,-,-,conservative,no,z,0,0.386838209582,-3,178
7,001,3,recog,24,ALMOST,HF,target,right,yellow,pleasantness,conservative,no,m,0,0.386806681403,-1,177
7,001,3,recog,25,RECENT,HF,target,right,yellow,pleasantness,liberal,no,z,1,0.333510771394,3,180
7,001,3,recog,26,HAUNCHES,LF,lure,-,-,-,liberal,no,m,1,1.13299964741,1,181
7,001,3,recog,27,SAFARI,LF,lure,-,-,-,conservative,no,z,0,0.293488246854,-3,178
7,001,3,recog,28,ANSWER,HF,lure,-,-,-,conservative,no,m,1,0.29346111801,3,181
7,001,3,recog,29,VOICE,HF,target,right,yellow,pleasantness,conservative,no,z,1,1.06670457392,1,182
7,001,3,recog,30,JAILS,LF,lure,-,-,-,liberal,no,z,0,0.253292317386,-1,181
7,001,3,recog,31,VILLAGE,HF,target,right,yellow,pleasantness,liberal,no,m,0,0.306812591036,-3,178
7,001,3,recog,32,RESEARCH,HF,target,right,yellow,pleasantness,conservative,yes,m,0,1.06653446797,-1,177
7,001,3,recog,33,SNIGGERED,LF,target,left,aqua,imageability,liberal,no,z,1,0.293574399664,3,180
7,001,3,recog,34,BLOOD,HF,lure,-,-,-,liberal,no,z,0,0.306866482366,-1,179
7,001,3,recog,35,GODMOTHER,LF,target,right,yellow,pleasantness,conservative,no,z,1,1.14655972004,1,180
7,001,3,recog,36,FINAL,HF,lure,-,-,-,conservative,no,m,1,0.386595515534,3,183
7,001,3,recog,37,PIECE,HF,target,left,aqua,imageability,liberal,no,z,1,0.320221621427,3,186
7,001,3,recog,38,CUTLER,LF,lure,-,-,-,conservative,no,z,0,1.30645588215,-3,183
7,001,3,recog,39,CULINARY,LF,lure,-,-,-,conservative,no,m,1,0.266805464285,3,186
7,001,3,recog,40,NOTHING,HF,lure,-,-,-,conservative,no,m,1,0.266891983571,3,189
7,001,3,recog,41,HOMESTEAD,LF,lure,-,-,-,liberal,no,z,0,0.680155250826,-1,188
7,001,3,recog,42,NEURAL,LF,lure,-,-,-,liberal,no,m,1,0.0803786613978,1,189
7,001,3,recog,43,VALUE,HF,lure,-,-,-,conservative,no,m,1,0.760053656646,3,192
7,001,3,recog,44,COVER,HF,lure,-,-,-,liberal,no,z,0,0.72007365874,-1,191
7,001,3,recog,45,OXIDE,LF,target,right,yellow,pleasantness,liberal,yes,m,0,0.426742319716,-3,188
7,001,3,recog,46,ULCER,LF,target,left,aqua,imageability,conservative,no,z,1,0.373434678186,1,189
7,001,3,recog,47,NICETIES,LF,lure,-,-,-,liberal,no,z,0,1.17317138088,-1,188
7,001,3,recog,48,FAMILY,HF,lure,-,-,-,liberal,no,m,1,0.333490241203,1,189
7,001,3,recog,49,AHEAD,HF,target,right,yellow,pleasantness,liberal,no,m,0,0.280141539755,-3,186
7,001,3,recog,50,OUSTED,LF,target,left,aqua,imageability,liberal,no,z,1,0.959922484471,3,189
7,001,3,recog,51,SCYTHE,LF,target,right,yellow,pleasantness,liberal,no,z,1,0.280214494676,3,192
7,001,3,recog,52,DOUBT,HF,lure,-,-,-,conservative,no,z,0,0.413505228236,-3,189
7,001,3,recog,53,GLASS,HF,target,left,aqua,imageability,liberal,no,z,1,1.13317855168,3,192
7,001,3,recog,54,NOMAD,LF,target,right,yellow,pleasantness,conservative,no,m,0,0.226900620852,-1,191
7,001,3,recog,55,PRYING,LF,lure,-,-,-,conservative,yes,m,1,0.600181323942,3,194
7,001,3,recog,56,HIVES,LF,lure,-,-,-,liberal,no,m,1,1.07991526974,1,195
7,001,3,recog,57,PEEKED,LF,lure,-,-,-,liberal,no,m,1,0.33358409279,1,196
7,001,3,recog,58,HAPPEN,HF,target,left,aqua,imageability,conservative,no,m,0,0.306801226223,-1,195
7,001,3,recog,59,ABLAZE,LF,lure,-,-,-,conservative,no,z,0,0.973359377123,-3,192
7,001,3,recog,60,POLICE,HF,target,right,yellow,pleasantness,conservative,no,m,0,0.306791694486,-1,191
7,001,3,recog,61,USUAL,HF,lure,-,-,-,liberal,no,z,0,0.386540157837,-1,190
7,001,3,recog,62,IRISES,LF,target,right,yellow,pleasantness,conservative,no,m,0,1.01335403929,-1,189
7,001,3,recog,63,ACCORDING,HF,lure,-,-,-,liberal,yes,m,1,0.21354731475,1,190
7,001,3,recog,64,REPORT,HF,lure,-,-,-,liberal,no,z,0,0.37352449703,-1,189
7,001,3,recog,65,LAXATIVE,LF,lure,-,-,-,conservative,no,z,0,1.1331836842,-3,186
7,001,3,recog,66,DEGREE,HF,lure,-,-,-,liberal,no,m,1,0.333311336813,1,187
7,001,3,recog,67,INVOLVED,HF,target,left,aqua,imageability,liberal,no,z,1,0.413619609666,3,190
7,001,3,recog,68,CHURCH,HF,target,left,aqua,imageability,liberal,no,z,1,0.960028067464,3,193
7,001,3,recog,69,GROUND,HF,target,left,aqua,imageability,liberal,no,z,1,0.213581775781,3,196
7,001,3,recog,70,LUNACY,LF,target,left,aqua,imageability,liberal,no,m,0,0.200205740053,-3,193
7,001,3,recog,71,FLUFF,LF,target,right,yellow,pleasantness,liberal,no,z,1,1.05338426237,3,196
7,001,3,recog,72,WHATEVER,HF,target,left,aqua,imageability,conservative,no,z,1,0.293463317677,1,197
7,001,3,recog,73,PLACE,HF,target,left,aqua,imageability,conservative,no,z,1,0.266925344826,1,198
7,001,3,recog,74,MATERIAL,HF,lure,-,-,-,liberal,no,z,0,0.719959643786,-1,197
7,001,3,recog,75,CHOICE,HF,target,right,yellow,pleasantness,liberal,no,m,0,0.253516314435,-3,194
7,001,3,recog,76,WALKED,HF,lure,-,-,-,conservative,no,z,0,0.173666300834,-3,191
7,001,3,recog,77,GULLIBLE,LF,target,left,aqua,imageability,liberal,no,m,0,0.400092165102,-3,188
7,001,3,recog,78,FOOLHARDY,LF,target,left,aqua,imageability,conservative,no,m,0,0.746631794958,-1,187
7,001,3,recog,79,KNOWLEDGE,HF,lure,-,-,-,liberal,no,z,0,0.333557330421,-1,186
7,001,3,recog,80,ECONOMIC,HF,lure,-,-,-,conservative,no,m,1,0.560054316535,3,189
7,001,3,recog,81,THYROID,LF,target,right,yellow,pleasantness,conservative,no,m,0,0.400096197729,-1,188
7,001,3,recog,82,FOCUSES,LF,lure,-,-,-,conservative,no,m,1,0.466734415735,3,191
7,001,3,recog,83,ENSCONCED,LF,lure,-,-,-,liberal,no,z,0,2.07959778782,-1,190
7,001,3,recog,84,LEPROSY,LF,target,right,yellow,pleasantness,conservative,no,m,0,0.400141290389,-1,189
7,001,3,recog,85,IMPORTANT,HF,target,right,yellow,pleasantness,liberal,no,z,1,0.626496033045,3,192
7,001,3,recog,86,TWENTY,HF,lure,-,-,-,conservative,no,m,1,2.05280648929,3,195
7,001,3,recog,87,DURING,HF,lure,-,-,-,conservative,no,m,1,2.21271878202,3,198
7,001,3,recog,88,HUSBAND,HF,target,left,aqua,imageability,conservative,no,z,1,1.41316318349,1,199
7,001,3,recog,89,BIBLES,LF,target,left,aqua,imageability,liberal,no,z,1,1.63963304076,3,202
7,001,3,recog,90,HUMAN,HF,lure,-,-,-,liberal,no,z,0,1.18658957642,-1,201
7,001,3,recog,91,DITTO,LF,target,right,yellow,pleasantness,liberal,no,z,1,1.06632146926,3,204
7,001,3,recog,92,LIZARD,LF,lure,-,-,-,liberal,no,m,1,0.879906397895,1,205
7,001,3,recog,93,ALABASTER,LF,lure,-,-,-,conservative,no,m,1,1.17306579801,3,208
7,001,3,recog,94,COACHED,LF,lure,-,-,-,conservative,no,z,0,0.82664018299,-3,205
7,001,3,recog,95,SLEEP,HF,target,left,aqua,imageability,conservative,no,m,0,0.333545965608,-1,204
7,001,4,source,0,APPEARED,HF,target,left,aqua,imageability,liberal,yes,2,1,2.2794574505,-,-
7,001,4,source,1,INJECT,LF,target,left,aqua,imageability,liberal,no,8,0,0.906567550614,-,-
7,001,4,source,2,PICTURE,HF,target,right,yellow,pleasantness,liberal,no,2,0,1.62631749513,-,-
7,001,4,source,3,DIFFERENT,HF,target,right,yellow,pleasantness,conservative,no,8,1,0.466732215951,-,-
7,001,4,source,4,EVIDENCE,HF,target,left,aqua,imageability,conservative,no,8,0,0.386650873232,-,-
7,001,4,source,5,SYMBOLIZE,LF,target,left,aqua,imageability,conservative,no,2,1,0.453511621803,-,-
7,001,4,source,6,SEPULCHRE,LF,target,right,yellow,pleasantness,conservative,no,2,0,0.400130292284,-,-
7,001,4,source,7,EXACTLY,HF,target,right,yellow,pleasantness,liberal,no,8,1,0.426823706599,-,-
7,001,4,source,8,OBSCURELY,LF,target,right,yellow,pleasantness,conservative,no,2,0,0.426787412493,-,-
7,001,4,source,9,LODGERS,LF,target,right,yellow,pleasantness,conservative,no,2,0,0.413293695776,-,-
7,001,4,source,10,UNNAMED,LF,target,right,yellow,pleasantness,conservative,no,8,1,0.386872304138,-,-
7,001,4,source,11,HUNDRED,HF,target,right,yellow,pleasantness,liberal,no,9,1,0.360120599158,-,-
7,001,4,source,12,LULLED,LF,target,right,yellow,pleasantness,liberal,no,8,1,0.346897805226,-,-
7,001,4,source,13,MOMENT,HF,target,left,aqua,imageability,liberal,yes,2,1,0.37352449703,-,-
7,001,4,source,14,BOMBARDED,LF,target,right,yellow,pleasantness,conservative,no,2,0,0.453445632593,-,-
7,001,4,source,15,OBVIOUSLY,HF,target,right,yellow,pleasantness,liberal,no,8,1,0.3335463322,-,-
7,001,4,source,16,SMEARING,LF,target,left,aqua,imageability,conservative,no,2,1,0.333224450937,-,-
7,001,4,source,17,JUROR,LF,target,right,yellow,pleasantness,liberal,no,8,1,0.320134368842,-,-
7,001,4,source,18,JOLLITY,LF,target,left,aqua,imageability,conservative,no,9,0,0.320001290413,-,-
7,001,4,source,19,WOMAN,HF,target,left,aqua,imageability,conservative,no,2,1,0.293516108999,-,-
7,001,4,source,20,INNATELY,LF,target,left,aqua,imageability,liberal,no,8,0,0.280195430969,-,-
7,001,4,source,21,FANATICS,LF,target,left,aqua,imageability,liberal,no,2,1,1.17323150451,-,-
7,001,4,source,22,QUICKLY,HF,target,right,yellow,pleasantness,conservative,no,8,1,0.293509876705,-,-
7,001,4,source,23,THWART,LF,target,right,yellow,pleasantness,liberal,no,2,0,0.333543765941,-,-
7,001,4,source,24,EXCEPT,HF,target,right,yellow,pleasantness,conservative,no,2,0,0.373608816648,-,-
7,001,4,source,25,PREPARED,HF,target,right,yellow,pleasantness,conservative,no,2,0,0.280140806572,-,-
7,001,4,source,26,PUBLIC,HF,target,left,aqua,imageability,liberal,no,8,0,0.240041294717,-,-
7,001,4,source,27,DUPLICITY,LF,target,right,yellow,pleasantness,liberal,no,2,0,0.320100274519,-,-
7,001,4,source,28,SIMILAR,HF,target,left,aqua,imageability,conservative,no,2,1,0.306626354461,-,-
7,001,4,source,29,SPICED,LF,target,right,yellow,pleasantness,liberal,no,8,1,0.293583564926,-,-
7,001,4,source,30,TASSELS,LF,target,left,aqua,imageability,conservative,no,2,1,0.266633525374,-,-
7,001,4,source,31,LOOKED,HF,target,right,yellow,pleasantness,liberal,no,8,1,0.226878257818,-,-
7,001,4,source,32,FOLLOWED,HF,target,right,yellow,pleasantness,conservative,no,2,0,0.333310237038,-,-
7,001,4,source,33,LOPSIDED,LF,target,right,yellow,pleasantness,liberal,no,8,1,0.200026469072,-,-
7,001,4,source,34,ADDED,HF,target,right,yellow,pleasantness,liberal,no,8,1,0.253764507594,-,-
7,001,4,source,35,HANDS,HF,target,left,aqua,imageability,liberal,no,9,0,0.320230786689,-,-
7,001,4,source,36,LAPELS,LF,target,left,aqua,imageability,conservative,no,1,1,0.25333007786,-,-
7,001,4,source,37,CARRIED,HF,target,left,aqua,imageability,liberal,no,2,1,0.279972533812,-,-
7,001,4,source,38,TAKEN,HF,target,left,aqua,imageability,liberal,yes,3,1,0.253632162232,-,-
7,001,4,source,39,AROUND,HF,target,left,aqua,imageability,conservative,yes,8,0,0.320203291136,-,-
7,001,4,source,40,LEVEL,HF,target,right,yellow,pleasantness,conservative,no,9,1,0.320228953613,-,-
7,001,4,source,41,JUNCTURE,LF,target,left,aqua,imageability,conservative,no,3,1,0.320165530546,-,-
7,001,4,source,42,DUGOUTS,LF,target,right,yellow,pleasantness,conservative,no,8,1,0.240352910827,-,-
7,001,4,source,43,REWRITE,LF,target,left,aqua,imageability,liberal,no,2,1,0.346778657869,-,-
7,001,4,source,44,NEITHER,HF,target,left,aqua,imageability,conservative,no,8,0,0.306619388983,-,-
7,001,4,source,45,MAJOR,HF,target,left,aqua,imageability,conservative,no,9,0,0.280023858766,-,-
7,001,4,source,46,VISCOUS,LF,target,left,aqua,imageability,liberal,no,3,1,0.253532811766,-,-
7,001,4,source,47,DESERTER,LF,target,left,aqua,imageability,liberal,no,2,1,0.266903714975,-,-
7,001,4,recog,0,SIMILAR,HF,target,left,aqua,imageability,conservative,no,z,1,1.85290723294,1,205
7,001,4,recog,1,VISCOUS,LF,target,left,aqua,imageability,liberal,no,m,0,1.13332886063,-3,202
7,001,4,recog,2,SEPULCHRE,LF,target,right,yellow,pleasantness,conservative,no,z,1,0.533436423284,1,203
7,001,4,recog,3,VORACIOUS,LF,lure,-,-,-,liberal,no,z,0,1.01318393357,-1,202
7,001,4,recog,4,UNOPENED,LF,lure,-,-,-,liberal,no,m,1,0.0403194762766,1,203
7,001,4,recog,5,DOSSIERS,LF,lure,-,-,-,conservative,no,z,0,1.0930071848,-3,200
7,001,4,recog,6,SPICED,LF,target,right,yellow,pleasantness,liberal,no,z,1,1.87936088617,3,203
7,001,4,recog,7,OUGHT,HF,lure,-,-,-,liberal,no,z,0,1.1199473259,-1,202
7,001,4,recog,8,FACILE,LF,lure,-,-,-,liberal,no,m,1,1.02639132983,1,203
7,001,4,recog,9,DUGOUTS,LF,target,right,yellow,pleasantness,conservative,no,m,0,1.05318812747,-1,202
7,001,4,recog,10,TRUTH,HF,lure,-,-,-,liberal,no,z,0,0.8000486854,-1,201
7,001,4,recog,11,EVIDENCE,HF,target,left,aqua,imageability,conservative,no,m,0,0.613463508314,-1,200
7,001,4,recog,12,ARRIVED,HF,lure,-,-,-,liberal,no,z,0,0.5067162466,-1,199
7,001,4,recog,13,OBSCURELY,LF,target,right,yellow,pleasantness,conservative,no,m,0,0.853302069008,-1,198
7,001,4,recog,14,NUMBER,HF,lure,-,-,-,conservative,no,z,0,0.693296657875,-3,195
7,001,4,recog,15,TASSELS,LF,target,left,aqua,imageability,conservative,no,m,0,1.18630545575,-1,194
7,001,4,recog,16,LOOKED,HF,target,right,yellow,pleasantness,liberal,yes,z,1,0.879950757255,3,197
7,001,4,recog,17,OBVIOUSLY,HF,target,right,yellow,pleasantness,liberal,no,z,1,1.05316246499,3,200
7,001,4,recog,18,SUDDENLY,HF,lure,-,-,-,conservative,no,z,0,0.759953939472,-3,197
7,001,4,recog,19,REWRITE,LF,target,left,aqua,imageability,liberal,no,m,0,0.626782353269,-3,194
7,001,4,recog,20,BOMBARDED,LF,target,right,yellow,pleasantness,conservative,no,z,1,0.573374261381,1,195
7,001,4,recog,21,PICTURE,HF,target,right,yellow,pleasantness,liberal,no,z,1,0.573160529253,3,198
7,001,4,recog,22,NECESSARY,HF,lure,-,-,-,liberal,no,z,0,0.493485754007,-1,197
7,001,4,recog,23,PUBLIC,HF,target,left,aqua,imageability,liberal,no,m,0,0.506847125478,-3,194
7,001,4,recog,24,WITHIN,HF,lure,-,-,-,conservative,no,m,1,0.560119939269,3,197
7,001,4,recog,25,EMIGRATED,LF,lure,-,-,-,liberal,no,z,0,1.30620768887,-1,196
7,001,4,recog,26,HIPPY,LF,lure,-,-,-,liberal,no,z,0,0.333465678501,-1,195
7,001,4,recog,27,ELUDE,LF,lure,-,-,-,conservative,no,z,0,0.3602030857,-3,192
7,001,4,recog,28,AROUND,HF,target,left,aqua,imageability,conservative,no,m,0,0.706771677709,-1,191
7,001,4,recog,29,HEDGED,LF,lure,-,-,-,conservative,yes,m,1,0.400209846091,3,194
7,001,4,recog,30,LEDGES,LF,lure,-,-,-,conservative,no,m,1,0.426744885975,3,197
7,001,4,recog,31,CITES,LF,lure,-,-,-,conservative,no,z,0,0.506888918695,-3,194
7,001,4,recog,32,JUNCTURE,LF,target,left,aqua,imageability,conservative,no,m,0,0.333274676232,-1,193
7,001,4,recog,33,PREPARED,HF,target,right,yellow,pleasantness,conservative,no,m,0,1.01318979915,-1,192
7,001,4,recog,34,MAJOR,HF,target,left,aqua,imageability,conservative,yes,z,1,0.85335889319,1,193
7,001,4,recog,35,GOADED,LF,lure,-,-,-,conservative,no,m,1,1.159810376,3,196
7,001,4,recog,36,ALLOWED,HF,lure,-,-,-,conservative,no,z,0,1.14652049297,-3,193
7,001,4,recog,37,ENOUGH,HF,lure,-,-,-,conservative,no,m,1,1.05300042452,3,196
7,001,4,recog,38,UNLESS,HF,lure,-,-,-,liberal,no,z,0,0.946633334737,-1,195
7,001,4,recog,39,LOPSIDED,LF,target,right,yellow,pleasantness,liberal,no,m,0,1.26647551765,-3,192
7,001,4,recog,40,FANATICS,LF,target,left,aqua,imageability,liberal,no,z,1,0.866683603963,3,195
7,001,4,recog,41,HUNDRED,HF,target,right,yellow,pleasantness,liberal,no,z,1,0.293459651642,3,198
7,001,4,recog,42,JOSTLED,LF,lure,-,-,-,conservative,no,m,1,0.919993811753,3,201
7,001,4,recog,43,MAKES,HF,lure,-,-,-,liberal,no,z,0,0.653107327293,-1,200
7,001,4,recog,44,DIETING,LF,lure,-,-,-,liberal,no,m,1,1.19980393839,1,201
7,001,4,recog,45,EXACTLY,HF,target,right,yellow,pleasantness,liberal,no,m,0,1.4531065207,-3,198
7,001,4,recog,46,ADDED,HF,target,right,yellow,pleasantness,liberal,no,z,1,0.53342212562,3,201
7,001,4,recog,47,MOMENT,HF,target,left,aqua,imageability,liberal,no,z,1,0.693399674608,3,204
7,001,4,recog,48,UNNAMED,LF,target,right,yellow,pleasantness,conservative,no,z,1,0.799934670562,1,205
7,001,4,recog,49,ROSEBUD,LF,lure,-,-,-,conservative,no,z,0,0.346839148086,-3,202
7,001,4,recog,50,SOUND,HF,lure,-,-,-,conservative,no,m,1,0.373491502367,3,205
7,001,4,recog,51,NEITHER,HF,target,left,aqua,imageability,conservative,no,m,0,0.506710014306,-1,204
7,001,4,recog,52,DESERTER,LF,target,left,aqua,imageability,liberal,no,z,1,0.466729283216,3,207
7,001,4,recog,53,OFFER,HF,lure,-,-,-,liberal,no,z,0,0.413494963199,-1,206
7,001,4,recog,54,MOGUL,LF,lure,-,-,-,conservative,no,m,1,1.43977521104,3,209
7,001,4,recog,55,FOLLOWED,HF,target,right,yellow,pleasantness,conservative,no,m,0,1.03987184877,-1,208
7,001,4,recog,56,REQUIRED,HF,lure,-,-,-,liberal,no,z,0,1.01329501555,-1,207
7,001,4,recog,57,HEALTH,HF,lure,-,-,-,liberal,no,z,0,1.17312298878,-1,206
7,001,4,recog,58,GASEOUS,LF,lure,-,-,-,liberal,no,m,1,0.493443594198,1,207
7,001,4,recog,59,ZEBRA,LF,lure,-,-,-,liberal,no,m,1,0.440025603864,1,208
7,001,4,recog,60,SHIELDING,LF,lure,-,-,-,liberal,no,m,1,0.520089716068,1,209
7,001,4,recog,61,THWART,LF,target,right,yellow,pleasantness,liberal,no,m,0,0.426783379749,-3,206
7,001,4,recog,62,SLOWLY,HF,lure,-,-,-,conservative,no,z,0,0.533425791655,-3,203
7,001,4,recog,63,WOMAN,HF,target,left,aqua,imageability,conservative,no,m,0,0.520095215179,-1,202
7,001,4,recog,64,MEETING,HF,lure,-,-,-,liberal,no,m,1,0.426809775527,1,203
7,001,4,recog,65,HOWEVER,HF,lure,-,-,-,conservative,no,m,1,0.44009672571,3,206
7,001,4,recog,66,GREATER,HF,lure,-,-,-,conservative,no,m,1,1.71968908759,3,209
7,001,4,recog,67,DIFFERENT,HF,target,right,yellow,pleasantness,conservative,no,m,0,0.440095625818,-1,208
7,001,4,recog,68,ADHERE,LF,lure,-,-,-,liberal,no,z,0,0.479830730124,-1,207
7,001,4,recog,69,EXCEPT,HF,target,right,yellow,pleasantness,conservative,no,m,0,1.33312583365,-1,206
7,001,4,recog,70,DUPLICITY,LF,target,right,yellow,pleasantness,liberal,no,z,1,0.44017151359,3,209
7,001,4,recog,71,FEVERS,LF,lure,-,-,-,liberal,no,z,0,0.400139824022,-1,208
7,001,4,recog,72,JUROR,LF,target,right,yellow,pleasantness,liberal,no,m,0,1.42643986875,-3,205
7,001,4,recog,73,MINISTER,HF,lure,-,-,-,conservative,no,z,0,0.400216444978,-3,202
7,001,4,recog,74,ENAMELLED,LF,lure,-,-,-,liberal,no,m,1,0.413530890713,1,203
7,001,4,recog,75,SUCCESS,HF,lure,-,-,-,liberal,no,m,1,1.37295478932,1,204
7,001,4,recog,76,SEINE,LF,lure,-,-,-,conservative,no,m,1,0.41346563457,3,207
7,001,4,recog,77,TAKEN,HF,target,left,aqua,imageability,liberal,no,z,1,0.400203980273,3,210
7,001,4,recog,78,HANDS,HF,target,left,aqua,imageability,liberal,no,z,1,0.720054228557,3,213
7,001,4,recog,79,UNSAVOURY,LF,lure,-,-,-,conservative,no,m,1,0.520173669211,3,216
7,001,4,recog,80,INJECT,LF,target,left,aqua,imageability,liberal,no,m,0,1.83960231906,-3,213
7,001,4,recog,81,SCUFFED,LF,lure,-,-,-,conservative,yes,z,0,0.600058143842,-3,210
7,001,4,recog,82,LULLED,LF,target,right,yellow,pleasantness,liberal,no,z,1,0.466829366982,3,213
7,001,4,recog,83,LEVEL,HF,target,right,yellow,pleasantness,conservative,no,z,1,1.06651137176,1,214
7,001,4,recog,84,JOLLITY,LF,target,left,aqua,imageability,conservative,no,z,1,0.586766061257,1,215
7,001,4,recog,85,APPEARED,HF,target,left,aqua,imageability,liberal,no,z,1,0.613462775014,3,218
7,001,4,recog,86,SHORT,HF,lure,-,-,-,conservative,no,m,1,1.453081958,3,221
7,001,4,recog,87,CARRIED,HF,target,left,aqua,imageability,liberal,no,m,0,0.440139618819,-3,218
7,001,4,recog,88,QUICKLY,HF,target,right,yellow,pleasantness,conservative,no,z,1,0.413504495053,1,219
7,001,4,recog,89,SMEARING,LF,target,left,aqua,imageability,conservative,no,m,0,1.42646149849,-1,218
7,001,4,recog,90,LAPELS,LF,target,left,aqua,imageability,conservative,no,z,1,0.413537856308,1,219
7,001,4,recog,91,SYMBOLIZE,LF,target,left,aqua,imageability,conservative,no,m,0,0.546703943284,-1,218
7,001,4,recog,92,PRIVATE,HF,lure,-,-,-,liberal,no,z,0,0.520047922852,-1,217
7,001,4,recog,93,TOTAL,HF,lure,-,-,-,conservative,no,m,1,0.520137375104,3,220
7,001,4,recog,94,LODGERS,LF,target,right,yellow,pleasantness,conservative,no,m,0,0.346796254977,-1,219
7,001,4,recog,95,INNATELY,LF,target,left,aqua,imageability,liberal,no,z,1,0.346858211677,3,222
