subj,session,cycle,task,trial,item,wf,type,source,colour,encoding,bias,null,response,corr,rt,points,total
8,001,0,source,0,FAKING,LF,target,left,yellow,imageability,liberal,no,7,0,2.30606654508,-,-
8,001,0,source,1,STRAIGHT,HF,target,left,yellow,imageability,liberal,yes,7,0,1.14634342166,-,-
8,001,0,source,2,OBTAINS,LF,target,left,yellow,imageability,liberal,no,3,1,1.99946438661,-,-
8,001,0,source,3,LIQUEUR,LF,target,left,yellow,imageability,liberal,no,3,1,1.74610937957,-,-
8,001,0,source,4,PASSED,HF,target,right,aqua,pleasantness,conservative,no,3,0,1.51983125799,-,-
8,001,0,source,5,VERBALLY,LF,target,right,aqua,pleasantness,conservative,no,7,1,1.61296235595,-,-
8,001,0,source,6,DRINK,HF,target,right,aqua,pleasantness,liberal,no,7,1,2.66596534685,-,-
8,001,0,source,7,EXACTLY,HF,target,left,yellow,imageability,conservative,no,3,1,0.999840525794,-,-
8,001,0,source,8,FIELD,HF,target,right,aqua,pleasantness,conservative,no,3,0,1.02649544645,-,-
8,001,0,source,9,OTHERS,HF,target,right,aqua,pleasantness,conservative,no,3,0,1.67940993805,-,-
8,001,0,source,10,TOILED,LF,target,left,yellow,imageability,liberal,no,3,1,0.77334353968,-,-
8,001,0,source,11,LATER,HF,target,left,yellow,imageability,liberal,no,3,1,1.31999945745,-,-
8,001,0,source,12,WILDFOWL,LF,target,right,aqua,pleasantness,liberal,no,7,1,0.919943219866,-,-
8,001,0,source,13,MILES,HF,target,right,aqua,pleasantness,liberal,no,7,1,1.47967932129,-,-
8,001,0,source,14,BLEACH,LF,target,left,yellow,imageability,conservative,no,3,1,1.33305251203,-,-
8,001,0,source,15,NEGATION,LF,target,left,yellow,imageability,conservative,no,3,1,1.82602831535,-,-
8,001,0,source,16,LAMENT,LF,target,right,aqua,pleasantness,liberal,no,7,1,1.82629263913,-,-
8,001,0,source,17,MARKET,HF,target,right,aqua,pleasantness,liberal,no,7,1,1.95954781189,-,-
8,001,0,source,18,LITANY,LF,target,right,aqua,pleasantness,conservative,no,3,0,1.30655376625,-,-
8,001,0,source,19,PHYSICAL,HF,target,left,yellow,imageability,liberal,no,3,1,0.91997364827,-,-
8,001,0,source,20,TAMING,LF,target,left,yellow,imageability,liberal,no,3,1,0.91994945216,-,-
8,001,0,source,21,KRAALS,LF,target,right,aqua,pleasantness,conservative,yes,7,1,0.799746234436,-,-
8,001,0,source,22,ALMOST,HF,target,left,yellow,imageability,liberal,no,3,1,6.55776265403,-,-
8,001,0,source,23,NORTH,HF,target,left,yellow,imageability,liberal,no,3,1,2.01284482179,-,-
8,001,0,source,24,HUBBUB,LF,target,right,aqua,pleasantness,liberal,no,7,1,4.17199750408,-,-
8,001,0,source,25,STUDENT,HF,target,right,aqua,pleasantness,liberal,no,3,0,1.34641425021,-,-
8,001,0,source,26,LIZARD,LF,target,left,yellow,imageability,liberal,no,3,1,1.37309483334,-,-
8,001,0,source,27,SHRED,LF,target,right,aqua,pleasantness,conservative,no,7,1,4.57159951527,-,-
8,001,0,source,28,LICENSING,LF,target,right,aqua,pleasantness,conservative,no,3,0,0.866636311519,-,-
8,001,0,source,29,ACCORDING,HF,target,right,aqua,pleasantness,conservative,yes,3,0,0.959709485644,-,-
8,001,0,source,30,NEEDED,HF,target,left,yellow,imageability,conservative,no,3,1,0.813311072881,-,-
8,001,0,source,31,KINDEST,LF,target,right,aqua,pleasantness,liberal,no,3,0,1.12000414997,-,-
8,001,0,source,32,MOUTH,HF,target,left,yellow,imageability,conservative,no,7,0,2.06603881496,-,-
8,001,0,source,33,ENMESHED,LF,target,right,aqua,pleasantness,liberal,no,7,1,1.37303360982,-,-
8,001,0,source,34,MEANS,HF,target,right,aqua,pleasantness,liberal,no,3,0,0.746658923919,-,-
8,001,0,source,35,NATIONAL,HF,target,left,yellow,imageability,conservative,no,3,1,1.57296329457,-,-
8,001,0,source,36,RUNNING,HF,target,right,aqua,pleasantness,conservative,no,3,0,1.47968811973,-,-
8,001,0,source,37,JUNCTURE,LF,target,right,aqua,pleasantness,conservative,no,7,1,1.25328241894,-,-
8,001,0,source,38,WESTERN,HF,target,left,yellow,imageability,conservative,yes,3,1,0.799940169672,-,-
8,001,0,source,39,SIMILAR,HF,target,left,yellow,imageability,conservative,no,3,1,0.786728740553,-,-
8,001,0,source,40,BACHELORS,LF,target,right,aqua,pleasantness,liberal,no,7,1,0.893278767588,-,-
8,001,0,source,41,SUING,LF,target,left,yellow,imageability,conservative,no,7,0,0.960025867797,-,-
8,001,0,source,42,LEVEL,HF,target,right,aqua,pleasantness,conservative,no,3,0,0.733343378408,-,-
8,001,0,source,43,RUGGER,LF,target,left,yellow,imageability,conservative,no,7,0,0.760002698284,-,-
8,001,0,source,44,WHETHER,HF,target,right,aqua,pleasantness,liberal,no,3,0,1.11965587304,-,-
8,001,0,source,45,ORBITAL,LF,target,left,yellow,imageability,conservative,no,3,1,1.42636544746,-,-
8,001,0,source,46,OSTRACISM,LF,target,left,yellow,imageability,conservative,no,3,1,1.53267204703,-,-
8,001,0,source,47,HUMAN,HF,target,left,yellow,imageability,liberal,no,3,1,1.66633048782,-,-
8,001,0,recog,0,ALMOST,HF,target,left,yellow,imageability,liberal,yes,z,1,2.42608279316,3,3
8,001,0,recog,1,OSTRACISM,LF,target,left,yellow,imageability,conservative,no,z,1,1.93289912352,1,4
8,001,0,recog,2,MEANS,HF,target,right,aqua,pleasantness,liberal,no,m,0,4.13195738266,-3,1
8,001,0,recog,3,RECENT,HF,lure,-,-,-,liberal,no,m,1,1.1730907273,1,2
8,001,0,recog,4,SIMILAR,HF,target,left,yellow,imageability,conservative,no,z,1,4.9850482858,1,3
8,001,0,recog,5,WILDFOWL,LF,target,right,aqua,pleasantness,liberal,no,z,1,1.55969430809,3,6
8,001,0,recog,6,BACHELORS,LF,target,right,aqua,pleasantness,liberal,no,z,1,0.706563811284,3,9
8,001,0,recog,7,STRAIGHT,HF,target,left,yellow,imageability,liberal,no,z,1,0.999897716567,3,12
8,001,0,recog,8,SUDDENLY,HF,lure,-,-,-,liberal,no,z,0,2.11947256932,-1,11
8,001,0,recog,9,HATCHES,LF,lure,-,-,-,conservative,no,z,0,2.95916324074,-3,8
8,001,0,recog,10,BLACK,HF,lure,-,-,-,conservative,no,m,1,1.71967882267,3,11
8,001,0,recog,11,LUSCIOUS,LF,lure,-,-,-,liberal,no,m,1,1.6263075968,1,12
8,001,0,recog,12,GRUBS,LF,lure,-,-,-,liberal,no,z,0,1.0263381718,-1,11
8,001,0,recog,13,DOLPHIN,LF,lure,-,-,-,liberal,yes,z,0,1.02656693477,-1,10
8,001,0,recog,14,CORNER,HF,lure,-,-,-,conservative,no,m,1,1.95942646475,3,13
8,001,0,recog,15,LACING,LF,lure,-,-,-,conservative,no,m,1,3.89211038989,3,16
8,001,0,recog,16,OTHERS,HF,target,right,aqua,pleasantness,conservative,no,z,1,2.18610932084,1,17
8,001,0,recog,17,SPACE,HF,lure,-,-,-,conservative,no,m,1,2.59925784008,3,20
8,001,0,recog,18,LEVEL,HF,target,right,aqua,pleasantness,conservative,no,z,1,1.14655422082,1,21
8,001,0,recog,19,HOWEVER,HF,lure,-,-,-,conservative,no,m,1,1.38634218986,3,24
8,001,0,recog,20,JOTTED,LF,lure,-,-,-,liberal,no,z,0,1.47965915792,-1,23
8,001,0,recog,21,STUDENT,HF,target,right,aqua,pleasantness,liberal,no,z,1,1.75943665649,3,26
8,001,0,recog,22,LITANY,LF,target,right,aqua,pleasantness,conservative,no,m,0,1.74623292615,-1,25
8,001,0,recog,23,BESOTTED,LF,lure,-,-,-,liberal,no,m,1,1.57302525127,1,26
8,001,0,recog,24,HUMAN,HF,target,left,yellow,imageability,liberal,no,z,1,0.919935887796,3,29
8,001,0,recog,25,AHEAD,HF,lure,-,-,-,conservative,no,m,1,1.51967398345,3,32
8,001,0,recog,26,SIESTA,LF,lure,-,-,-,conservative,no,m,1,2.7058995188,3,35
8,001,0,recog,27,LANGUAGE,HF,lure,-,-,-,liberal,no,m,1,2.03951733932,1,36
8,001,0,recog,28,VERBALLY,LF,target,right,aqua,pleasantness,conservative,no,z,1,1.43958530843,1,37
8,001,0,recog,29,USELESSLY,LF,lure,-,-,-,liberal,yes,z,0,0.759975202614,-1,36
8,001,0,recog,30,EVIDENCE,HF,lure,-,-,-,liberal,no,m,1,2.06614696409,1,37
8,001,0,recog,31,LIQUEUR,LF,target,left,yellow,imageability,liberal,no,z,1,0.706493056146,3,40
8,001,0,recog,32,FIELD,HF,target,right,aqua,pleasantness,conservative,no,m,0,2.47934240906,-1,39
8,001,0,recog,33,JUNCTURE,LF,target,right,aqua,pleasantness,conservative,no,z,1,1.14650839497,1,40
8,001,0,recog,34,VACATED,LF,lure,-,-,-,conservative,no,z,0,1.65292219049,-3,37
8,001,0,recog,35,OBTAINS,LF,target,left,yellow,imageability,liberal,no,z,1,1.99956447049,3,40
8,001,0,recog,36,NEGATION,LF,target,left,yellow,imageability,conservative,no,z,1,1.78630164301,1,41
8,001,0,recog,37,LAMENT,LF,target,right,aqua,pleasantness,liberal,no,m,0,1.42639734223,-3,38
8,001,0,recog,38,TAMING,LF,target,left,yellow,imageability,liberal,no,z,1,1.55977936101,3,41
8,001,0,recog,39,LUXURIANT,LF,lure,-,-,-,liberal,no,m,1,1.10630989913,1,42
8,001,0,recog,40,CRICKETER,LF,lure,-,-,-,conservative,no,m,1,1.50639326568,3,45
8,001,0,recog,41,MILES,HF,target,right,aqua,pleasantness,liberal,no,z,1,0.746783936978,3,48
8,001,0,recog,42,MARKET,HF,target,right,aqua,pleasantness,liberal,no,z,1,1.19985563005,3,51
8,001,0,recog,43,BANALITY,LF,lure,-,-,-,conservative,no,m,1,3.29238879145,3,54
8,001,0,recog,44,ITSELF,HF,lure,-,-,-,conservative,no,m,1,0.759950639913,3,57
8,001,0,recog,45,CHURCH,HF,lure,-,-,-,conservative,no,m,1,1.11989380117,3,60
8,001,0,recog,46,JUBILANT,LF,lure,-,-,-,liberal,no,m,1,1.2531251444,1,61
8,001,0,recog,47,DRINK,HF,target,right,aqua,pleasantness,liberal,no,z,1,1.18649719143,3,64
8,001,0,recog,48,TOILED,LF,target,left,yellow,imageability,liberal,no,z,1,0.760014429688,3,67
8,001,0,recog,49,LIZARD,LF,target,left,yellow,imageability,liberal,no,z,1,0.800064816256,3,70
8,001,0,recog,50,KINDEST,LF,target,right,aqua,pleasantness,liberal,no,z,1,0.933274529525,3,73
8,001,0,recog,51,NEEDED,HF,target,left,yellow,imageability,conservative,no,m,0,1.71957653924,-1,72
8,001,0,recog,52,NATIONAL,HF,target,left,yellow,imageability,conservative,no,z,1,1.8661765859,1,73
8,001,0,recog,53,ATTACK,HF,lure,-,-,-,liberal,no,z,0,1.14646476868,-1,72
8,001,0,recog,54,FAKING,LF,target,left,yellow,imageability,liberal,no,z,1,0.760044858092,3,75
8,001,0,recog,55,SMALL,HF,lure,-,-,-,liberal,no,m,1,1.78624665202,1,76
8,001,0,recog,56,OPENED,HF,lure,-,-,-,liberal,no,m,1,1.17317614681,1,77
8,001,0,recog,57,PHYSICAL,HF,target,left,yellow,imageability,liberal,no,z,1,1.13313309243,3,80
8,001,0,recog,58,CELLO,LF,lure,-,-,-,conservative,no,m,1,1.439746249,3,83
8,001,0,recog,59,EARLIER,HF,lure,-,-,-,conservative,no,m,1,1.43974148319,3,86
8,001,0,recog,60,RUGGER,LF,target,left,yellow,imageability,conservative,no,m,0,1.11988500261,-1,85
8,001,0,recog,61,SUING,LF,target,left,yellow,imageability,conservative,no,z,1,0.786651019822,1,86
8,001,0,recog,62,POOLED,LF,lure,-,-,-,conservative,no,z,0,1.30629604135,-3,83
8,001,0,recog,63,BLEACH,LF,target,left,yellow,imageability,conservative,no,z,1,1.41306199995,1,84
8,001,0,recog,64,ACCORDING,HF,target,right,aqua,pleasantness,conservative,no,z,1,1.09320221981,1,85
8,001,0,recog,65,JEALOUSLY,LF,lure,-,-,-,liberal,no,m,1,0.853278972791,1,86
8,001,0,recog,66,RUNNING,HF,target,right,aqua,pleasantness,conservative,no,m,0,2.30589460628,-1,85
8,001,0,recog,67,VOWEL,LF,lure,-,-,-,liberal,no,z,0,0.720067059854,-1,84
8,001,0,recog,68,ENMESHED,LF,target,right,aqua,pleasantness,liberal,no,z,1,1.3197563967,3,87
8,001,0,recog,69,MEETING,HF,lure,-,-,-,conservative,no,z,0,1.55980172416,-3,84
8,001,0,recog,70,SHORT,HF,lure,-,-,-,liberal,no,z,0,0.839943263913,-1,83
8,001,0,recog,71,EXACTLY,HF,target,left,yellow,imageability,conservative,no,z,1,1.7460881162,1,84
8,001,0,recog,72,BIDDER,LF,lure,-,-,-,liberal,no,m,1,1.7462857177,1,85
8,001,0,recog,73,MOPED,LF,lure,-,-,-,conservative,no,m,1,1.30642728671,3,88
8,001,0,recog,74,LATER,HF,target,left,yellow,imageability,liberal,no,z,1,1.70632551657,3,91
8,001,0,recog,75,SEVEN,HF,lure,-,-,-,conservative,no,m,1,0.999953074148,3,94
8,001,0,recog,76,MOUTH,HF,target,left,yellow,imageability,conservative,no,m,0,1.01337200298,-1,93
8,001,0,recog,77,MUSIC,HF,lure,-,-,-,liberal,no,z,0,0.626805082895,-1,92
8,001,0,recog,78,WESTERN,HF,target,left,yellow,imageability,conservative,no,m,0,1.01306002017,-1,91
8,001,0,recog,79,UGLIEST,LF,lure,-,-,-,liberal,no,z,0,0.733326147776,-1,90
8,001,0,recog,80,WITHIN,HF,lure,-,-,-,liberal,yes,m,1,1.04001959157,1,91
8,001,0,recog,81,NORTH,HF,target,left,yellow,imageability,liberal,no,z,1,1.63964990468,3,94
8,001,0,recog,82,ORBITAL,LF,target,left,yellow,imageability,conservative,no,z,1,1.23989391851,1,95
8,001,0,recog,83,ALONE,HF,lure,-,-,-,conservative,no,m,1,0.933312290115,3,98
8,001,0,recog,84,ENGULF,LF,lure,-,-,-,conservative,no,m,1,0.919940287014,3,101
8,001,0,recog,85,LICENSING,LF,target,right,aqua,pleasantness,conservative,no,z,1,1.09322128352,1,102
8,001,0,recog,86,WHETHER,HF,target,right,aqua,pleasantness,liberal,no,m,0,2.49271991116,-3,99
8,001,0,recog,87,RUDIMENTS,LF,lure,-,-,-,conservative,no,z,0,2.13281964313,-3,96
8,001,0,recog,88,GIVEN,HF,lure,-,-,-,liberal,no,z,0,1.05318886065,-1,95
8,001,0,recog,89,PASSED,HF,target,right,aqua,pleasantness,conservative,no,z,1,0.759980335133,1,96
8,001,0,recog,90,EVENING,HF,lure,-,-,-,conservative,no,m,1,1.21314697945,3,99
8,001,0,recog,91,HERSELF,HF,lure,-,-,-,liberal,no,m,1,0.87986973708,1,100
8,001,0,recog,92,SHRED,LF,target,right,aqua,pleasantness,conservative,no,z,1,0.91985046817,1,101
8,001,0,recog,93,SOLEMNITY,LF,lure,-,-,-,conservative,no,m,1,0.893256037845,3,104
8,001,0,recog,94,HUBBUB,LF,target,right,aqua,pleasantness,liberal,no,z,1,1.17317761318,3,107
8,001,0,recog,95,KRAALS,LF,target,right,aqua,pleasantness,conservative,no,m,0,0.799975364003,-1,106
8,001,1,source,0,HOARD,LF,target,left,yellow,imageability,liberal,no,3,1,2.03962878801,-,-
8,001,1,source,1,SAFARI,LF,target,left,yellow,imageability,liberal,no,7,0,2.01267324947,-,-
8,001,1,source,2,FIVER,LF,target,left,yellow,imageability,conservative,no,3,1,0.973280556616,-,-
8,001,1,source,3,ERRANT,LF,target,left,yellow,imageability,liberal,no,3,1,0.893266669475,-,-
8,001,1,source,4,TAKEN,HF,target,left,yellow,imageability,conservative,no,7,0,1.54642092239,-,-
8,001,1,source,5,FAMILY,HF,target,right,aqua,pleasantness,liberal,no,3,0,0.773323742789,-,-
8,001,1,source,6,FRIEND,HF,target,left,yellow,imageability,liberal,no,7,0,1.69301693654,-,-
8,001,1,source,7,BECAME,HF,target,left,yellow,imageability,conservative,no,3,1,0.826528001111,-,-
8,001,1,source,8,AROUND,HF,target,left,yellow,imageability,conservative,no,3,1,0.679736585356,-,-
8,001,1,source,9,INSIDE,HF,target,right,aqua,pleasantness,liberal,no,3,0,1.10648183781,-,-
8,001,1,source,10,ASKED,HF,target,left,yellow,imageability,liberal,no,7,0,0.906597612542,-,-
8,001,1,source,11,SEABED,LF,target,right,aqua,pleasantness,liberal,no,3,0,0.733128179912,-,-
8,001,1,source,12,ENDEARING,LF,target,right,aqua,pleasantness,conservative,no,3,0,0.946708855801,-,-
8,001,1,source,13,ALREADY,HF,target,left,yellow,imageability,liberal,no,3,1,0.959786473191,-,-
8,001,1,source,14,AFTERNOON,HF,target,right,aqua,pleasantness,conservative,no,3,0,0.919695026707,-,-
8,001,1,source,15,CLUBBED,LF,target,right,aqua,pleasantness,conservative,yes,7,1,0.759830759373,-,-
8,001,1,source,16,POUNDS,HF,target,left,yellow,imageability,liberal,no,3,1,1.17312445515,-,-
8,001,1,source,17,PAGANISM,LF,target,left,yellow,imageability,conservative,no,3,1,0.853376123705,-,-
8,001,1,source,18,TRYING,HF,target,left,yellow,imageability,conservative,no,7,0,1.51949727873,-,-
8,001,1,source,19,ZIPPED,LF,target,right,aqua,pleasantness,liberal,no,7,1,0.919715190073,-,-
8,001,1,source,20,HYENA,LF,target,right,aqua,pleasantness,liberal,no,7,1,0.773262885981,-,-
8,001,1,source,21,METABOLIC,LF,target,left,yellow,imageability,liberal,no,3,1,1.06630973774,-,-
8,001,1,source,22,MERELY,HF,target,left,yellow,imageability,liberal,no,7,0,0.986380170332,-,-
8,001,1,source,23,DANDELION,LF,target,right,aqua,pleasantness,conservative,no,7,1,1.10644884326,-,-
8,001,1,source,24,MINISTER,HF,target,right,aqua,pleasantness,conservative,no,3,0,1.13297031878,-,-
8,001,1,source,25,DEPARTS,LF,target,left,yellow,imageability,conservative,no,7,0,0.839758860413,-,-
8,001,1,source,26,MEMBERS,HF,target,right,aqua,pleasantness,liberal,no,3,0,0.640008446644,-,-
8,001,1,source,27,AFRAID,HF,target,left,yellow,imageability,conservative,yes,7,0,0.653296863195,-,-
8,001,1,source,28,SKETCHY,LF,target,left,yellow,imageability,conservative,no,3,1,0.773299180204,-,-
8,001,1,source,29,BUBBLED,LF,target,right,aqua,pleasantness,conservative,no,3,0,1.41307923035,-,-
8,001,1,source,30,COILING,LF,target,right,aqua,pleasantness,conservative,no,3,0,0.680031704251,-,-
8,001,1,source,31,SOUND,HF,target,left,yellow,imageability,conservative,no,3,1,0.600003152853,-,-
8,001,1,source,32,BOGEY,LF,target,right,aqua,pleasantness,liberal,no,3,0,1.03983372159,-,-
8,001,1,source,33,ANYONE,HF,target,right,aqua,pleasantness,conservative,no,7,1,0.693393442314,-,-
8,001,1,source,34,IGNOBLE,LF,target,right,aqua,pleasantness,liberal,no,7,1,1.29313557071,-,-
8,001,1,source,35,SEEMED,HF,target,right,aqua,pleasantness,liberal,no,7,1,0.986348642036,-,-
8,001,1,source,36,VAULTED,LF,target,left,yellow,imageability,conservative,no,7,0,1.25313980866,-,-
8,001,1,source,37,DENIALS,LF,target,left,yellow,imageability,liberal,no,3,1,1.09320295299,-,-
8,001,1,source,38,KENNEL,LF,target,left,yellow,imageability,liberal,no,3,1,1.27962682303,-,-
8,001,1,source,39,WELCOMES,LF,target,right,aqua,pleasantness,conservative,no,7,1,0.706725851749,-,-
8,001,1,source,40,POWER,HF,target,right,aqua,pleasantness,conservative,no,3,0,0.759940374992,-,-
8,001,1,source,41,CARRIED,HF,target,right,aqua,pleasantness,conservative,yes,7,1,0.826665478759,-,-
8,001,1,source,42,BLOOD,HF,target,left,yellow,imageability,liberal,no,3,1,0.680144619197,-,-
8,001,1,source,43,NEARLY,HF,target,right,aqua,pleasantness,liberal,no,3,0,0.600047878921,-,-
8,001,1,source,44,BOUGH,LF,target,left,yellow,imageability,conservative,no,7,0,0.74666442303,-,-
8,001,1,source,45,SHEARING,LF,target,right,aqua,pleasantness,liberal,no,7,1,0.706639332348,-,-
8,001,1,source,46,TOWARDS,HF,target,right,aqua,pleasantness,conservative,no,3,0,0.573450882337,-,-
8,001,1,source,47,FINAL,HF,target,right,aqua,pleasantness,liberal,yes,7,1,0.626665405463,-,-
8,001,1,recog,0,AFTERNOON,HF,target,right,aqua,pleasantness,conservative,no,z,1,1.10659585276,1,107
8,001,1,recog,1,IGNOBLE,LF,target,right,aqua,pleasantness,liberal,no,z,1,0.546691845171,3,110
8,001,1,recog,2,SOPHISTS,LF,lure,-,-,-,liberal,no,m,1,0.733317715814,1,111
8,001,1,recog,3,SEEMED,HF,target,right,aqua,pleasantness,liberal,no,z,1,0.586730133742,3,114
8,001,1,recog,4,SHEARING,LF,target,right,aqua,pleasantness,liberal,no,z,1,0.613388720318,3,117
8,001,1,recog,5,POWER,HF,target,right,aqua,pleasantness,conservative,no,z,1,0.693385376944,1,118
8,001,1,recog,6,CHIEF,HF,lure,-,-,-,liberal,no,m,1,0.706678192713,1,119
8,001,1,recog,7,DOCTOR,HF,lure,-,-,-,conservative,no,m,1,0.946588975145,3,122
8,001,1,recog,8,DANDELION,LF,target,right,aqua,pleasantness,conservative,no,z,1,0.626863373443,1,123
8,001,1,recog,9,EIGHT,HF,lure,-,-,-,conservative,no,m,1,0.893227809109,3,126
8,001,1,recog,10,TESTIFIES,LF,lure,-,-,-,conservative,no,z,0,0.733367574518,-3,123
8,001,1,recog,11,AROUND,HF,target,left,yellow,imageability,conservative,no,z,1,0.959952912992,1,124
8,001,1,recog,12,PAGANISM,LF,target,left,yellow,imageability,conservative,no,z,1,0.706754813786,1,125
8,001,1,recog,13,GLASS,HF,lure,-,-,-,conservative,yes,m,1,1.106514466,3,128
8,001,1,recog,14,MERELY,HF,target,left,yellow,imageability,liberal,no,z,1,1.17320510873,3,131
8,001,1,recog,15,EXCEPT,HF,lure,-,-,-,conservative,no,z,0,1.99951314542,-3,128
8,001,1,recog,16,TATTERS,LF,lure,-,-,-,liberal,no,z,0,1.91958174494,-1,127
8,001,1,recog,17,CARRIED,HF,target,right,aqua,pleasantness,conservative,no,z,1,1.59975789243,1,128
8,001,1,recog,18,WELCOMES,LF,target,right,aqua,pleasantness,conservative,no,z,1,0.906608244171,1,129
8,001,1,recog,19,FORCE,HF,lure,-,-,-,liberal,no,z,0,0.706685891608,-1,128
8,001,1,recog,20,POUNDS,HF,target,left,yellow,imageability,liberal,no,z,1,0.600054844515,3,131
8,001,1,recog,21,ZIPPED,LF,target,right,aqua,pleasantness,liberal,no,z,1,0.573393324856,3,134
8,001,1,recog,22,ERRANT,LF,target,left,yellow,imageability,liberal,no,z,1,1.47972698009,3,137
8,001,1,recog,23,DUGOUTS,LF,lure,-,-,-,liberal,no,m,1,0.920051369118,1,138
8,001,1,recog,24,TAKEN,HF,target,left,yellow,imageability,conservative,no,z,1,0.759955405956,1,139
8,001,1,recog,25,GOVERNS,LF,lure,-,-,-,liberal,no,m,1,1.34642304876,1,140
8,001,1,recog,26,HOARD,LF,target,left,yellow,imageability,liberal,no,z,1,0.706780476263,3,143
8,001,1,recog,27,PRACTICE,HF,lure,-,-,-,liberal,no,z,0,1.15990972659,-1,142
8,001,1,recog,28,HYENA,LF,target,right,aqua,pleasantness,liberal,no,z,1,0.840098338784,3,145
8,001,1,recog,29,ASKED,HF,target,left,yellow,imageability,liberal,no,z,1,0.78669574589,3,148
8,001,1,recog,30,INSIDE,HF,target,right,aqua,pleasantness,liberal,no,z,1,0.853398853331,3,151
8,001,1,recog,31,CLUBBED,LF,target,right,aqua,pleasantness,conservative,no,z,1,0.906562784803,1,152
8,001,1,recog,32,SEABED,LF,target,right,aqua,pleasantness,liberal,no,m,0,1.90603303723,-3,149
8,001,1,recog,33,LAUNCHER,LF,lure,-,-,-,liberal,no,z,0,0.613425747724,-1,148
8,001,1,recog,34,PEOPLED,LF,lure,-,-,-,liberal,no,m,1,0.853241945384,1,149
8,001,1,recog,35,DERANGED,LF,lure,-,-,-,liberal,yes,m,1,0.706892291433,1,150
8,001,1,recog,36,SOUND,HF,target,left,yellow,imageability,conservative,no,m,0,0.973204668844,-1,149
8,001,1,recog,37,DEBACLE,LF,lure,-,-,-,liberal,no,m,1,0.906673500198,1,150
8,001,1,recog,38,BLOOD,HF,target,left,yellow,imageability,liberal,no,z,1,0.613464241498,3,153
8,001,1,recog,39,TRYING,HF,target,left,yellow,imageability,conservative,no,z,1,1.2397593736,1,154
8,001,1,recog,40,MINISTER,HF,target,right,aqua,pleasantness,conservative,no,m,0,1.29318836203,-1,153
8,001,1,recog,41,NEARLY,HF,target,right,aqua,pleasantness,liberal,no,z,1,0.666654935223,3,156
8,001,1,recog,42,JABBED,LF,lure,-,-,-,liberal,no,z,0,0.799977563671,-1,155
8,001,1,recog,43,LARGE,HF,lure,-,-,-,liberal,yes,m,1,0.586646547308,1,156
8,001,1,recog,44,MEMBERS,HF,target,right,aqua,pleasantness,liberal,no,z,1,0.893272901769,3,159
8,001,1,recog,45,ARTIFACTS,LF,lure,-,-,-,conservative,no,z,0,0.666702960734,-3,156
8,001,1,recog,46,WANTED,HF,lure,-,-,-,conservative,no,z,0,1.51969158056,-3,153
8,001,1,recog,47,JADED,LF,lure,-,-,-,conservative,no,m,1,1.14645853639,3,156
8,001,1,recog,48,BECAME,HF,target,left,yellow,imageability,conservative,no,z,1,2.13285593723,1,157
8,001,1,recog,49,YARDSTICK,LF,lure,-,-,-,conservative,no,m,1,0.786715909373,3,160
8,001,1,recog,50,ACORNS,LF,lure,-,-,-,conservative,no,z,0,1.81298772525,-3,157
8,001,1,recog,51,SAFARI,LF,target,left,yellow,imageability,liberal,no,z,1,0.933223937755,3,160
8,001,1,recog,52,FIVER,LF,target,left,yellow,imageability,conservative,no,z,1,0.800095244544,1,161
8,001,1,recog,53,DURING,HF,lure,-,-,-,liberal,no,m,1,2.03946088185,1,162
8,001,1,recog,54,POACHED,LF,lure,-,-,-,conservative,no,z,0,1.09326234343,-3,159
8,001,1,recog,55,TWENTY,HF,lure,-,-,-,conservative,no,m,1,1.31981285417,3,162
8,001,1,recog,56,ADOPTIVE,LF,lure,-,-,-,conservative,no,m,1,3.41229285777,3,165
8,001,1,recog,57,FAMILY,HF,target,right,aqua,pleasantness,liberal,no,z,1,2.06621735264,3,168
8,001,1,recog,58,BEGAN,HF,lure,-,-,-,conservative,no,m,1,1.25307968503,3,171
8,001,1,recog,59,VAULTED,LF,target,left,yellow,imageability,conservative,no,m,0,1.45283816417,-1,170
8,001,1,recog,60,FRIEND,HF,target,left,yellow,imageability,liberal,no,z,1,0.839744929224,3,173
8,001,1,recog,61,AIRBED,LF,lure,-,-,-,conservative,no,m,1,0.786606293754,3,176
8,001,1,recog,62,TAILED,LF,lure,-,-,-,liberal,no,z,0,1.18646712962,-1,175
8,001,1,recog,63,ENOUGH,HF,lure,-,-,-,liberal,no,z,0,0.893234041403,-1,174
8,001,1,recog,64,KENNEL,LF,target,left,yellow,imageability,liberal,no,z,1,0.666749153286,3,177
8,001,1,recog,65,DENIALS,LF,target,left,yellow,imageability,liberal,no,z,1,0.813039416913,3,180
8,001,1,recog,66,TROUBLE,HF,lure,-,-,-,liberal,no,m,1,0.866632278892,1,181
8,001,1,recog,67,TAVERNS,LF,lure,-,-,-,conservative,no,m,1,1.1464640355,3,184
8,001,1,recog,68,PILGRIM,LF,lure,-,-,-,conservative,no,m,1,1.00002822874,3,187
8,001,1,recog,69,GREATER,HF,lure,-,-,-,liberal,no,m,1,0.906523557846,1,188
8,001,1,recog,70,FINAL,HF,target,right,aqua,pleasantness,liberal,no,m,0,1.19981273694,-3,185
8,001,1,recog,71,ANYONE,HF,target,right,aqua,pleasantness,conservative,no,z,1,1.06648754235,1,186
8,001,1,recog,72,BUBBLED,LF,target,right,aqua,pleasantness,conservative,no,m,0,1.18626659538,-1,185
8,001,1,recog,73,AFRAID,HF,target,left,yellow,imageability,conservative,no,m,0,1.42640834046,-1,184
8,001,1,recog,74,TOWARDS,HF,target,right,aqua,pleasantness,conservative,no,z,1,0.653097062255,1,185
8,001,1,recog,75,METABOLIC,LF,target,left,yellow,imageability,liberal,no,z,1,0.679808806977,3,188
8,001,1,recog,76,HAVING,HF,lure,-,-,-,conservative,no,z,0,0.813307040255,-3,185
8,001,1,recog,77,PULSAR,LF,lure,-,-,-,liberal,no,m,1,0.799989661667,1,186
8,001,1,recog,78,UNMADE,LF,lure,-,-,-,conservative,no,m,1,0.919926722534,3,189
8,001,1,recog,79,ALREADY,HF,target,left,yellow,imageability,liberal,no,m,0,1.49306488875,-3,186
8,001,1,recog,80,AMONG,HF,lure,-,-,-,conservative,no,z,0,1.47982449771,-3,183
8,001,1,recog,81,HEDGED,LF,lure,-,-,-,conservative,no,m,1,0.680007874733,3,186
8,001,1,recog,82,FOAMING,LF,lure,-,-,-,liberal,no,m,1,0.879940858926,1,187
8,001,1,recog,83,ENDEARING,LF,target,right,aqua,pleasantness,conservative,no,z,1,0.719979807269,1,188
8,001,1,recog,84,BOGEY,LF,target,right,aqua,pleasantness,liberal,no,z,1,0.573307905463,3,191
8,001,1,recog,85,SKETCHY,LF,target,left,yellow,imageability,conservative,no,z,1,0.813336002291,1,192
8,001,1,recog,86,VILLAGE,HF,lure,-,-,-,liberal,no,m,1,1.09331623476,1,193
8,001,1,recog,87,HIGHER,HF,lure,-,-,-,conservative,no,m,1,0.839961960795,3,196
8,001,1,recog,88,VOICE,HF,lure,-,-,-,conservative,yes,m,1,0.78666421771,3,199
8,001,1,recog,89,ORDER,HF,lure,-,-,-,liberal,no,m,1,2.02618089726,1,200
8,001,1,recog,90,MOMENT,HF,lure,-,-,-,liberal,no,m,1,0.89334329043,1,201
8,001,1,recog,91,COILING,LF,target,right,aqua,pleasantness,conservative,no,z,1,0.82659435703,1,202
8,001,1,recog,92,DEPARTS,LF,target,left,yellow,imageability,conservative,no,z,1,1.38620251243,1,203
8,001,1,recog,93,CALLED,HF,lure,-,-,-,liberal,no,z,0,0.839749695151,-1,202
8,001,1,recog,94,BOUGH,LF,target,left,yellow,imageability,conservative,no,z,1,0.973228131654,1,203
8,001,1,recog,95,RIVER,HF,lure,-,-,-,conservative,no,m,1,0.706669760868,3,206
8,001,2,source,0,WATCH,HF,target,left,yellow,imageability,conservative,yes,3,1,3.05243401614,-,-
8,001,2,source,1,COUNCIL,HF,target,left,yellow,imageability,liberal,no,3,1,2.55928627425,-,-
8,001,2,source,2,TURNED,HF,target,right,aqua,pleasantness,liberal,no,7,1,1.05300189101,-,-
8,001,2,source,3,HYPNOSIS,LF,target,left,yellow,imageability,conservative,no,3,1,1.65304757026,-,-
8,001,2,source,4,GLEANED,LF,target,right,aqua,pleasantness,conservative,no,7,1,1.15992255777,-,-
8,001,2,source,5,HONKING,LF,target,right,aqua,pleasantness,conservative,no,7,1,0.853365125484,-,-
8,001,2,source,6,GARDEN,HF,target,left,yellow,imageability,conservative,no,3,1,0.986644127639,-,-
8,001,2,source,7,AQUARIUM,LF,target,left,yellow,imageability,conservative,no,3,1,0.693390142755,-,-
8,001,2,source,8,SORRY,HF,target,left,yellow,imageability,liberal,no,7,0,1.73305705807,-,-
8,001,2,source,9,SITTING,HF,target,left,yellow,imageability,liberal,no,3,1,0.97319770325,-,-
8,001,2,source,10,TRIED,HF,target,left,yellow,imageability,conservative,no,3,1,1.05321525643,-,-
8,001,2,source,11,ALTHOUGH,HF,target,left,yellow,imageability,liberal,no,3,1,0.786617291975,-,-
8,001,2,source,12,GEARING,LF,target,right,aqua,pleasantness,liberal,no,7,1,0.839892305434,-,-
8,001,2,source,13,RAFTERS,LF,target,left,yellow,imageability,liberal,no,7,0,1.03967168112,-,-
8,001,2,source,14,MONEY,HF,target,right,aqua,pleasantness,conservative,no,7,1,2.3859887803,-,-
8,001,2,source,15,SPEAK,HF,target,right,aqua,pleasantness,conservative,no,7,1,0.653387415223,-,-
8,001,2,source,16,TREES,HF,target,left,yellow,imageability,conservative,no,3,1,0.919931121869,-,-
8,001,2,source,17,SUFFERER,LF,target,left,yellow,imageability,liberal,no,3,1,0.999955273932,-,-
8,001,2,source,18,TEETERED,LF,target,right,aqua,pleasantness,conservative,no,3,0,1.14650362905,-,-
8,001,2,source,19,ROUND,HF,target,right,aqua,pleasantness,liberal,no,3,0,2.34584014304,-,-
8,001,2,source,20,BAOBAB,LF,target,right,aqua,pleasantness,liberal,no,7,1,0.706664994941,-,-
8,001,2,source,21,LETTER,HF,target,right,aqua,pleasantness,conservative,no,3,0,0.693360447651,-,-
8,001,2,source,22,NIBBLE,LF,target,right,aqua,pleasantness,conservative,yes,7,1,0.746630695183,-,-
8,001,2,source,23,HASSLE,LF,target,left,yellow,imageability,liberal,no,3,1,0.639821476885,-,-
8,001,2,source,24,EMACIATED,LF,target,left,yellow,imageability,liberal,no,3,1,0.786659818492,-,-
8,001,2,source,25,EXUDED,LF,target,right,aqua,pleasantness,conservative,no,3,0,1.45284183021,-,-
8,001,2,source,26,SULKED,LF,target,right,aqua,pleasantness,liberal,no,3,0,1.07961208548,-,-
8,001,2,source,27,LESSENED,LF,target,right,aqua,pleasantness,liberal,no,3,0,0.959870792925,-,-
8,001,2,source,28,ANGERS,LF,target,left,yellow,imageability,liberal,no,7,0,1.6929461814,-,-
8,001,2,source,29,SPICED,LF,target,left,yellow,imageability,conservative,yes,7,0,0.653138122289,-,-
8,001,2,source,30,REUNITED,LF,target,left,yellow,imageability,conservative,no,3,1,0.959936782136,-,-
8,001,2,source,31,KILOWATT,LF,target,left,yellow,imageability,conservative,no,3,1,0.826643849025,-,-
8,001,2,source,32,LIVED,HF,target,right,aqua,pleasantness,liberal,no,3,0,3.17247519351,-,-
8,001,2,source,33,INMATE,LF,target,right,aqua,pleasantness,conservative,no,7,1,1.99958096782,-,-
8,001,2,source,34,IDLING,LF,target,right,aqua,pleasantness,liberal,no,7,1,1.39975745254,-,-
8,001,2,source,35,KITCHEN,HF,target,left,yellow,imageability,conservative,no,3,1,0.986639361829,-,-
8,001,2,source,36,FRACTIONS,LF,target,left,yellow,imageability,conservative,no,7,0,1.65298268083,-,-
8,001,2,source,37,PLACE,HF,target,left,yellow,imageability,conservative,yes,7,0,0.639826242696,-,-
8,001,2,source,38,SHALL,HF,target,right,aqua,pleasantness,liberal,no,3,0,0.679861231707,-,-
8,001,2,source,39,MORNING,HF,target,right,aqua,pleasantness,liberal,no,7,1,0.839741263189,-,-
8,001,2,source,40,EXPECT,HF,target,right,aqua,pleasantness,conservative,no,7,1,0.773318976979,-,-
8,001,2,source,41,CHOICE,HF,target,right,aqua,pleasantness,liberal,no,7,1,0.613389453618,-,-
8,001,2,source,42,OFFER,HF,target,left,yellow,imageability,liberal,no,7,0,0.759945140802,-,-
8,001,2,source,43,YACHTING,LF,target,right,aqua,pleasantness,liberal,no,3,0,0.853300236049,-,-
8,001,2,source,44,FUTURE,HF,target,left,yellow,imageability,liberal,no,3,1,1.21324413049,-,-
8,001,2,source,45,IMPORTANT,HF,target,right,aqua,pleasantness,conservative,no,3,0,1.29285768222,-,-
8,001,2,source,46,OBVIOUSLY,HF,target,right,aqua,pleasantness,conservative,no,3,0,1.07965424529,-,-
8,001,2,source,47,TONAL,LF,target,left,yellow,imageability,liberal,no,3,1,0.986328845262,-,-
8,001,2,recog,0,CASES,HF,lure,-,-,-,conservative,no,z,0,1.15979387867,-3,203
8,001,2,recog,1,SITTING,HF,target,left,yellow,imageability,liberal,no,z,1,0.786758802482,3,206
8,001,2,recog,2,FREEDOM,HF,lure,-,-,-,liberal,no,m,1,3.14567619632,1,207
8,001,2,recog,3,UNNAMED,LF,lure,-,-,-,liberal,no,m,1,1.01328108448,1,208
8,001,2,recog,4,THEORY,HF,lure,-,-,-,conservative,no,m,1,0.999892584048,3,211
8,001,2,recog,5,UPKEEP,LF,lure,-,-,-,conservative,no,m,1,0.853075139108,3,214
8,001,2,recog,6,MAUSOLEUM,LF,lure,-,-,-,liberal,no,m,1,0.919767981512,1,215
8,001,2,recog,7,ALABASTER,LF,lure,-,-,-,conservative,no,m,1,0.75972517638,3,218
8,001,2,recog,8,SPICED,LF,target,left,yellow,imageability,conservative,no,z,1,0.866624213522,1,219
8,001,2,recog,9,WHITE,HF,lure,-,-,-,liberal,no,m,1,0.919958984014,1,220
8,001,2,recog,10,SPEAK,HF,target,right,aqua,pleasantness,conservative,no,z,1,0.933237135643,1,221
8,001,2,recog,11,COUNCIL,HF,target,left,yellow,imageability,liberal,no,z,1,2.11945863825,3,224
8,001,2,recog,12,BAOBAB,LF,target,right,aqua,pleasantness,liberal,no,z,1,1.63964953809,3,227
8,001,2,recog,13,TRIED,HF,target,left,yellow,imageability,conservative,no,z,1,1.83957775624,1,228
8,001,2,recog,14,WATCH,HF,target,left,yellow,imageability,conservative,no,z,1,0.600209919387,1,229
8,001,2,recog,15,OUSTED,LF,lure,-,-,-,liberal,yes,m,1,0.973064258229,1,230
8,001,2,recog,16,WOMAN,HF,lure,-,-,-,conservative,no,m,1,4.82486470358,3,233
8,001,2,recog,17,WHATEVER,HF,lure,-,-,-,conservative,no,m,1,1.47947805387,3,236
8,001,2,recog,18,LETTER,HF,target,right,aqua,pleasantness,conservative,no,z,1,1.25309214962,1,237
8,001,2,recog,19,BROUGHT,HF,lure,-,-,-,liberal,no,m,1,1.14651939319,1,238
8,001,2,recog,20,FRACTIONS,LF,target,left,yellow,imageability,conservative,no,z,1,0.906394512043,1,239
8,001,2,recog,21,YORKER,LF,lure,-,-,-,liberal,yes,m,1,0.693308022688,1,240
8,001,2,recog,22,HARDLY,HF,lure,-,-,-,conservative,no,m,1,1.09319965367,3,243
8,001,2,recog,23,ZOOLOGY,LF,lure,-,-,-,conservative,yes,m,1,0.853247077903,3,246
8,001,2,recog,24,UNDER,HF,lure,-,-,-,liberal,no,m,1,1.06647947698,1,247
8,001,2,recog,25,GLEANED,LF,target,right,aqua,pleasantness,conservative,no,z,1,0.919888961944,1,248
8,001,2,recog,26,VALUE,HF,lure,-,-,-,conservative,no,m,1,0.879779918236,3,251
8,001,2,recog,27,DEXTERITY,LF,lure,-,-,-,conservative,no,m,1,1.35973969416,3,254
8,001,2,recog,28,COMES,HF,lure,-,-,-,conservative,no,m,1,2.39938021358,3,257
8,001,2,recog,29,PAPER,HF,lure,-,-,-,liberal,no,m,1,1.11990993191,1,258
8,001,2,recog,30,GARDEN,HF,target,left,yellow,imageability,conservative,no,z,1,0.786409425666,1,259
8,001,2,recog,31,ICONS,LF,lure,-,-,-,liberal,no,m,1,0.786627557012,1,260
8,001,2,recog,32,RAFTERS,LF,target,left,yellow,imageability,liberal,no,z,1,0.919898493681,3,263
8,001,2,recog,33,MATERIAL,HF,lure,-,-,-,conservative,no,m,1,0.813368996838,3,266
8,001,2,recog,34,LESSENED,LF,target,right,aqua,pleasantness,liberal,no,z,1,0.746441159165,3,269
8,001,2,recog,35,HASSLE,LF,target,left,yellow,imageability,liberal,no,z,1,1.15962780558,3,272
8,001,2,recog,36,IDLING,LF,target,right,aqua,pleasantness,liberal,yes,m,0,0.653425542405,-3,269
8,001,2,recog,37,INMATE,LF,target,right,aqua,pleasantness,conservative,no,z,1,2.06621918571,1,270
8,001,2,recog,38,AGONIZED,LF,lure,-,-,-,liberal,no,z,0,1.9459287154,-1,269
8,001,2,recog,39,RIPEN,LF,lure,-,-,-,conservative,no,m,1,1.57306997722,3,272
8,001,2,recog,40,KNUCKLE,LF,lure,-,-,-,conservative,no,m,1,1.39976001892,3,275
8,001,2,recog,41,YACHTING,LF,target,right,aqua,pleasantness,liberal,no,z,1,1.0132616543,3,278
8,001,2,recog,42,TONAL,LF,target,left,yellow,imageability,liberal,no,z,1,0.573515771772,3,281
8,001,2,recog,43,SORRY,HF,target,left,yellow,imageability,liberal,no,z,1,0.63998608361,3,284
8,001,2,recog,44,EMACIATED,LF,target,left,yellow,imageability,liberal,no,z,1,0.799964732374,3,287
8,001,2,recog,45,HONKING,LF,target,right,aqua,pleasantness,conservative,no,z,1,0.853296569898,1,288
8,001,2,recog,46,EXPECT,HF,target,right,aqua,pleasantness,conservative,no,z,1,0.74664829229,1,289
8,001,2,recog,47,BRING,HF,lure,-,-,-,conservative,no,z,0,1.07998712466,-3,286
8,001,2,recog,48,STEADFAST,LF,lure,-,-,-,liberal,no,m,1,0.813305940363,1,287
8,001,2,recog,49,IMPORTANT,HF,target,right,aqua,pleasantness,conservative,no,z,1,0.760036426131,1,288
8,001,2,recog,50,KILOWATT,LF,target,left,yellow,imageability,conservative,no,z,1,0.626761456719,1,289
8,001,2,recog,51,ROUND,HF,target,right,aqua,pleasantness,liberal,no,z,1,0.879601747147,3,292
8,001,2,recog,52,ANSWER,HF,lure,-,-,-,liberal,no,z,0,4.11880681035,-1,291
8,001,2,recog,53,SHALL,HF,target,right,aqua,pleasantness,liberal,no,m,0,1.01323342544,-3,288
8,001,2,recog,54,NIBBLE,LF,target,right,aqua,pleasantness,conservative,no,z,1,0.773361870088,1,289
8,001,2,recog,55,ANGERS,LF,target,left,yellow,imageability,liberal,no,z,1,0.919859633315,3,292
8,001,2,recog,56,OBVIOUSLY,HF,target,right,aqua,pleasantness,conservative,no,z,1,0.93325729901,1,293
8,001,2,recog,57,SULKED,LF,target,right,aqua,pleasantness,liberal,no,z,1,0.986517648096,3,296
8,001,2,recog,58,UNGAINLY,LF,lure,-,-,-,conservative,no,z,0,3.82529436739,-3,293
8,001,2,recog,59,GEARING,LF,target,right,aqua,pleasantness,liberal,no,z,1,0.679971580626,3,296
8,001,2,recog,60,ERADICATE,LF,lure,-,-,-,liberal,no,m,1,1.59966954007,1,297
8,001,2,recog,61,UNCANNILY,LF,lure,-,-,-,liberal,no,m,1,0.919890061719,1,298
8,001,2,recog,62,MICROCOSM,LF,lure,-,-,-,conservative,no,m,1,0.866348158219,3,301
8,001,2,recog,63,ALTHOUGH,HF,target,left,yellow,imageability,liberal,no,z,1,0.853294003638,3,304
8,001,2,recog,64,TURNED,HF,target,right,aqua,pleasantness,liberal,no,z,1,1.0399429705,3,307
8,001,2,recog,65,GENERAL,HF,lure,-,-,-,conservative,no,m,1,0.932988942368,3,310
8,001,2,recog,66,FLOOR,HF,lure,-,-,-,liberal,no,m,1,4.41159996984,1,311
8,001,2,recog,67,FUTURE,HF,target,left,yellow,imageability,liberal,no,z,1,0.760034593055,3,314
8,001,2,recog,68,TEETERED,LF,target,right,aqua,pleasantness,conservative,no,z,1,1.1332016479,1,315
8,001,2,recog,69,MORNING,HF,target,right,aqua,pleasantness,liberal,no,z,1,0.586801988771,3,318
8,001,2,recog,70,REUNITED,LF,target,left,yellow,imageability,conservative,no,m,0,0.85334899486,-1,317
8,001,2,recog,71,CAPITAL,HF,lure,-,-,-,liberal,no,z,0,1.09321248485,-1,316
8,001,2,recog,72,VELVETY,LF,lure,-,-,-,conservative,no,z,0,1.82623141573,-3,313
8,001,2,recog,73,KITCHEN,HF,target,left,yellow,imageability,conservative,no,z,1,0.746376636322,1,314
8,001,2,recog,74,BABBLED,LF,lure,-,-,-,liberal,no,m,1,1.11980618199,1,315
8,001,2,recog,75,TRUTH,HF,lure,-,-,-,liberal,no,m,1,1.01342002861,1,316
8,001,2,recog,76,OFFER,HF,target,left,yellow,imageability,liberal,no,z,1,0.786631956347,3,319
8,001,2,recog,77,SUFFERER,LF,target,left,yellow,imageability,liberal,no,z,1,0.826412153081,3,322
8,001,2,recog,78,ADVERSELY,LF,lure,-,-,-,conservative,no,m,1,0.853328831494,3,325
8,001,2,recog,79,HISTORY,HF,lure,-,-,-,conservative,no,m,1,0.95997344295,3,328
8,001,2,recog,80,TREES,HF,target,left,yellow,imageability,conservative,no,z,1,1.22647902241,1,329
8,001,2,recog,81,LULLED,LF,lure,-,-,-,conservative,no,z,0,1.11992349639,-3,326
8,001,2,recog,82,NERVY,LF,lure,-,-,-,liberal,no,m,1,1.35969460139,1,327
8,001,2,recog,83,AQUARIUM,LF,target,left,yellow,imageability,conservative,no,z,1,0.706454928848,1,328
8,001,2,recog,84,MONEY,HF,target,right,aqua,pleasantness,conservative,no,z,1,1.74622926011,1,329
8,001,2,recog,85,THOUSAND,HF,lure,-,-,-,liberal,no,m,1,2.29278839345,1,330
8,001,2,recog,86,CHOICE,HF,target,right,aqua,pleasantness,liberal,no,m,0,0.826702506165,-3,327
8,001,2,recog,87,BODICE,LF,lure,-,-,-,liberal,no,m,1,2.15936384827,1,328
8,001,2,recog,88,LIVED,HF,target,right,aqua,pleasantness,liberal,no,z,1,1.02651670959,3,331
8,001,2,recog,89,REQUIRED,HF,lure,-,-,-,liberal,no,m,1,1.4797764722,1,332
8,001,2,recog,90,PLACE,HF,target,left,yellow,imageability,conservative,no,m,0,1.67960314022,-1,331
8,001,2,recog,91,VEGAN,LF,lure,-,-,-,conservative,no,m,1,0.78671260993,3,334
8,001,2,recog,92,EXUDED,LF,target,right,aqua,pleasantness,conservative,no,z,1,1.65294858627,1,335
8,001,2,recog,93,BUILDING,HF,lure,-,-,-,conservative,no,m,1,0.973282389576,3,338
8,001,2,recog,94,HYPNOSIS,LF,target,left,yellow,imageability,conservative,no,z,1,0.759949906846,1,339
8,001,2,recog,95,PROBABLY,HF,lure,-,-,-,liberal,no,z,0,1.22659963614,-1,338
8,001,3,source,0,SLEEP,HF,target,left,yellow,imageability,conservative,yes,7,0,1.23981509788,-,-
8,001,3,source,1,EMBATTLED,LF,target,right,aqua,pleasantness,liberal,no,7,1,2.039464548,-,-
8,001,3,source,2,VARIOUS,HF,target,left,yellow,imageability,conservative,no,3,1,1.09320845222,-,-
8,001,3,source,3,HOURS,HF,target,right,aqua,pleasantness,conservative,yes,7,1,0.666777015431,-,-
8,001,3,source,4,LYNCH,LF,target,left,yellow,imageability,liberal,no,3,1,0.799723138101,-,-
8,001,3,source,5,COERCION,LF,target,left,yellow,imageability,conservative,no,7,0,1.05317822914,-,-
8,001,3,source,6,CRACKLE,LF,target,left,yellow,imageability,liberal,no,3,1,0.906722259009,-,-
8,001,3,source,7,GUILDHALL,LF,target,left,yellow,imageability,liberal,no,3,1,0.826635417063,-,-
8,001,3,source,8,HUSBAND,HF,target,right,aqua,pleasantness,liberal,no,7,1,1.15983273904,-,-
8,001,3,source,9,PARENTS,HF,target,left,yellow,imageability,conservative,no,3,1,1.0665458329,-,-
8,001,3,source,10,ACROSS,HF,target,right,aqua,pleasantness,conservative,no,7,1,1.21297064133,-,-
8,001,3,source,11,KANGAROO,LF,target,right,aqua,pleasantness,conservative,no,7,1,0.799935770337,-,-
8,001,3,source,12,VETOED,LF,target,left,yellow,imageability,conservative,yes,7,0,0.546530538006,-,-
8,001,3,source,13,VINEYARDS,LF,target,right,aqua,pleasantness,conservative,no,7,1,0.70669175731,-,-
8,001,3,source,14,JOURNEYED,LF,target,right,aqua,pleasantness,conservative,no,3,0,0.946595207555,-,-
8,001,3,source,15,BOOKS,HF,target,left,yellow,imageability,conservative,no,3,1,1.10631283186,-,-
8,001,3,source,16,CEASELESS,LF,target,right,aqua,pleasantness,liberal,no,7,1,0.626715630759,-,-
8,001,3,source,17,BASIC,HF,target,right,aqua,pleasantness,conservative,no,7,1,0.879676534911,-,-
8,001,3,source,18,NEITHER,HF,target,left,yellow,imageability,liberal,no,7,0,0.879913729965,-,-
8,001,3,source,19,TODAY,HF,target,left,yellow,imageability,liberal,no,3,1,0.879735192168,-,-
8,001,3,source,20,INHABITS,LF,target,right,aqua,pleasantness,liberal,no,3,0,0.759788966156,-,-
8,001,3,source,21,SUCCESS,HF,target,left,yellow,imageability,liberal,no,7,0,0.626668338431,-,-
8,001,3,source,22,RAVAGES,LF,target,left,yellow,imageability,conservative,no,7,0,0.600068042404,-,-
8,001,3,source,23,BIGNESS,LF,target,left,yellow,imageability,conservative,no,3,1,1.22660696832,-,-
8,001,3,source,24,CERTAIN,HF,target,left,yellow,imageability,liberal,no,3,1,1.29295813269,-,-
8,001,3,source,25,ECLECTIC,LF,target,right,aqua,pleasantness,liberal,no,3,0,0.733402035548,-,-
8,001,3,source,26,LIKELY,HF,target,right,aqua,pleasantness,conservative,no,3,0,1.05319362658,-,-
8,001,3,source,27,DROLL,LF,target,right,aqua,pleasantness,liberal,no,3,0,0.999906148529,-,-
8,001,3,source,28,UNSAVOURY,LF,target,right,aqua,pleasantness,conservative,no,7,1,0.9866092999,-,-
8,001,3,source,29,SUPPORT,HF,target,right,aqua,pleasantness,liberal,no,3,0,0.74673114554,-,-
8,001,3,source,30,BEREAVED,LF,target,left,yellow,imageability,conservative,yes,7,0,0.66647786391,-,-
8,001,3,source,31,PRIVATE,HF,target,right,aqua,pleasantness,liberal,no,7,1,0.866618714412,-,-
8,001,3,source,32,ARRIVED,HF,target,left,yellow,imageability,conservative,no,3,1,0.573247415246,-,-
8,001,3,source,33,PIECE,HF,target,right,aqua,pleasantness,liberal,no,7,1,0.613392386469,-,-
8,001,3,source,34,HYACINTHS,LF,target,left,yellow,imageability,liberal,no,3,1,0.733121214318,-,-
8,001,3,source,35,INNATELY,LF,target,left,yellow,imageability,liberal,no,3,1,0.706750781043,-,-
8,001,3,source,36,GROUND,HF,target,right,aqua,pleasantness,liberal,no,3,0,1.38653832476,-,-
8,001,3,source,37,DOUBT,HF,target,left,yellow,imageability,liberal,no,7,0,0.786622424494,-,-
8,001,3,source,38,GIRLS,HF,target,right,aqua,pleasantness,liberal,no,7,1,0.746622996405,-,-
8,001,3,source,39,LOCAL,HF,target,left,yellow,imageability,liberal,no,7,0,1.73303322855,-,-
8,001,3,source,40,GLUTINOUS,LF,target,right,aqua,pleasantness,conservative,no,3,0,1.05315916555,-,-
8,001,3,source,41,HANDS,HF,target,right,aqua,pleasantness,conservative,no,3,0,1.13301614462,-,-
8,001,3,source,42,AEGIS,LF,target,left,yellow,imageability,conservative,no,7,0,0.920055401628,-,-
8,001,3,source,43,WEDGES,LF,target,right,aqua,pleasantness,conservative,no,3,0,0.799984529149,-,-
8,001,3,source,44,CICADAS,LF,target,left,yellow,imageability,liberal,no,3,1,0.840031982865,-,-
8,001,3,source,45,DOGMAS,LF,target,right,aqua,pleasantness,liberal,no,3,0,0.880016013398,-,-
8,001,3,source,46,CLASS,HF,target,right,aqua,pleasantness,conservative,no,7,1,1.05299565871,-,-
8,001,3,source,47,SECOND,HF,target,left,yellow,imageability,conservative,no,7,0,0.933250333415,-,-
8,001,3,recog,0,QUALITY,HF,lure,-,-,-,conservative,no,z,0,3.62552745629,-3,335
8,001,3,recog,1,INHABITS,LF,target,right,aqua,pleasantness,liberal,no,m,0,1.89283663896,-3,332
8,001,3,recog,2,COERCION,LF,target,left,yellow,imageability,conservative,no,z,1,2.13259344641,1,333
8,001,3,recog,3,CLASS,HF,target,right,aqua,pleasantness,conservative,no,z,1,0.546755268355,1,334
8,001,3,recog,4,ARRIVED,HF,target,left,yellow,imageability,conservative,yes,z,1,0.600019283476,1,335
8,001,3,recog,5,PIECE,HF,target,right,aqua,pleasantness,liberal,yes,z,1,0.693423504126,3,338
8,001,3,recog,6,SECOND,HF,target,left,yellow,imageability,conservative,no,z,1,1.99945448816,1,339
8,001,3,recog,7,EDUCATION,HF,lure,-,-,-,conservative,no,m,1,0.759981068433,3,342
8,001,3,recog,8,CRACKLE,LF,target,left,yellow,imageability,liberal,no,z,1,0.666505359462,3,345
8,001,3,recog,9,DOGMAS,LF,target,right,aqua,pleasantness,liberal,no,z,1,0.599839645904,3,348
8,001,3,recog,10,JUMBO,LF,lure,-,-,-,conservative,no,m,1,0.73328728741,3,351
8,001,3,recog,11,TELEPHONE,HF,lure,-,-,-,conservative,no,m,1,0.759976302506,3,354
8,001,3,recog,12,LIKELY,HF,target,right,aqua,pleasantness,conservative,no,z,1,0.800022289739,1,355
8,001,3,recog,13,CICADAS,LF,target,left,yellow,imageability,liberal,no,z,1,0.62671599735,3,358
8,001,3,recog,14,POSITION,HF,lure,-,-,-,liberal,no,z,0,0.600053744623,-1,357
8,001,3,recog,15,BAYING,LF,lure,-,-,-,liberal,no,m,1,0.679970114143,1,358
8,001,3,recog,16,ELICIT,LF,lure,-,-,-,liberal,no,m,1,0.653377883486,1,359
8,001,3,recog,17,FRONT,HF,lure,-,-,-,conservative,no,m,1,0.839926766464,3,362
8,001,3,recog,18,HANDS,HF,target,right,aqua,pleasantness,conservative,no,m,0,1.71970631822,-1,361
8,001,3,recog,19,GROUND,HF,target,right,aqua,pleasantness,liberal,no,z,1,0.559890809702,3,364
8,001,3,recog,20,DEVELOPED,HF,lure,-,-,-,conservative,no,z,0,1.19981127058,-3,361
8,001,3,recog,21,QUESTION,HF,lure,-,-,-,liberal,no,m,1,1.05328344542,1,362
8,001,3,recog,22,DOWDY,LF,lure,-,-,-,liberal,no,m,1,0.813038317021,1,363
8,001,3,recog,23,SUCCESS,HF,target,left,yellow,imageability,liberal,no,m,0,1.82623911451,-3,360
8,001,3,recog,24,BEREAVED,LF,target,left,yellow,imageability,conservative,no,m,0,3.55877485685,-1,359
8,001,3,recog,25,HOURS,HF,target,right,aqua,pleasantness,conservative,no,m,0,1.03967168112,-1,358
8,001,3,recog,26,ASTERN,LF,lure,-,-,-,liberal,no,m,1,1.41303230473,1,359
8,001,3,recog,27,NINETIES,LF,lure,-,-,-,conservative,no,m,1,0.99978590128,3,362
8,001,3,recog,28,NEITHER,HF,target,left,yellow,imageability,liberal,no,z,1,2.51931030897,3,365
8,001,3,recog,29,LOCAL,HF,target,left,yellow,imageability,liberal,no,z,1,0.746682753437,3,368
8,001,3,recog,30,REGAINING,LF,lure,-,-,-,conservative,no,m,1,0.90635345201,3,371
8,001,3,recog,31,INNATELY,LF,target,left,yellow,imageability,liberal,no,z,1,0.813304473995,3,374
8,001,3,recog,32,HYACINTHS,LF,target,left,yellow,imageability,liberal,no,z,1,0.760010396945,3,377
8,001,3,recog,33,SQUADRONS,LF,lure,-,-,-,conservative,no,m,1,0.773048420786,3,380
8,001,3,recog,34,PARENTS,HF,target,left,yellow,imageability,conservative,no,z,1,0.786763568409,1,381
8,001,3,recog,35,GUILDHALL,LF,target,left,yellow,imageability,liberal,no,z,1,0.666734122438,3,384
8,001,3,recog,36,SENSE,HF,lure,-,-,-,conservative,no,m,1,0.786660185084,3,387
8,001,3,recog,37,VINEYARDS,LF,target,right,aqua,pleasantness,conservative,no,z,1,0.680065432098,1,388
8,001,3,recog,38,EGGSHELL,LF,lure,-,-,-,conservative,no,m,1,2.97247145406,3,391
8,001,3,recog,39,BUGGED,LF,lure,-,-,-,conservative,no,m,1,0.746683486621,3,394
8,001,3,recog,40,WEDGES,LF,target,right,aqua,pleasantness,conservative,no,z,1,0.853379789856,1,395
8,001,3,recog,41,CENTRAL,HF,lure,-,-,-,liberal,no,m,1,0.866699367994,1,396
8,001,3,recog,42,BOOKS,HF,target,left,yellow,imageability,conservative,no,z,1,3.59885787149,1,397
8,001,3,recog,43,BAGGY,LF,lure,-,-,-,conservative,no,z,0,0.919898127089,-3,394
8,001,3,recog,44,TODAY,HF,target,left,yellow,imageability,liberal,no,m,0,0.7600437582,-3,391
8,001,3,recog,45,SUPPORT,HF,target,right,aqua,pleasantness,liberal,no,z,1,1.03965078446,3,394
8,001,3,recog,46,SLEEP,HF,target,left,yellow,imageability,conservative,no,m,0,0.946589341853,-1,393
8,001,3,recog,47,RAVAGES,LF,target,left,yellow,imageability,conservative,no,z,1,0.786632322939,1,394
8,001,3,recog,48,FUELLED,LF,lure,-,-,-,liberal,no,z,0,1.26652317657,-1,393
8,001,3,recog,49,UNTIL,HF,lure,-,-,-,liberal,no,m,1,0.906376914936,1,394
8,001,3,recog,50,AEGIS,LF,target,left,yellow,imageability,conservative,no,m,0,2.14612345723,-1,393
8,001,3,recog,51,BASIC,HF,target,right,aqua,pleasantness,conservative,no,z,1,0.693464564043,1,394
8,001,3,recog,52,HAUNCHES,LF,lure,-,-,-,liberal,no,m,1,2.18610198877,1,395
8,001,3,recog,53,USUAL,HF,lure,-,-,-,liberal,no,m,1,0.933275262709,1,396
8,001,3,recog,54,GLUTINOUS,LF,target,right,aqua,pleasantness,conservative,no,z,1,2.1860744931,1,397
8,001,3,recog,55,APTLY,LF,lure,-,-,-,liberal,no,z,0,1.51981952647,-1,396
8,001,3,recog,56,ROVERS,LF,lure,-,-,-,conservative,no,m,1,2.13288123312,3,399
8,001,3,recog,57,REACHED,HF,lure,-,-,-,conservative,no,z,0,2.58590380079,-3,396
8,001,3,recog,58,WAXEN,LF,lure,-,-,-,conservative,no,m,1,1.19980393839,3,399
8,001,3,recog,59,ENTIRELY,HF,lure,-,-,-,conservative,yes,m,1,1.34648977127,3,402
8,001,3,recog,60,TWINE,LF,lure,-,-,-,liberal,no,z,0,1.3997479208,-1,401
8,001,3,recog,61,AVAILABLE,HF,lure,-,-,-,liberal,no,z,0,2.53260495781,-1,400
8,001,3,recog,62,GIRLS,HF,target,right,aqua,pleasantness,liberal,no,z,1,1.13322657731,3,403
8,001,3,recog,63,SUBJECT,HF,lure,-,-,-,conservative,no,m,1,1.57308794104,3,406
8,001,3,recog,64,EMPATHY,LF,lure,-,-,-,conservative,no,m,1,4.59847916604,3,409
8,001,3,recog,65,PRIVATE,HF,target,right,aqua,pleasantness,liberal,no,m,0,4.9183679081,-3,406
8,001,3,recog,66,LOOKED,HF,lure,-,-,-,liberal,no,z,0,2.10608443548,-1,405
8,001,3,recog,67,COVER,HF,lure,-,-,-,conservative,no,z,0,2.61258621688,-3,402
8,001,3,recog,68,SPOKE,HF,lure,-,-,-,liberal,no,m,1,1.98622656194,1,403
8,001,3,recog,69,FLAGGED,LF,lure,-,-,-,conservative,yes,z,0,3.07906364091,-3,400
8,001,3,recog,70,ABOVE,HF,lure,-,-,-,liberal,no,m,1,1.4663799064,1,401
8,001,3,recog,71,VARIOUS,HF,target,left,yellow,imageability,conservative,no,m,0,1.09315126145,-1,400
8,001,3,recog,72,PUTTS,LF,lure,-,-,-,liberal,no,m,1,1.22643576271,1,401
8,001,3,recog,73,DOUBT,HF,target,left,yellow,imageability,liberal,no,z,1,1.02653870604,3,404
8,001,3,recog,74,ECLECTIC,LF,target,right,aqua,pleasantness,liberal,no,z,1,1.11996675609,3,407
8,001,3,recog,75,ACROSS,HF,target,right,aqua,pleasantness,conservative,no,z,1,0.826370359981,1,408
8,001,3,recog,76,LYNCH,LF,target,left,yellow,imageability,liberal,no,z,1,0.639991949312,3,411
8,001,3,recog,77,DROLL,LF,target,right,aqua,pleasantness,liberal,no,z,1,1.30651893863,3,414
8,001,3,recog,78,UNSAVOURY,LF,target,right,aqua,pleasantness,conservative,no,z,1,1.23985029222,1,415
8,001,3,recog,79,JOURNEYED,LF,target,right,aqua,pleasantness,conservative,no,z,1,0.853327731602,1,416
8,001,3,recog,80,URBANE,LF,lure,-,-,-,liberal,no,m,1,1.42615758104,1,417
8,001,3,recog,81,KANGAROO,LF,target,right,aqua,pleasantness,conservative,no,z,1,0.999718445586,1,418
8,001,3,recog,82,BIGNESS,LF,target,left,yellow,imageability,conservative,no,z,1,0.893227809109,1,419
8,001,3,recog,83,STOOD,HF,lure,-,-,-,conservative,no,m,1,1.26654443971,3,422
8,001,3,recog,84,LIGHT,HF,lure,-,-,-,liberal,no,m,1,0.879949657479,1,423
8,001,3,recog,85,PREPARED,HF,lure,-,-,-,conservative,no,m,1,1.0532104905,3,426
8,001,3,recog,86,EMBATTLED,LF,target,right,aqua,pleasantness,liberal,no,m,0,1.13295785419,-3,423
8,001,3,recog,87,INCLUDING,HF,lure,-,-,-,liberal,no,m,1,1.05321745609,1,424
8,001,3,recog,88,OFTEN,HF,lure,-,-,-,liberal,no,m,1,1.21313451487,1,425
8,001,3,recog,89,CERTAIN,HF,target,left,yellow,imageability,liberal,no,z,1,1.06660045742,3,428
8,001,3,recog,90,RIMMED,LF,lure,-,-,-,conservative,no,m,1,2.2127202485,3,431
8,001,3,recog,91,VETOED,LF,target,left,yellow,imageability,conservative,no,m,0,0.893296364695,-1,430
8,001,3,recog,92,DYNAMISM,LF,lure,-,-,-,liberal,no,m,1,0.840028683422,1,431
8,001,3,recog,93,AILMENT,LF,lure,-,-,-,liberal,no,m,1,1.02653247374,1,432
8,001,3,recog,94,HUSBAND,HF,target,right,aqua,pleasantness,liberal,no,z,1,1.18630655564,3,435
8,001,3,recog,95,CEASELESS,LF,target,right,aqua,pleasantness,liberal,no,m,0,0.959930549958,-3,432
8,001,4,source,0,QUICKLY,HF,target,left,yellow,imageability,conservative,no,3,1,1.11981351417,-,-
8,001,4,source,1,CAUGHT,HF,target,right,aqua,pleasantness,liberal,yes,7,1,1.266299546,-,-
8,001,4,source,2,TACITLY,LF,target,left,yellow,imageability,conservative,no,3,1,1.85305937496,-,-
8,001,4,source,3,CRUCIALLY,LF,target,right,aqua,pleasantness,conservative,no,7,1,0.893286832841,-,-
8,001,4,source,4,SERIOUS,HF,target,left,yellow,imageability,conservative,no,3,1,0.52015533892,-,-
8,001,4,source,5,FISHY,LF,target,right,aqua,pleasantness,conservative,no,3,0,0.680093294126,-,-
8,001,4,source,6,NUCLEAR,HF,target,right,aqua,pleasantness,liberal,no,7,1,0.73334117874,-,-
8,001,4,source,7,OUGHT,HF,target,left,yellow,imageability,liberal,no,3,1,1.15990349429,-,-
8,001,4,source,8,DEGREE,HF,target,left,yellow,imageability,liberal,no,3,1,0.693428270053,-,-
8,001,4,source,9,LEGALITY,LF,target,right,aqua,pleasantness,conservative,no,3,0,0.773411728558,-,-
8,001,4,source,10,NUANCE,LF,target,left,yellow,imageability,conservative,no,3,1,0.893274368253,-,-
8,001,4,source,11,HOMESTEAD,LF,target,left,yellow,imageability,liberal,yes,7,0,0.666815142613,-,-
8,001,4,source,12,WRANGLING,LF,target,left,yellow,imageability,liberal,no,7,0,0.626779053826,-,-
8,001,4,source,13,RESEARCH,HF,target,right,aqua,pleasantness,conservative,no,7,1,1.02634110465,-,-
8,001,4,source,14,ENERGY,HF,target,left,yellow,imageability,liberal,no,3,1,1.02651854267,-,-
8,001,4,source,15,INTEREST,HF,target,left,yellow,imageability,conservative,no,7,0,0.919941753382,-,-
8,001,4,source,16,WALKED,HF,target,left,yellow,imageability,conservative,no,3,1,0.919936254388,-,-
8,001,4,source,17,TABLE,HF,target,left,yellow,imageability,liberal,no,7,0,0.773325575981,-,-
8,001,4,source,18,KNOWLEDGE,HF,target,left,yellow,imageability,conservative,no,7,0,0.586845248472,-,-
8,001,4,source,19,OEDIPAL,LF,target,left,yellow,imageability,liberal,no,3,1,0.919880896574,-,-
8,001,4,source,20,JOVIAL,LF,target,left,yellow,imageability,conservative,no,3,1,1.5597122719,-,-
8,001,4,source,21,SWIFTNESS,LF,target,right,aqua,pleasantness,liberal,no,3,0,0.839971126057,-,-
8,001,4,source,22,ANAEMIC,LF,target,right,aqua,pleasantness,conservative,no,7,1,0.520089716068,-,-
8,001,4,source,23,TOUSLED,LF,target,right,aqua,pleasantness,liberal,no,3,0,0.466554411454,-,-
8,001,4,source,24,APART,HF,target,left,yellow,imageability,liberal,no,3,1,1.05329957616,-,-
8,001,4,source,25,GOADED,LF,target,right,aqua,pleasantness,liberal,no,3,0,0.386636575568,-,-
8,001,4,source,26,OUTSIDE,HF,target,right,aqua,pleasantness,conservative,no,7,1,0.37347390526,-,-
8,001,4,source,27,EVOCATION,LF,target,right,aqua,pleasantness,conservative,yes,3,0,0.520176602062,-,-
8,001,4,source,28,NOXIOUS,LF,target,left,yellow,imageability,conservative,no,7,0,0.680018872954,-,-
8,001,4,source,29,SPLASHES,LF,target,left,yellow,imageability,liberal,no,7,0,0.706754080602,-,-
8,001,4,source,30,REPORT,HF,target,right,aqua,pleasantness,conservative,no,3,0,0.719954877975,-,-
8,001,4,source,31,FIFTIETH,LF,target,left,yellow,imageability,conservative,no,3,1,0.880025178543,-,-
8,001,4,source,32,PSEUDONYM,LF,target,left,yellow,imageability,conservative,no,3,1,0.80005418451,-,-
8,001,4,source,33,AMBIENCE,LF,target,right,aqua,pleasantness,conservative,no,3,0,0.760040092166,-,-
8,001,4,source,34,ADDED,HF,target,right,aqua,pleasantness,liberal,no,7,1,0.813139134087,-,-
8,001,4,source,35,NESTING,LF,target,left,yellow,imageability,liberal,no,3,1,0.693213071441,-,-
8,001,4,source,36,ICEBOX,LF,target,right,aqua,pleasantness,liberal,no,3,0,0.826417652308,-,-
8,001,4,source,37,CLOSE,HF,target,right,aqua,pleasantness,conservative,no,7,1,0.759722243645,-,-
8,001,4,source,38,OCCUPANCY,LF,target,right,aqua,pleasantness,liberal,no,3,0,0.64004804031,-,-
8,001,4,source,39,WHOLE,HF,target,left,yellow,imageability,liberal,no,3,1,0.653413444408,-,-
8,001,4,source,40,SINCE,HF,target,left,yellow,imageability,conservative,no,7,0,0.573239716468,-,-
8,001,4,source,41,PICTURE,HF,target,right,aqua,pleasantness,conservative,no,3,0,0.413531990489,-,-
8,001,4,source,42,ABBOT,LF,target,left,yellow,imageability,liberal,no,3,1,0.64016792085,-,-
8,001,4,source,43,WRONG,HF,target,right,aqua,pleasantness,conservative,yes,7,1,1.41302790539,-,-
8,001,4,source,44,CITES,LF,target,right,aqua,pleasantness,liberal,no,3,0,1.47972404736,-,-
8,001,4,source,45,FIGURE,HF,target,right,aqua,pleasantness,liberal,no,7,1,0.893061369308,-,-
8,001,4,source,46,HOSPITAL,HF,target,right,aqua,pleasantness,liberal,no,3,0,2.0528178541,-,-
8,001,4,source,47,SYSTEM,HF,target,right,aqua,pleasantness,liberal,no,7,1,2.17249975621,-,-
8,001,4,recog,0,HOMESTEAD,LF,target,left,yellow,imageability,liberal,no,z,1,1.865949656,3,435
8,001,4,recog,1,SPLASHES,LF,target,left,yellow,imageability,liberal,no,z,1,0.613392019877,3,438
8,001,4,recog,2,NIGHT,HF,lure,-,-,-,liberal,no,m,1,1.43968319253,1,439
8,001,4,recog,3,WRANGLING,LF,target,left,yellow,imageability,liberal,no,z,1,2.13257071679,3,442
8,001,4,recog,4,PLEASE,HF,lure,-,-,-,conservative,no,m,1,0.813323904178,3,445
8,001,4,recog,5,AMBIENCE,LF,target,right,aqua,pleasantness,conservative,no,z,1,0.679966081516,1,446
8,001,4,recog,6,NUCLEAR,HF,target,right,aqua,pleasantness,liberal,no,z,1,0.720025633113,3,449
8,001,4,recog,7,REPORT,HF,target,right,aqua,pleasantness,conservative,no,z,1,1.3330679097,1,450
8,001,4,recog,8,TOUSLED,LF,target,right,aqua,pleasantness,liberal,no,z,1,0.613380655064,3,453
8,001,4,recog,9,OUTSIDE,HF,target,right,aqua,pleasantness,conservative,no,z,1,0.720049096039,1,454
8,001,4,recog,10,QUICKLY,HF,target,left,yellow,imageability,conservative,no,z,1,1.74622449419,1,455
8,001,4,recog,11,CITES,LF,target,right,aqua,pleasantness,liberal,no,m,0,0.680110158166,-3,452
8,001,4,recog,12,NUANCE,LF,target,left,yellow,imageability,conservative,no,z,1,0.653377150302,1,453
8,001,4,recog,13,OEDIPAL,LF,target,left,yellow,imageability,liberal,no,z,1,0.693308755988,3,456
8,001,4,recog,14,LEGALITY,LF,target,right,aqua,pleasantness,conservative,no,z,1,0.680111991125,1,457
8,001,4,recog,15,MODERN,HF,lure,-,-,-,conservative,no,m,1,0.839911735617,3,460
8,001,4,recog,16,PORCHES,LF,lure,-,-,-,conservative,no,m,1,0.640103397891,3,463
8,001,4,recog,17,NOXIOUS,LF,target,left,yellow,imageability,conservative,no,z,1,0.773396697827,1,464
8,001,4,recog,18,PSEUDONYM,LF,target,left,yellow,imageability,conservative,no,z,1,0.733170339721,1,465
8,001,4,recog,19,AUGMENT,LF,lure,-,-,-,liberal,no,m,1,0.919665331487,1,466
8,001,4,recog,20,PISTONS,LF,lure,-,-,-,conservative,no,m,1,0.853225814761,3,469
8,001,4,recog,21,FIGURE,HF,target,right,aqua,pleasantness,liberal,no,m,0,1.87953172508,-3,466
8,001,4,recog,22,RASCAL,LF,lure,-,-,-,liberal,no,m,1,0.866617614636,1,467
8,001,4,recog,23,THWART,LF,lure,-,-,-,conservative,no,m,1,0.919900326757,3,470
8,001,4,recog,24,SAGES,LF,lure,-,-,-,conservative,no,m,1,0.760050723795,3,473
8,001,4,recog,25,IDIOCY,LF,lure,-,-,-,conservative,no,m,1,0.919886762276,3,476
8,001,4,recog,26,OCCUPANCY,LF,target,right,aqua,pleasantness,liberal,no,m,0,2.21252961271,-3,473
8,001,4,recog,27,SCHOOL,HF,lure,-,-,-,conservative,no,m,1,0.773271684535,3,476
8,001,4,recog,28,LEECH,LF,lure,-,-,-,liberal,no,z,0,1.02653797285,-1,475
8,001,4,recog,29,BUCKED,LF,lure,-,-,-,conservative,no,m,1,1.91962023871,3,478
8,001,4,recog,30,OLDER,HF,lure,-,-,-,liberal,no,m,1,0.786721041892,1,479
8,001,4,recog,31,OPTIC,LF,lure,-,-,-,conservative,no,m,1,1.14657108486,3,482
8,001,4,recog,32,USING,HF,lure,-,-,-,liberal,no,m,1,1.55974563316,1,483
8,001,4,recog,33,SERIOUS,HF,target,left,yellow,imageability,conservative,no,m,0,0.973237663391,-1,482
8,001,4,recog,34,MYSELF,HF,lure,-,-,-,conservative,no,m,1,0.879897232633,3,485
8,001,4,recog,35,RESEARCH,HF,target,right,aqua,pleasantness,conservative,no,z,1,1.50618613232,1,486
8,001,4,recog,36,APPEARED,HF,lure,-,-,-,conservative,no,z,0,0.733338245889,-3,483
8,001,4,recog,37,HOSPITAL,HF,target,right,aqua,pleasantness,liberal,no,z,1,0.546742437058,3,486
8,001,4,recog,38,CONCERNED,HF,lure,-,-,-,conservative,yes,z,0,0.600120467134,-3,483
8,001,4,recog,39,ANAEMIC,LF,target,right,aqua,pleasantness,conservative,no,m,0,1.79958052782,-1,482
8,001,4,recog,40,ICEBOX,LF,target,right,aqua,pleasantness,liberal,no,z,1,0.706750781043,3,485
8,001,4,recog,41,DEGREE,HF,target,left,yellow,imageability,liberal,no,z,1,0.799705174286,3,488
8,001,4,recog,42,SWIFTNESS,LF,target,right,aqua,pleasantness,liberal,no,z,1,0.64001504553,3,491
8,001,4,recog,43,PICTURE,HF,target,right,aqua,pleasantness,conservative,no,m,0,1.46635131096,-1,490
8,001,4,recog,44,APART,HF,target,left,yellow,imageability,liberal,no,z,1,0.746737011243,3,493
8,001,4,recog,45,INTEREST,HF,target,left,yellow,imageability,conservative,no,z,1,0.613372956286,1,494
8,001,4,recog,46,SNAGS,LF,lure,-,-,-,conservative,no,m,1,0.933260231861,3,497
8,001,4,recog,47,BEAUTIFUL,HF,lure,-,-,-,conservative,no,m,1,0.79992953816,3,500
8,001,4,recog,48,JAUNDICE,LF,lure,-,-,-,liberal,no,m,1,1.77276356681,1,501
8,001,4,recog,49,CAUGHT,HF,target,right,aqua,pleasantness,liberal,no,z,1,0.799977930263,3,504
8,001,4,recog,50,ACTION,HF,lure,-,-,-,liberal,no,m,1,0.840007053572,1,505
8,001,4,recog,51,QUOTAS,LF,lure,-,-,-,conservative,no,m,1,0.680036103469,3,508
8,001,4,recog,52,PEEKED,LF,lure,-,-,-,liberal,no,m,1,3.67884059693,1,509
8,001,4,recog,53,ABBOT,LF,target,left,yellow,imageability,liberal,no,None,-1,-1,-3,506
8,001,4,recog,54,FISHY,LF,target,right,aqua,pleasantness,conservative,no,z,1,1.11990223313,1,507
8,001,4,recog,55,HIMSELF,HF,lure,-,-,-,liberal,no,z,0,0.82662405225,-1,506
8,001,4,recog,56,EVOCATION,LF,target,right,aqua,pleasantness,conservative,no,m,0,0.680038669729,-1,505
8,001,4,recog,57,SINCE,HF,target,left,yellow,imageability,conservative,no,z,1,1.19984206557,1,506
8,001,4,recog,58,KNOWLEDGE,HF,target,left,yellow,imageability,conservative,no,m,0,1.46642719873,-1,505
8,001,4,recog,59,BEYOND,HF,lure,-,-,-,liberal,no,z,0,0.506722112419,-1,504
8,001,4,recog,60,HEALTH,HF,lure,-,-,-,conservative,no,m,1,1.78623345401,3,507
8,001,4,recog,61,PANACHE,LF,lure,-,-,-,liberal,no,z,0,1.46638687188,-1,506
8,001,4,recog,62,JOVIAL,LF,target,left,yellow,imageability,conservative,no,z,1,0.866577654378,1,507
8,001,4,recog,63,WRONG,HF,target,right,aqua,pleasantness,conservative,no,m,0,2.35936428816,-1,506
8,001,4,recog,64,ADDED,HF,target,right,aqua,pleasantness,liberal,no,z,1,0.720055694925,3,509
8,001,4,recog,65,ABUSING,LF,lure,-,-,-,liberal,no,m,1,1.03982822248,1,510
8,001,4,recog,66,PUBLIC,HF,lure,-,-,-,conservative,no,m,1,1.62635122309,3,513
8,001,4,recog,67,SEWED,LF,lure,-,-,-,liberal,no,z,0,1.05320205865,-1,512
8,001,4,recog,68,TACITLY,LF,target,left,yellow,imageability,conservative,no,m,0,1.10639935127,-1,511
8,001,4,recog,69,IDEAS,HF,lure,-,-,-,liberal,no,m,1,0.759988767211,1,512
8,001,4,recog,70,GOADED,LF,target,right,aqua,pleasantness,liberal,no,z,1,1.05333257082,3,515
8,001,4,recog,71,WHOLE,HF,target,left,yellow,imageability,liberal,no,z,1,1.06650807243,3,518
8,001,4,recog,72,PUPPETS,LF,lure,-,-,-,liberal,no,m,1,1.01313774101,1,519
8,001,4,recog,73,CRUCIALLY,LF,target,right,aqua,pleasantness,conservative,no,m,0,1.41306529928,-1,518
8,001,4,recog,74,SIDED,LF,lure,-,-,-,conservative,no,m,1,0.586792090326,3,521
8,001,4,recog,75,CLEAR,HF,lure,-,-,-,liberal,no,z,0,0.840003387537,-1,520
8,001,4,recog,76,SYSTEM,HF,target,right,aqua,pleasantness,liberal,no,z,1,0.706386373378,3,523
8,001,4,recog,77,GUMMED,LF,lure,-,-,-,liberal,no,m,1,0.759794098674,1,524
8,001,4,recog,78,TRADE,HF,lure,-,-,-,liberal,no,m,1,0.839742362965,1,525
8,001,4,recog,79,ENLIGHTEN,LF,lure,-,-,-,liberal,no,m,1,0.866567756049,1,526
8,001,4,recog,80,HOTEL,HF,lure,-,-,-,liberal,yes,m,1,1.06650770572,1,527
8,001,4,recog,81,ENERGY,HF,target,left,yellow,imageability,liberal,yes,z,1,1.34639848606,3,530
8,001,4,recog,82,POLICE,HF,lure,-,-,-,conservative,no,z,0,3.99879129557,-3,527
8,001,4,recog,83,NUMBER,HF,lure,-,-,-,liberal,no,z,0,0.973027230822,-1,526
8,001,4,recog,84,WEEKS,HF,lure,-,-,-,conservative,no,m,1,0.853352660895,3,529
8,001,4,recog,85,ROSEBUD,LF,lure,-,-,-,conservative,no,m,1,0.773279383429,3,532
8,001,4,recog,86,WALKED,HF,target,left,yellow,imageability,conservative,no,z,1,0.839960494428,1,533
8,001,4,recog,87,NESTING,LF,target,left,yellow,imageability,liberal,no,z,1,0.746649025474,3,536
8,001,4,recog,88,DAUGHTER,HF,lure,-,-,-,liberal,no,m,1,0.746790902573,1,537
8,001,4,recog,89,NOMAD,LF,lure,-,-,-,liberal,no,m,1,0.959948880249,1,538
8,001,4,recog,90,SLOWLY,HF,lure,-,-,-,conservative,no,m,1,0.719957444235,3,541
8,001,4,recog,91,PHOBIC,LF,lure,-,-,-,conservative,no,m,1,0.786604094203,3,544
8,001,4,recog,92,FIFTIETH,LF,target,left,yellow,imageability,conservative,no,m,0,1.43971398764,-1,543
8,001,4,recog,93,TABLE,HF,target,left,yellow,imageability,liberal,no,z,1,0.560043684905,3,546
8,001,4,recog,94,OUGHT,HF,target,left,yellow,imageability,liberal,no,z,1,0.78648568003,3,549
8,001,4,recog,95,CLOSE,HF,target,right,aqua,pleasantness,conservative,yes,m,0,0.799970598076,-1,548
