subj,session,cycle,task,trial,item,wf,type,source,colour,encoding,bias,null,response,corr,rt,points,total
9,001,0,source,0,KNOWLEDGE,HF,target,right,yellow,imageability,conservative,no,9,1,3.98552597524,-,-
9,001,0,source,1,INCLUDING,HF,target,left,aqua,pleasantness,conservative,no,1,1,5.01180145715,-,-
9,001,0,source,2,FOCUSES,LF,target,right,yellow,imageability,conservative,no,9,1,2.45267539052,-,-
9,001,0,source,3,POINT,HF,target,left,aqua,pleasantness,liberal,no,1,1,6.39793028159,-,-
9,001,0,source,4,SOUND,HF,target,right,yellow,imageability,conservative,no,9,1,2.21276864072,-,-
9,001,0,source,5,BRING,HF,target,left,aqua,pleasantness,conservative,no,1,1,2.38580401021,-,-
9,001,0,source,6,COGENT,LF,target,right,yellow,imageability,liberal,no,8,1,7.57067713107,-,-
9,001,0,source,7,SUMMER,HF,target,right,yellow,imageability,conservative,no,9,1,3.35879274737,-,-
9,001,0,source,8,TREES,HF,target,right,yellow,imageability,liberal,no,9,1,0.70676104608,-,-
9,001,0,source,9,DAPPER,LF,target,left,aqua,pleasantness,conservative,no,1,1,1.81289167411,-,-
9,001,0,source,10,PAVILIONS,LF,target,right,yellow,imageability,liberal,no,9,1,0.920024240157,-,-
9,001,0,source,11,BUSINESS,HF,target,right,yellow,imageability,liberal,no,9,1,0.879816945526,-,-
9,001,0,source,12,FRIEND,HF,target,right,yellow,imageability,liberal,no,9,1,0.706694690161,-,-
9,001,0,source,13,OPENED,HF,target,left,aqua,pleasantness,liberal,yes,9,0,1.70624669595,-,-
9,001,0,source,14,EATERS,LF,target,left,aqua,pleasantness,liberal,no,1,1,3.89216978021,-,-
9,001,0,source,15,CELLO,LF,target,left,aqua,pleasantness,liberal,yes,8,0,3.39899051003,-,-
9,001,0,source,16,SNIGGERED,LF,target,right,yellow,imageability,liberal,no,9,1,5.59813932108,-,-
9,001,0,source,17,MELODIC,LF,target,left,aqua,pleasantness,conservative,no,1,1,1.23981033207,-,-
9,001,0,source,18,FONDLE,LF,target,left,aqua,pleasantness,liberal,no,1,1,1.45318497473,-,-
9,001,0,source,19,SEVEN,HF,target,right,yellow,imageability,liberal,no,9,1,1.17319191084,-,-
9,001,0,source,20,TILTS,LF,target,right,yellow,imageability,conservative,no,9,1,0.853240479017,-,-
9,001,0,source,21,REDDENED,LF,target,right,yellow,imageability,conservative,no,9,1,2.03953493666,-,-
9,001,0,source,22,BEGAN,HF,target,left,aqua,pleasantness,liberal,no,1,1,0.986569706351,-,-
9,001,0,source,23,UNSAVOURY,LF,target,left,aqua,pleasantness,liberal,no,1,1,0.853205284686,-,-
9,001,0,source,24,MAJOR,HF,target,left,aqua,pleasantness,conservative,no,1,1,1.83955795958,-,-
9,001,0,source,25,ATHEIST,LF,target,left,aqua,pleasantness,conservative,no,1,1,0.866726863547,-,-
9,001,0,source,26,MYOPIC,LF,target,left,aqua,pleasantness,liberal,no,9,0,1.67951478786,-,-
9,001,0,source,27,NATIONAL,HF,target,left,aqua,pleasantness,conservative,no,1,1,0.706687357975,-,-
9,001,0,source,28,SYMBOLIZE,LF,target,left,aqua,pleasantness,conservative,no,1,1,4.41185146244,-,-
9,001,0,source,29,MORNING,HF,target,right,yellow,imageability,conservative,no,1,0,7.45080349327,-,-
9,001,0,source,30,PIGLETS,LF,target,right,yellow,imageability,conservative,yes,8,1,1.73309078591,-,-
9,001,0,source,31,EXPECT,HF,target,right,yellow,imageability,liberal,no,1,0,3.41225473059,-,-
9,001,0,source,32,QUALITY,HF,target,right,yellow,imageability,conservative,no,8,1,4.81183841126,-,-
9,001,0,source,33,COHESIVE,LF,target,right,yellow,imageability,conservative,no,9,1,4.26526351378,-,-
9,001,0,source,34,EPIDEMICS,LF,target,right,yellow,imageability,conservative,yes,8,1,1.11963717605,-,-
9,001,0,source,35,LEARN,HF,target,right,yellow,imageability,liberal,no,9,1,2.81260535377,-,-
9,001,0,source,36,MOMENT,HF,target,right,yellow,imageability,conservative,no,9,1,1.45300827001,-,-
9,001,0,source,37,TIRADE,LF,target,left,aqua,pleasantness,liberal,no,1,1,1.53285974986,-,-
9,001,0,source,38,NEEDED,HF,target,left,aqua,pleasantness,conservative,no,1,1,1.8262955721,-,-
9,001,0,source,39,SIMILAR,HF,target,left,aqua,pleasantness,liberal,no,1,1,1.99932764214,-,-
9,001,0,source,40,BLOOD,HF,target,left,aqua,pleasantness,liberal,no,1,1,2.34576425527,-,-
9,001,0,source,41,NIBBLE,LF,target,left,aqua,pleasantness,conservative,no,1,1,0.960041998536,-,-
9,001,0,source,42,ASKED,HF,target,left,aqua,pleasantness,liberal,no,1,1,1.33304884599,-,-
9,001,0,source,43,UNGAINLY,LF,target,right,yellow,imageability,liberal,no,8,1,4.55861428287,-,-
9,001,0,source,44,MAMMAL,LF,target,right,yellow,imageability,liberal,no,9,1,1.18647959433,-,-
9,001,0,source,45,HOTEL,HF,target,left,aqua,pleasantness,conservative,no,1,1,2.15949619352,-,-
9,001,0,source,46,SCYTHE,LF,target,right,yellow,imageability,liberal,no,9,1,2.50592364161,-,-
9,001,0,source,47,RUMBLED,LF,target,left,aqua,pleasantness,conservative,no,1,1,3.31899128715,-,-
9,001,0,recog,0,BECAME,HF,lure,-,-,-,liberal,no,m,1,7.33074178593,1,1
9,001,0,recog,1,SEABED,LF,lure,-,-,-,conservative,no,m,1,2.43929128943,3,4
9,001,0,recog,2,FIELD,HF,lure,-,-,-,liberal,no,m,1,0.82661598688,1,5
9,001,0,recog,3,ENROLMENT,LF,lure,-,-,-,liberal,no,m,1,1.79954166745,1,6
9,001,0,recog,4,NATIONAL,HF,target,left,aqua,pleasantness,conservative,no,z,1,1.59966440767,1,7
9,001,0,recog,5,MAYBE,HF,lure,-,-,-,liberal,no,m,1,2.05283251835,1,8
9,001,0,recog,6,HASSLE,LF,lure,-,-,-,liberal,no,m,1,0.639873168548,1,9
9,001,0,recog,7,SECOND,HF,lure,-,-,-,conservative,no,m,1,0.839737597154,3,12
9,001,0,recog,8,DIOCESE,LF,lure,-,-,-,conservative,no,m,1,0.786622424494,3,15
9,001,0,recog,9,PAVILIONS,LF,target,right,yellow,imageability,liberal,no,z,1,0.813294942258,3,18
9,001,0,recog,10,LOITERING,LF,lure,-,-,-,liberal,no,m,1,0.93340760807,1,19
9,001,0,recog,11,ROADWAY,LF,lure,-,-,-,liberal,yes,m,1,2.43928835646,1,20
9,001,0,recog,12,AGATE,LF,lure,-,-,-,conservative,no,m,1,1.39972555777,3,23
9,001,0,recog,13,SYMBOLIZE,LF,target,left,aqua,pleasantness,conservative,no,z,1,0.813285043812,1,24
9,001,0,recog,14,JOSTLED,LF,lure,-,-,-,conservative,no,m,1,0.893494699267,3,27
9,001,0,recog,15,NEEDED,HF,target,left,aqua,pleasantness,conservative,no,z,1,0.786730940221,1,28
9,001,0,recog,16,RUMBLED,LF,target,left,aqua,pleasantness,conservative,no,z,1,0.666478963802,1,29
9,001,0,recog,17,MAJOR,HF,target,left,aqua,pleasantness,conservative,no,z,1,0.480125115719,1,30
9,001,0,recog,18,INCLUDING,HF,target,left,aqua,pleasantness,conservative,no,z,1,0.746735178167,1,31
9,001,0,recog,19,EATERS,LF,target,left,aqua,pleasantness,liberal,no,z,1,0.520116111846,3,34
9,001,0,recog,20,KENNEL,LF,lure,-,-,-,liberal,no,m,1,0.839954995317,1,35
9,001,0,recog,21,FONDLE,LF,target,left,aqua,pleasantness,liberal,no,z,1,1.03965994972,3,38
9,001,0,recog,22,RENAMED,LF,lure,-,-,-,conservative,no,m,1,0.839742729557,3,41
9,001,0,recog,23,LEARN,HF,target,right,yellow,imageability,liberal,no,z,1,0.560104175122,3,44
9,001,0,recog,24,TALKING,HF,lure,-,-,-,conservative,no,m,1,1.41306676576,3,47
9,001,0,recog,25,LODGERS,LF,lure,-,-,-,liberal,yes,z,0,2.02629894484,-1,46
9,001,0,recog,26,MORNING,HF,target,right,yellow,imageability,conservative,no,z,1,2.62592412555,1,47
9,001,0,recog,27,SMALL,HF,lure,-,-,-,conservative,no,m,1,0.680040502804,3,50
9,001,0,recog,28,MOUTH,HF,lure,-,-,-,conservative,no,z,0,1.63962644176,-3,47
9,001,0,recog,29,EBONY,LF,lure,-,-,-,liberal,no,m,1,0.773290748242,1,48
9,001,0,recog,30,PAUNCH,LF,lure,-,-,-,liberal,no,m,1,1.49308505224,1,49
9,001,0,recog,31,CELLO,LF,target,left,aqua,pleasantness,liberal,yes,m,0,1.07987750915,-3,46
9,001,0,recog,32,BUSINESS,HF,target,right,yellow,imageability,liberal,no,z,1,1.22651421675,3,49
9,001,0,recog,33,ATHEIST,LF,target,left,aqua,pleasantness,conservative,no,z,1,1.45309698896,1,50
9,001,0,recog,34,VOWEL,LF,lure,-,-,-,liberal,no,m,1,0.746438959497,1,51
9,001,0,recog,35,SOUND,HF,target,right,yellow,imageability,conservative,no,z,1,2.61274715746,1,52
9,001,0,recog,36,SUBJECT,HF,lure,-,-,-,liberal,no,m,1,1.14658941515,1,53
9,001,0,recog,37,FRIEND,HF,target,right,yellow,imageability,liberal,no,z,1,0.773282316281,3,56
9,001,0,recog,38,HISTORY,HF,lure,-,-,-,liberal,no,m,1,1.29313007148,1,57
9,001,0,recog,39,POINT,HF,target,left,aqua,pleasantness,liberal,no,z,1,0.653322525672,3,60
9,001,0,recog,40,TREES,HF,target,right,yellow,imageability,liberal,no,z,1,0.506738243042,3,63
9,001,0,recog,41,FOCUSES,LF,target,right,yellow,imageability,conservative,no,z,1,0.60006657592,1,64
9,001,0,recog,42,COHESIVE,LF,target,right,yellow,imageability,conservative,no,z,1,0.4933882365,1,65
9,001,0,recog,43,MOMENT,HF,target,right,yellow,imageability,conservative,no,z,1,0.533390230732,1,66
9,001,0,recog,44,FURTHER,HF,lure,-,-,-,liberal,no,None,-1,-1,-1,65
9,001,0,recog,45,UNSAVOURY,LF,target,left,aqua,pleasantness,liberal,no,z,1,0.946571011445,3,68
9,001,0,recog,46,VICEREGAL,LF,lure,-,-,-,conservative,no,m,1,1.23986129044,3,71
9,001,0,recog,47,MAMMAL,LF,target,right,yellow,imageability,liberal,no,z,1,0.666649436112,3,74
9,001,0,recog,48,SCYTHE,LF,target,right,yellow,imageability,liberal,no,z,1,0.68000457529,3,77
9,001,0,recog,49,WADDLED,LF,lure,-,-,-,conservative,no,m,1,0.73329608608,3,80
9,001,0,recog,50,WHITE,HF,lure,-,-,-,liberal,no,m,1,0.746488818084,1,81
9,001,0,recog,51,FICKLE,LF,lure,-,-,-,liberal,no,m,1,0.679889827152,1,82
9,001,0,recog,52,SIMILAR,HF,target,left,aqua,pleasantness,liberal,no,z,1,1.51966885093,3,85
9,001,0,recog,53,HUMAN,HF,lure,-,-,-,conservative,no,m,1,0.85329766979,3,88
9,001,0,recog,54,GARDEN,HF,lure,-,-,-,conservative,no,m,1,0.71996587608,3,91
9,001,0,recog,55,NIBBLE,LF,target,left,aqua,pleasantness,conservative,no,z,1,0.586840849137,1,92
9,001,0,recog,56,EPIDEMICS,LF,target,right,yellow,imageability,conservative,no,z,1,2.71933201212,1,93
9,001,0,recog,57,INLAID,LF,lure,-,-,-,conservative,no,m,1,0.786710410262,3,96
9,001,0,recog,58,BEGAN,HF,target,left,aqua,pleasantness,liberal,no,z,1,0.75999316643,3,99
9,001,0,recog,59,HOTEL,HF,target,left,aqua,pleasantness,conservative,no,z,1,0.560139002861,1,100
9,001,0,recog,60,EVENING,HF,lure,-,-,-,liberal,no,m,1,1.10635719146,1,101
9,001,0,recog,61,NORTH,HF,lure,-,-,-,conservative,no,m,1,0.626768055605,3,104
9,001,0,recog,62,HERSELF,HF,lure,-,-,-,conservative,no,m,1,0.546848753234,3,107
9,001,0,recog,63,STEADFAST,LF,lure,-,-,-,conservative,no,m,1,0.77341282845,3,110
9,001,0,recog,64,QUALITY,HF,target,right,yellow,imageability,conservative,no,z,1,1.09322678263,1,111
9,001,0,recog,65,MELODIC,LF,target,left,aqua,pleasantness,conservative,no,z,1,0.666547885863,1,112
9,001,0,recog,66,PIGLETS,LF,target,right,yellow,imageability,conservative,no,z,1,0.560077779461,1,113
9,001,0,recog,67,COGENT,LF,target,right,yellow,imageability,liberal,yes,z,1,1.38633082504,3,116
9,001,0,recog,68,OUTSIDE,HF,lure,-,-,-,conservative,no,m,1,1.01324075763,3,119
9,001,0,recog,69,BLOOD,HF,target,left,aqua,pleasantness,liberal,no,z,1,0.586725001223,3,122
9,001,0,recog,70,REDDENED,LF,target,right,yellow,imageability,conservative,no,z,1,0.760103881825,1,123
9,001,0,recog,71,DAPPER,LF,target,left,aqua,pleasantness,conservative,no,z,1,0.453413004405,1,124
9,001,0,recog,72,OPENED,HF,target,left,aqua,pleasantness,liberal,no,z,1,2.75937763276,3,127
9,001,0,recog,73,MYOPIC,LF,target,left,aqua,pleasantness,liberal,no,z,1,0.573405056377,3,130
9,001,0,recog,74,UNGAINLY,LF,target,right,yellow,imageability,liberal,no,z,1,0.760039358982,3,133
9,001,0,recog,75,EXPECT,HF,target,right,yellow,imageability,liberal,no,z,1,0.746611265,3,136
9,001,0,recog,76,LONGER,HF,lure,-,-,-,conservative,no,m,1,0.733338245889,3,139
9,001,0,recog,77,TAUNTED,LF,lure,-,-,-,conservative,no,m,1,1.09316995845,3,142
9,001,0,recog,78,ASKED,HF,target,left,aqua,pleasantness,liberal,no,z,1,1.25302102789,3,145
9,001,0,recog,79,PESTERED,LF,lure,-,-,-,liberal,no,m,1,0.826611954137,1,146
9,001,0,recog,80,MEMBERS,HF,lure,-,-,-,liberal,no,m,1,1.10651703225,1,147
9,001,0,recog,81,LABOUR,HF,lure,-,-,-,conservative,no,m,1,0.800042453106,3,150
9,001,0,recog,82,KITCHEN,HF,lure,-,-,-,liberal,no,m,1,0.626722596353,1,151
9,001,0,recog,83,POETICAL,LF,lure,-,-,-,liberal,no,m,1,0.640020178049,1,152
9,001,0,recog,84,SNIGGERED,LF,target,right,yellow,imageability,liberal,no,z,1,0.786619491642,3,155
9,001,0,recog,85,ARCADES,LF,lure,-,-,-,conservative,no,m,1,0.61345580942,3,158
9,001,0,recog,86,TIRADE,LF,target,left,aqua,pleasantness,liberal,no,z,1,0.720011335565,3,161
9,001,0,recog,87,ENDEARING,LF,lure,-,-,-,conservative,no,m,1,1.31984108302,3,164
9,001,0,recog,88,SUMMER,HF,target,right,yellow,imageability,conservative,no,z,1,0.680007508141,1,165
9,001,0,recog,89,SHALL,HF,lure,-,-,-,conservative,no,m,1,0.586731966701,3,168
9,001,0,recog,90,SEEMED,HF,lure,-,-,-,liberal,no,m,1,1.09331146884,1,169
9,001,0,recog,91,BRING,HF,target,left,aqua,pleasantness,conservative,no,z,1,0.733410100918,1,170
9,001,0,recog,92,SEVEN,HF,target,right,yellow,imageability,liberal,no,z,1,0.866595984786,3,173
9,001,0,recog,93,TILTS,LF,target,right,yellow,imageability,conservative,no,z,1,0.680010807584,1,174
9,001,0,recog,94,KNOWLEDGE,HF,target,right,yellow,imageability,conservative,no,z,1,1.37313149392,1,175
9,001,0,recog,95,RIVER,HF,lure,-,-,-,liberal,no,m,1,0.693340650876,1,176
9,001,1,source,0,URBANE,LF,target,left,aqua,pleasantness,liberal,no,1,1,6.1446269661,-,-
9,001,1,source,1,RALLIED,LF,target,left,aqua,pleasantness,liberal,no,1,1,2.61264964007,-,-
9,001,1,source,2,PIVOT,LF,target,right,yellow,imageability,conservative,no,9,1,4.45170388103,-,-
9,001,1,source,3,DRINK,HF,target,right,yellow,imageability,conservative,no,9,1,1.3730354429,-,-
9,001,1,source,4,DIGESTING,LF,target,right,yellow,imageability,liberal,no,9,1,0.786435454735,-,-
9,001,1,source,5,DIFFERENT,HF,target,right,yellow,imageability,liberal,no,9,1,1.506452656,-,-
9,001,1,source,6,ORBITAL,LF,target,right,yellow,imageability,conservative,no,9,1,0.733340078965,-,-
9,001,1,source,7,PURCHASER,LF,target,right,yellow,imageability,conservative,no,9,1,0.773332908051,-,-
9,001,1,source,8,SABLE,LF,target,right,yellow,imageability,conservative,no,1,0,4.83851532824,-,-
9,001,1,source,9,TOMBSTONE,LF,target,left,aqua,pleasantness,conservative,no,1,1,1.13315765501,-,-
9,001,1,source,10,RANGE,HF,target,left,aqua,pleasantness,conservative,no,1,1,1.51973190741,-,-
9,001,1,source,11,LETTER,HF,target,left,aqua,pleasantness,liberal,no,1,1,0.666716525215,-,-
9,001,1,source,12,GAUCHE,LF,target,right,yellow,imageability,liberal,no,1,0,4.87833988469,-,-
9,001,1,source,13,REPORT,HF,target,left,aqua,pleasantness,liberal,no,1,1,0.760040092282,-,-
9,001,1,source,14,FUTURE,HF,target,right,yellow,imageability,conservative,no,9,1,2.01261862495,-,-
9,001,1,source,15,MATERIAL,HF,target,right,yellow,imageability,liberal,no,9,1,0.733397269738,-,-
9,001,1,source,16,TWENTY,HF,target,right,yellow,imageability,conservative,no,9,1,0.81327917811,-,-
9,001,1,source,17,TOPICAL,LF,target,left,aqua,pleasantness,liberal,yes,9,0,1.29290277499,-,-
9,001,1,source,18,EGOISM,LF,target,left,aqua,pleasantness,conservative,no,1,1,1.38617941621,-,-
9,001,1,source,19,GROUND,HF,target,right,yellow,imageability,liberal,no,9,1,1.09325354488,-,-
9,001,1,source,20,EIGHT,HF,target,left,aqua,pleasantness,liberal,yes,9,0,0.586560394615,-,-
9,001,1,source,21,MEANS,HF,target,left,aqua,pleasantness,liberal,no,1,1,3.4653600048,-,-
9,001,1,source,22,ZOOLOGY,LF,target,left,aqua,pleasantness,conservative,no,1,1,0.759739474161,-,-
9,001,1,source,23,STRAIGHT,HF,target,right,yellow,imageability,conservative,no,9,1,3.95847475214,-,-
9,001,1,source,24,HIMSELF,HF,target,left,aqua,pleasantness,liberal,no,1,1,0.720129749738,-,-
9,001,1,source,25,PUBLIC,HF,target,left,aqua,pleasantness,conservative,yes,9,0,0.65344533918,-,-
9,001,1,source,26,SOMEONE,HF,target,right,yellow,imageability,liberal,no,9,1,1.31982605206,-,-
9,001,1,source,27,LIGHT,HF,target,right,yellow,imageability,conservative,no,9,1,2.03947481292,-,-
9,001,1,source,28,GNOMES,LF,target,left,aqua,pleasantness,liberal,no,1,1,0.773367369198,-,-
9,001,1,source,29,LIMELIGHT,LF,target,left,aqua,pleasantness,conservative,no,1,1,1.45305592881,-,-
9,001,1,source,30,OUGHT,HF,target,right,yellow,imageability,liberal,no,9,1,1.06665838137,-,-
9,001,1,source,31,PRUDENTLY,LF,target,left,aqua,pleasantness,conservative,no,1,1,0.799991494627,-,-
9,001,1,source,32,TOWARDS,HF,target,left,aqua,pleasantness,conservative,no,1,1,1.09300278546,-,-
9,001,1,source,33,PIECE,HF,target,left,aqua,pleasantness,conservative,no,1,1,3.1857056861,-,-
9,001,1,source,34,FRUGAL,LF,target,right,yellow,imageability,liberal,yes,1,0,0.653120891657,-,-
9,001,1,source,35,AUSPICES,LF,target,left,aqua,pleasantness,conservative,no,1,1,1.02655080415,-,-
9,001,1,source,36,BUILDING,HF,target,left,aqua,pleasantness,liberal,no,1,1,2.18614414847,-,-
9,001,1,source,37,PANACHE,LF,target,left,aqua,pleasantness,liberal,no,1,1,1.42640980694,-,-
9,001,1,source,38,RECENT,HF,target,right,yellow,imageability,conservative,no,9,1,5.46479652915,-,-
9,001,1,source,39,ONCOMING,LF,target,right,yellow,imageability,conservative,no,9,1,2.49264255713,-,-
9,001,1,source,40,HOSPITAL,HF,target,left,aqua,pleasantness,conservative,no,1,1,0.853262108751,-,-
9,001,1,source,41,PHYSICAL,HF,target,left,aqua,pleasantness,conservative,no,1,1,0.879941958701,-,-
9,001,1,source,42,COWARDS,LF,target,right,yellow,imageability,liberal,no,9,1,1.1865477832,-,-
9,001,1,source,43,RAIDER,LF,target,right,yellow,imageability,conservative,no,9,1,0.733332013479,-,-
9,001,1,source,44,CUPID,LF,target,right,yellow,imageability,liberal,no,9,1,0.5201069467,-,-
9,001,1,source,45,TOXICITY,LF,target,left,aqua,pleasantness,liberal,no,1,1,0.773275717394,-,-
9,001,1,source,46,TANGIER,LF,target,right,yellow,imageability,liberal,no,9,1,1.01327778492,-,-
9,001,1,source,47,PASSED,HF,target,right,yellow,imageability,liberal,no,9,1,2.74583992315,-,-
9,001,1,recog,0,ORBITAL,LF,target,right,yellow,imageability,conservative,no,z,1,1.43949988892,1,177
9,001,1,recog,1,TANGIER,LF,target,right,yellow,imageability,liberal,no,z,1,0.653299429454,3,180
9,001,1,recog,2,TOMBSTONE,LF,target,left,aqua,pleasantness,conservative,no,z,1,0.546532371081,1,181
9,001,1,recog,3,DECIDED,HF,lure,-,-,-,liberal,no,m,1,2.4526585266,1,182
9,001,1,recog,4,NUCLEAR,HF,lure,-,-,-,liberal,no,m,1,0.666681331,1,183
9,001,1,recog,5,CALLED,HF,lure,-,-,-,liberal,no,m,1,0.666509025614,1,184
9,001,1,recog,6,ENVIRONS,LF,lure,-,-,-,conservative,no,m,1,0.799990761443,3,187
9,001,1,recog,7,LIVED,HF,lure,-,-,-,liberal,yes,m,1,0.693361914018,1,188
9,001,1,recog,8,MUSIC,HF,lure,-,-,-,liberal,no,m,1,1.81267574232,1,189
9,001,1,recog,9,RECENT,HF,target,right,yellow,imageability,conservative,no,z,1,2.11923757393,1,190
9,001,1,recog,10,RIGGING,LF,lure,-,-,-,conservative,no,m,1,1.53303132229,3,193
9,001,1,recog,11,EGOISM,LF,target,left,aqua,pleasantness,conservative,no,z,1,0.706750781043,1,194
9,001,1,recog,12,EXCEPT,HF,lure,-,-,-,conservative,no,z,0,0.546691112104,-3,191
9,001,1,recog,13,DOTTY,LF,lure,-,-,-,conservative,no,m,1,1.61300158303,3,194
9,001,1,recog,14,GROUND,HF,target,right,yellow,imageability,liberal,no,z,1,0.879952956922,3,197
9,001,1,recog,15,TABLE,HF,lure,-,-,-,conservative,no,m,1,1.22649258678,3,200
9,001,1,recog,16,SWOOPING,LF,lure,-,-,-,liberal,no,m,1,1.45300350408,1,201
9,001,1,recog,17,CLEAR,HF,lure,-,-,-,liberal,no,m,1,0.933236402343,1,202
9,001,1,recog,18,NAGGED,LF,lure,-,-,-,conservative,no,m,1,0.493401800981,3,205
9,001,1,recog,19,RALLIED,LF,target,left,aqua,pleasantness,liberal,no,z,1,0.693362647202,3,208
9,001,1,recog,20,TWENTY,HF,target,right,yellow,imageability,conservative,no,z,1,0.946619770257,1,209
9,001,1,recog,21,COWARDS,LF,target,right,yellow,imageability,liberal,no,z,1,0.733337512705,3,212
9,001,1,recog,22,UNTIL,HF,lure,-,-,-,liberal,no,m,1,0.973274324206,1,213
9,001,1,recog,23,GNOMES,LF,target,left,aqua,pleasantness,liberal,yes,m,0,0.586566626909,-3,210
9,001,1,recog,24,ABUSING,LF,lure,-,-,-,liberal,no,m,1,1.79980012577,1,211
9,001,1,recog,25,HADJI,LF,lure,-,-,-,liberal,no,m,1,0.626695833984,1,212
9,001,1,recog,26,THEORY,HF,lure,-,-,-,conservative,no,m,1,0.853329564678,3,215
9,001,1,recog,27,CUPID,LF,target,right,yellow,imageability,liberal,no,z,1,0.706468493328,3,218
9,001,1,recog,28,TOPICAL,LF,target,left,aqua,pleasantness,liberal,no,z,1,0.626676037209,3,221
9,001,1,recog,29,EIGHT,HF,target,left,aqua,pleasantness,liberal,no,m,0,2.03944915044,-3,218
9,001,1,recog,30,ECONOMIC,HF,lure,-,-,-,conservative,no,m,1,1.89288906381,3,221
9,001,1,recog,31,LOVELIEST,LF,lure,-,-,-,liberal,no,m,1,0.74662666244,1,222
9,001,1,recog,32,TIMES,HF,lure,-,-,-,liberal,no,m,1,0.733378572622,1,223
9,001,1,recog,33,DRINK,HF,target,right,yellow,imageability,conservative,no,z,1,0.600059243734,1,224
9,001,1,recog,34,URBANE,LF,target,left,aqua,pleasantness,liberal,no,z,1,0.746617130702,3,227
9,001,1,recog,35,VARIOUS,HF,lure,-,-,-,conservative,no,m,1,2.07948853879,3,230
9,001,1,recog,36,GAUCHE,LF,target,right,yellow,imageability,liberal,no,z,1,1.29312860512,3,233
9,001,1,recog,37,PIVOT,LF,target,right,yellow,imageability,conservative,no,z,1,0.506797633483,1,234
9,001,1,recog,38,HIMSELF,HF,target,left,aqua,pleasantness,liberal,no,z,1,0.533410027507,3,237
9,001,1,recog,39,DIGESTING,LF,target,right,yellow,imageability,liberal,no,z,1,0.546871849452,3,240
9,001,1,recog,40,SABLE,LF,target,right,yellow,imageability,conservative,no,z,1,0.706790008,1,241
9,001,1,recog,41,TULIPS,LF,lure,-,-,-,liberal,no,m,1,0.840001187753,1,242
9,001,1,recog,42,TOXICITY,LF,target,left,aqua,pleasantness,liberal,no,z,1,0.839951329282,3,245
9,001,1,recog,43,HOMESTEAD,LF,lure,-,-,-,conservative,no,m,1,1.18646932929,3,248
9,001,1,recog,44,SAGES,LF,lure,-,-,-,liberal,no,m,1,1.2930926776,1,249
9,001,1,recog,45,CAKED,LF,lure,-,-,-,liberal,no,m,1,0.666693795589,1,250
9,001,1,recog,46,WRITE,HF,lure,-,-,-,conservative,no,m,1,0.480136114056,3,253
9,001,1,recog,47,LETTER,HF,target,left,aqua,pleasantness,liberal,no,z,1,0.600090405438,3,256
9,001,1,recog,48,PEGGED,LF,lure,-,-,-,liberal,no,m,1,2.0927545923,1,257
9,001,1,recog,49,NEGATION,LF,lure,-,-,-,liberal,no,m,1,0.773279383429,1,258
9,001,1,recog,50,ITSELF,HF,lure,-,-,-,conservative,no,m,1,0.560115539934,3,261
9,001,1,recog,51,USING,HF,lure,-,-,-,conservative,no,m,1,0.626691434649,3,264
9,001,1,recog,52,TOWARDS,HF,target,left,aqua,pleasantness,conservative,no,z,1,0.520017127972,1,265
9,001,1,recog,53,LIMELIGHT,LF,target,left,aqua,pleasantness,conservative,yes,m,0,0.653484199545,-1,264
9,001,1,recog,54,PERHAPS,HF,lure,-,-,-,conservative,no,m,1,2.33248060464,3,267
9,001,1,recog,55,AUGMENT,LF,lure,-,-,-,conservative,no,m,1,0.706648497609,3,270
9,001,1,recog,56,PRUDENTLY,LF,target,left,aqua,pleasantness,conservative,no,z,1,0.533419192769,1,271
9,001,1,recog,57,WESTERN,HF,lure,-,-,-,conservative,no,m,1,0.600216518273,3,274
9,001,1,recog,58,ONCOMING,LF,target,right,yellow,imageability,conservative,no,z,1,1.23977110512,1,275
9,001,1,recog,59,BUILDING,HF,target,left,aqua,pleasantness,liberal,yes,z,1,1.50610144611,3,278
9,001,1,recog,60,DIVAN,LF,lure,-,-,-,conservative,no,m,1,1.4794934513,3,281
9,001,1,recog,61,ASCEND,LF,lure,-,-,-,conservative,no,m,1,1.43984523299,3,284
9,001,1,recog,62,RAIDER,LF,target,right,yellow,imageability,conservative,no,z,1,0.600147229503,1,285
9,001,1,recog,63,PASSED,HF,target,right,yellow,imageability,liberal,no,z,1,0.626527194516,3,288
9,001,1,recog,64,ENOUGH,HF,lure,-,-,-,conservative,no,m,1,1.03988907929,3,291
9,001,1,recog,65,VEILING,LF,lure,-,-,-,conservative,no,m,1,0.733460326097,3,294
9,001,1,recog,66,DIFFERENT,HF,target,right,yellow,imageability,liberal,no,z,1,0.613356825546,3,297
9,001,1,recog,67,MASKING,LF,lure,-,-,-,liberal,no,m,1,0.679982945439,1,298
9,001,1,recog,68,PIECE,HF,target,left,aqua,pleasantness,conservative,no,z,1,0.853317833273,1,299
9,001,1,recog,69,ELUDE,LF,lure,-,-,-,conservative,no,m,1,0.720004736679,3,302
9,001,1,recog,70,ADDED,HF,lure,-,-,-,liberal,no,z,0,0.666447802098,-1,301
9,001,1,recog,71,THING,HF,lure,-,-,-,liberal,no,m,1,2.89256901562,1,302
9,001,1,recog,72,MATERIAL,HF,target,right,yellow,imageability,liberal,no,z,1,2.38614385528,3,305
9,001,1,recog,73,PANACHE,LF,target,left,aqua,pleasantness,liberal,no,z,1,0.613340694807,3,308
9,001,1,recog,74,FUTURE,HF,target,right,yellow,imageability,conservative,no,z,1,0.733117914875,1,309
9,001,1,recog,75,SNAGS,LF,lure,-,-,-,liberal,no,m,1,0.89330552984,1,310
9,001,1,recog,76,EITHER,HF,lure,-,-,-,liberal,no,m,1,0.973283856059,1,311
9,001,1,recog,77,HOSPITAL,HF,target,left,aqua,pleasantness,conservative,no,z,1,0.799727537436,1,312
9,001,1,recog,78,HOBBLE,LF,lure,-,-,-,conservative,no,m,1,0.800039520254,3,315
9,001,1,recog,79,RANGE,HF,target,left,aqua,pleasantness,conservative,no,z,1,0.893335225061,1,316
9,001,1,recog,80,PHYSICAL,HF,target,left,aqua,pleasantness,conservative,no,z,1,0.679974146886,1,317
9,001,1,recog,81,UNABATED,LF,lure,-,-,-,liberal,no,m,1,0.813052981393,1,318
9,001,1,recog,82,ALLOWED,HF,lure,-,-,-,conservative,no,m,1,2.41273278662,3,321
9,001,1,recog,83,AUSPICES,LF,target,left,aqua,pleasantness,conservative,no,z,1,0.720024899929,1,322
9,001,1,recog,84,LIGHT,HF,target,right,yellow,imageability,conservative,no,z,1,0.58668394119,1,323
9,001,1,recog,85,INMATE,LF,lure,-,-,-,conservative,no,m,1,0.800011291518,3,326
9,001,1,recog,86,REPORT,HF,target,left,aqua,pleasantness,liberal,no,z,1,1.95948072278,3,329
9,001,1,recog,87,MEANS,HF,target,left,aqua,pleasantness,liberal,no,z,1,0.600009751739,3,332
9,001,1,recog,88,STRAIGHT,HF,target,right,yellow,imageability,conservative,no,z,1,0.586686507449,1,333
9,001,1,recog,89,PUBLIC,HF,target,left,aqua,pleasantness,conservative,no,z,1,0.640092766378,1,334
9,001,1,recog,90,PURCHASER,LF,target,right,yellow,imageability,conservative,no,z,1,0.640141525073,1,335
9,001,1,recog,91,ZOOLOGY,LF,target,left,aqua,pleasantness,conservative,no,z,1,0.466583740083,1,336
9,001,1,recog,92,OUGHT,HF,target,right,yellow,imageability,liberal,no,z,1,0.946597773815,3,339
9,001,1,recog,93,VILLAGE,HF,lure,-,-,-,liberal,no,m,1,1.05294799968,1,340
9,001,1,recog,94,FRUGAL,LF,target,right,yellow,imageability,liberal,no,z,1,0.799943102524,3,343
9,001,1,recog,95,SOMEONE,HF,target,right,yellow,imageability,liberal,no,z,1,1.46635827655,3,346
9,001,2,source,0,POWER,HF,target,left,aqua,pleasantness,conservative,no,1,1,4.05200178607,-,-
9,001,2,source,1,WATCH,HF,target,right,yellow,imageability,conservative,no,9,1,2.98587425216,-,-
9,001,2,source,2,ERUDITE,LF,target,left,aqua,pleasantness,liberal,no,1,1,1.98624525883,-,-
9,001,2,source,3,SUNBURN,LF,target,right,yellow,imageability,conservative,no,9,1,0.799817356165,-,-
9,001,2,source,4,CHOICE,HF,target,left,aqua,pleasantness,conservative,no,1,1,1.58630523586,-,-
9,001,2,source,5,CITES,LF,target,left,aqua,pleasantness,liberal,no,1,1,0.733389937552,-,-
9,001,2,source,6,ALONE,HF,target,right,yellow,imageability,conservative,no,9,1,1.00001686392,-,-
9,001,2,source,7,PIRACY,LF,target,left,aqua,pleasantness,conservative,no,1,1,0.853361459449,-,-
9,001,2,source,8,DISARMED,LF,target,right,yellow,imageability,liberal,no,9,1,1.06653043546,-,-
9,001,2,source,9,GENERAL,HF,target,right,yellow,imageability,liberal,no,None,-1,-1,-,-
9,001,2,source,10,CABLED,LF,target,right,yellow,imageability,liberal,no,9,1,1.74626995355,-,-
9,001,2,source,11,MIDDLE,HF,target,left,aqua,pleasantness,liberal,no,1,1,1.37274545641,-,-
9,001,2,source,12,ERSTWHILE,LF,target,left,aqua,pleasantness,conservative,no,1,1,1.55948277563,-,-
9,001,2,source,13,SPOKE,HF,target,left,aqua,pleasantness,liberal,no,1,1,1.19983619987,-,-
9,001,2,source,14,HYSTERICS,LF,target,left,aqua,pleasantness,liberal,no,1,1,0.786456717993,-,-
9,001,2,source,15,OUSTED,LF,target,left,aqua,pleasantness,liberal,no,1,1,2.11925297161,-,-
9,001,2,source,16,MYSELF,HF,target,right,yellow,imageability,liberal,no,9,1,1.25313394296,-,-
9,001,2,source,17,JOCKEYS,LF,target,right,yellow,imageability,conservative,no,9,1,0.613441145164,-,-
9,001,2,source,18,RAFTERS,LF,target,right,yellow,imageability,liberal,no,9,1,0.47994437837,-,-
9,001,2,source,19,INROADS,LF,target,right,yellow,imageability,liberal,no,9,1,0.773395231343,-,-
9,001,2,source,20,WRONG,HF,target,right,yellow,imageability,liberal,no,9,1,1.74625308951,-,-
9,001,2,source,21,SAYING,HF,target,right,yellow,imageability,conservative,no,9,1,1.31981285429,-,-
9,001,2,source,22,WHETHER,HF,target,right,yellow,imageability,liberal,no,9,1,0.639875368099,-,-
9,001,2,source,23,CENTRAL,HF,target,right,yellow,imageability,conservative,no,9,1,0.586547196726,-,-
9,001,2,source,24,PAYOFF,LF,target,left,aqua,pleasantness,liberal,no,1,1,1.05327208061,-,-
9,001,2,source,25,MYRIADS,LF,target,left,aqua,pleasantness,conservative,no,1,1,0.906604211428,-,-
9,001,2,source,26,POUNDS,HF,target,left,aqua,pleasantness,conservative,no,1,1,0.799783628318,-,-
9,001,2,source,27,BENIGNLY,LF,target,right,yellow,imageability,conservative,no,9,1,0.759871086106,-,-
9,001,2,source,28,WICKEDLY,LF,target,left,aqua,pleasantness,conservative,no,1,1,0.626702799462,-,-
9,001,2,source,29,GUESSWORK,LF,target,right,yellow,imageability,conservative,no,9,1,2.66595288215,-,-
9,001,2,source,30,ABOVE,HF,target,right,yellow,imageability,conservative,no,9,1,1.29292330495,-,-
9,001,2,source,31,LESSENED,LF,target,right,yellow,imageability,conservative,no,9,1,1.2262146984,-,-
9,001,2,source,32,UPSTART,LF,target,right,yellow,imageability,liberal,no,9,1,1.26658330008,-,-
9,001,2,source,33,INTEREST,HF,target,left,aqua,pleasantness,conservative,no,1,1,1.55965214828,-,-
9,001,2,source,34,SHORT,HF,target,right,yellow,imageability,liberal,no,9,1,0.813074977719,-,-
9,001,2,source,35,LUMBER,LF,target,left,aqua,pleasantness,liberal,no,1,1,1.83969360427,-,-
9,001,2,source,36,ROWAN,LF,target,right,yellow,imageability,conservative,no,9,1,1.10630366672,-,-
9,001,2,source,37,MITIGATE,LF,target,left,aqua,pleasantness,conservative,no,1,1,1.9995388079,-,-
9,001,2,source,38,WALKED,HF,target,right,yellow,imageability,liberal,no,9,1,1.26624638797,-,-
9,001,2,source,39,MEETING,HF,target,left,aqua,pleasantness,liberal,no,1,1,0.880043142359,-,-
9,001,2,source,40,ENTIRELY,HF,target,left,aqua,pleasantness,liberal,yes,9,0,0.826589957811,-,-
9,001,2,source,41,PLEASE,HF,target,left,aqua,pleasantness,conservative,no,1,1,1.93265019718,-,-
9,001,2,source,42,CHIEF,HF,target,left,aqua,pleasantness,liberal,no,1,1,1.49309311749,-,-
9,001,2,source,43,OBSCURELY,LF,target,right,yellow,imageability,liberal,yes,1,0,0.773279383313,-,-
9,001,2,source,44,HAPPEN,HF,target,right,yellow,imageability,conservative,yes,1,0,0.506730177789,-,-
9,001,2,source,45,OTHERS,HF,target,left,aqua,pleasantness,conservative,yes,9,0,0.626766222529,-,-
9,001,2,source,46,MEDDLE,LF,target,left,aqua,pleasantness,conservative,no,9,0,5.35832788923,-,-
9,001,2,source,47,LIKELY,HF,target,left,aqua,pleasantness,liberal,no,1,1,3.67868552206,-,-
9,001,2,recog,0,PLEASE,HF,target,left,aqua,pleasantness,conservative,no,z,1,1.31984474917,1,347
9,001,2,recog,1,CHOICE,HF,target,left,aqua,pleasantness,conservative,no,z,1,0.520038024522,1,348
9,001,2,recog,2,TODAY,HF,lure,-,-,-,conservative,no,m,1,0.906721525709,3,351
9,001,2,recog,3,CRONE,LF,lure,-,-,-,liberal,yes,m,1,0.906692930381,1,352
9,001,2,recog,4,NUMBER,HF,lure,-,-,-,liberal,no,m,1,1.86629646656,1,353
9,001,2,recog,5,DALES,LF,lure,-,-,-,liberal,no,z,0,1.35977158893,-1,352
9,001,2,recog,6,DOING,HF,lure,-,-,-,conservative,no,m,1,0.866370887845,3,355
9,001,2,recog,7,INROADS,LF,target,right,yellow,imageability,liberal,no,z,1,0.733343378408,3,358
9,001,2,recog,8,PIRACY,LF,target,left,aqua,pleasantness,conservative,no,z,1,0.560154767008,1,359
9,001,2,recog,9,SUNBURN,LF,target,right,yellow,imageability,conservative,no,z,1,0.533532107831,1,360
9,001,2,recog,10,GENERAL,HF,target,right,yellow,imageability,liberal,no,z,1,0.573416054598,3,363
9,001,2,recog,11,HYSTERICS,LF,target,left,aqua,pleasantness,liberal,no,z,1,0.493426363566,3,366
9,001,2,recog,12,MYSELF,HF,target,right,yellow,imageability,liberal,no,z,1,0.480084788869,3,369
9,001,2,recog,13,FOUND,HF,lure,-,-,-,liberal,no,m,1,1.46647045843,1,370
9,001,2,recog,14,DYNAMISM,LF,lure,-,-,-,liberal,no,m,1,0.773383499938,1,371
9,001,2,recog,15,UPSTART,LF,target,right,yellow,imageability,liberal,no,z,1,0.626746425754,3,374
9,001,2,recog,16,AIDING,LF,lure,-,-,-,liberal,no,m,1,1.21317117556,1,375
9,001,2,recog,17,CONCERNED,HF,lure,-,-,-,liberal,no,m,1,1.25320873084,1,376
9,001,2,recog,18,ROCKER,LF,lure,-,-,-,conservative,no,m,1,1.27976136794,3,379
9,001,2,recog,19,CITES,LF,target,left,aqua,pleasantness,liberal,no,z,1,0.626703899354,3,382
9,001,2,recog,20,ABBOT,LF,lure,-,-,-,conservative,no,m,1,0.693379511125,3,385
9,001,2,recog,21,HAPPEN,HF,target,right,yellow,imageability,conservative,no,z,1,0.799931737711,1,386
9,001,2,recog,22,ALONE,HF,target,right,yellow,imageability,conservative,no,z,1,0.53341955936,1,387
9,001,2,recog,23,MYRIADS,LF,target,left,aqua,pleasantness,conservative,no,z,1,1.14666896896,1,388
9,001,2,recog,24,APPEARED,HF,lure,-,-,-,conservative,no,m,1,1.65292915609,3,391
9,001,2,recog,25,OTHERS,HF,target,left,aqua,pleasantness,conservative,no,z,1,0.906636106316,1,392
9,001,2,recog,26,UGLIEST,LF,lure,-,-,-,liberal,no,m,1,0.919914624421,1,393
9,001,2,recog,27,LOANED,LF,lure,-,-,-,liberal,no,m,1,0.98652717995,1,394
9,001,2,recog,28,PAYOFF,LF,target,left,aqua,pleasantness,liberal,no,z,1,0.533366401331,3,397
9,001,2,recog,29,KRONOR,LF,lure,-,-,-,conservative,no,m,1,0.826592523954,3,400
9,001,2,recog,30,GUESSWORK,LF,target,right,yellow,imageability,conservative,no,z,1,1.10652876366,1,401
9,001,2,recog,31,LULLED,LF,lure,-,-,-,conservative,no,m,1,0.853059741552,3,404
9,001,2,recog,32,PAGANISM,LF,lure,-,-,-,conservative,no,z,0,0.53348078276,-3,401
9,001,2,recog,33,WALKED,HF,target,right,yellow,imageability,liberal,no,z,1,1.58640605293,3,404
9,001,2,recog,34,ZEALOTS,LF,lure,-,-,-,conservative,no,m,1,0.90660457802,3,407
9,001,2,recog,35,MITIGATE,LF,target,left,aqua,pleasantness,conservative,no,z,1,0.653405378922,1,408
9,001,2,recog,36,MEETING,HF,target,left,aqua,pleasantness,liberal,no,z,1,0.946624902776,3,411
9,001,2,recog,37,NOURISH,LF,lure,-,-,-,conservative,no,m,1,0.746632894734,3,414
9,001,2,recog,38,MIDDLE,HF,target,left,aqua,pleasantness,liberal,no,z,1,2.3460205138,3,417
9,001,2,recog,39,NAIVELY,LF,lure,-,-,-,conservative,no,m,1,0.919947619084,3,420
9,001,2,recog,40,PATCHY,LF,lure,-,-,-,liberal,no,m,1,3.53207631002,1,421
9,001,2,recog,41,CHIEF,HF,target,left,aqua,pleasantness,liberal,no,z,1,0.53336566803,3,424
9,001,2,recog,42,ATTACK,HF,lure,-,-,-,liberal,yes,z,0,0.879980452475,-1,423
9,001,2,recog,43,ROWAN,LF,target,right,yellow,imageability,conservative,no,z,1,1.11983551062,1,424
9,001,2,recog,44,CABLED,LF,target,right,yellow,imageability,liberal,no,z,1,0.733173272456,3,427
9,001,2,recog,45,OBSCURELY,LF,target,right,yellow,imageability,liberal,no,z,1,0.81334846688,3,430
9,001,2,recog,46,WRONG,HF,target,right,yellow,imageability,liberal,no,z,1,1.13326727063,3,433
9,001,2,recog,47,POWER,HF,target,left,aqua,pleasantness,conservative,no,z,1,0.520205564098,1,434
9,001,2,recog,48,SHORT,HF,target,right,yellow,imageability,liberal,no,z,1,0.840083307936,3,437
9,001,2,recog,49,IMPORTANT,HF,lure,-,-,-,liberal,no,m,1,1.11963131034,1,438
9,001,2,recog,50,BENIGNLY,LF,target,right,yellow,imageability,conservative,no,z,1,0.653369451524,1,439
9,001,2,recog,51,JOCKEYS,LF,target,right,yellow,imageability,conservative,no,z,1,0.480147112161,1,440
9,001,2,recog,52,UNDER,HF,lure,-,-,-,liberal,no,m,1,0.74670145032,1,441
9,001,2,recog,53,ALMOST,HF,lure,-,-,-,liberal,yes,m,1,0.773385699489,1,442
9,001,2,recog,54,LOOKED,HF,lure,-,-,-,conservative,no,m,1,1.58634299634,3,445
9,001,2,recog,55,WICKEDLY,LF,target,left,aqua,pleasantness,conservative,no,z,1,0.600076107774,1,446
9,001,2,recog,56,ERUDITE,LF,target,left,aqua,pleasantness,liberal,no,z,1,0.68001190736,3,449
9,001,2,recog,57,ERSTWHILE,LF,target,left,aqua,pleasantness,conservative,no,z,1,0.640112563153,1,450
9,001,2,recog,58,DWARFED,LF,lure,-,-,-,liberal,no,m,1,0.866604416631,1,451
9,001,2,recog,59,RAFTERS,LF,target,right,yellow,imageability,liberal,no,z,1,1.19987945957,3,454
9,001,2,recog,60,PISTONS,LF,lure,-,-,-,conservative,no,m,1,0.840007053572,3,457
9,001,2,recog,61,ABOVE,HF,target,right,yellow,imageability,conservative,no,z,1,1.78637899726,1,458
9,001,2,recog,62,BILATERAL,LF,lure,-,-,-,liberal,no,m,1,1.01326568692,1,459
9,001,2,recog,63,DISARMED,LF,target,right,yellow,imageability,liberal,no,z,1,0.81304088328,3,462
9,001,2,recog,64,SUPPORT,HF,lure,-,-,-,conservative,no,m,1,0.799936136929,3,465
9,001,2,recog,65,SPOKE,HF,target,left,aqua,pleasantness,liberal,no,z,1,0.613318698364,3,468
9,001,2,recog,66,MEDDLE,LF,target,left,aqua,pleasantness,conservative,no,z,1,0.600018550293,1,469
9,001,2,recog,67,DEGREE,HF,lure,-,-,-,liberal,no,m,1,0.680011174292,1,470
9,001,2,recog,68,ENTIRELY,HF,target,left,aqua,pleasantness,liberal,no,z,1,2.07947607408,3,473
9,001,2,recog,69,PLACE,HF,lure,-,-,-,conservative,no,m,1,1.31975456374,3,476
9,001,2,recog,70,HUSBAND,HF,lure,-,-,-,conservative,no,m,1,0.666694528889,3,479
9,001,2,recog,71,NAPPY,LF,lure,-,-,-,liberal,no,m,1,0.826590324403,1,480
9,001,2,recog,72,WATCH,HF,target,right,yellow,imageability,conservative,no,z,1,0.586437214515,1,481
9,001,2,recog,73,WHETHER,HF,target,right,yellow,imageability,liberal,no,z,1,1.05316429795,3,484
9,001,2,recog,74,GIBBERISH,LF,lure,-,-,-,conservative,no,m,1,0.813267813297,3,487
9,001,2,recog,75,SITTING,HF,lure,-,-,-,liberal,no,m,1,1.71961613267,1,488
9,001,2,recog,76,LESSENED,LF,target,right,yellow,imageability,conservative,no,z,1,0.733413400361,1,489
9,001,2,recog,77,FEELING,HF,lure,-,-,-,conservative,no,m,1,1.25307858526,3,492
9,001,2,recog,78,HIGHER,HF,lure,-,-,-,liberal,no,m,1,0.586776692886,1,493
9,001,2,recog,79,CENTRAL,HF,target,right,yellow,imageability,conservative,no,z,1,0.719985306379,1,494
9,001,2,recog,80,OUSTED,LF,target,left,aqua,pleasantness,liberal,no,z,1,0.640042174608,3,497
9,001,2,recog,81,OPTIC,LF,lure,-,-,-,liberal,no,z,0,0.586811154033,-1,496
9,001,2,recog,82,LUMBER,LF,target,left,aqua,pleasantness,liberal,no,z,1,1.06627600989,3,499
9,001,2,recog,83,FRONT,HF,lure,-,-,-,conservative,no,m,1,1.05318629439,3,502
9,001,2,recog,84,LIKELY,HF,target,left,aqua,pleasantness,liberal,no,z,1,1.9461556453,3,505
9,001,2,recog,85,HOWEVER,HF,lure,-,-,-,conservative,no,m,1,0.746616764111,3,508
9,001,2,recog,86,FREEDOM,HF,lure,-,-,-,liberal,yes,m,1,0.600034314441,1,509
9,001,2,recog,87,ANYONE,HF,lure,-,-,-,conservative,no,m,1,1.59941548121,3,512
9,001,2,recog,88,DRUDGERY,LF,lure,-,-,-,liberal,no,m,1,0.679824937717,1,513
9,001,2,recog,89,INTEREST,HF,target,left,aqua,pleasantness,conservative,no,z,1,3.02572080505,1,514
9,001,2,recog,90,NIGHT,HF,lure,-,-,-,conservative,no,m,1,0.840018784977,3,517
9,001,2,recog,91,POUNDS,HF,target,left,aqua,pleasantness,conservative,no,z,1,0.759970803279,1,518
9,001,2,recog,92,EGGSHELL,LF,lure,-,-,-,conservative,no,m,1,0.693444400677,3,521
9,001,2,recog,93,SAYING,HF,target,right,yellow,imageability,conservative,no,z,1,1.66642213962,1,522
9,001,2,recog,94,FATHER,HF,lure,-,-,-,liberal,no,m,1,0.626659539877,1,523
9,001,2,recog,95,CAVERN,LF,lure,-,-,-,conservative,no,m,1,0.573370595346,3,526
9,001,3,source,0,DODGED,LF,target,right,yellow,imageability,conservative,no,9,1,3.90555901383,-,-
9,001,3,source,1,REACHED,HF,target,left,aqua,pleasantness,conservative,no,9,0,3.78544891439,-,-
9,001,3,source,2,AMONG,HF,target,right,yellow,imageability,conservative,no,9,1,2.11941171251,-,-
9,001,3,source,3,COPIOUSLY,LF,target,right,yellow,imageability,conservative,no,9,1,2.06588410668,-,-
9,001,3,source,4,WIPERS,LF,target,left,aqua,pleasantness,liberal,no,1,1,0.839755194262,-,-
9,001,3,source,5,MODERN,HF,target,right,yellow,imageability,liberal,no,9,1,1.82632233435,-,-
9,001,3,source,6,BORAX,LF,target,left,aqua,pleasantness,liberal,no,1,1,0.680026571732,-,-
9,001,3,source,7,ACTION,HF,target,right,yellow,imageability,conservative,no,9,1,1.4663366467,-,-
9,001,3,source,8,GIMMICKS,LF,target,right,yellow,imageability,liberal,no,9,1,0.706696523121,-,-
9,001,3,source,9,GADGET,LF,target,left,aqua,pleasantness,conservative,no,1,1,1.23981876392,-,-
9,001,3,source,10,CAUGHT,HF,target,right,yellow,imageability,conservative,no,9,1,1.18639344163,-,-
9,001,3,source,11,AWAITS,LF,target,left,aqua,pleasantness,liberal,no,1,1,1.09314869519,-,-
9,001,3,source,12,PICTURE,HF,target,left,aqua,pleasantness,liberal,yes,1,1,0.826629917952,-,-
9,001,3,source,13,FOLLOWED,HF,target,right,yellow,imageability,conservative,no,9,1,1.98627532064,-,-
9,001,3,source,14,CERTAIN,HF,target,right,yellow,imageability,conservative,yes,9,1,1.54630177503,-,-
9,001,3,source,15,GABLE,LF,target,right,yellow,imageability,liberal,no,9,1,0.999907248304,-,-
9,001,3,source,16,SUCCESS,HF,target,left,aqua,pleasantness,conservative,no,1,1,0.746668822365,-,-
9,001,3,source,17,WAITING,HF,target,right,yellow,imageability,conservative,no,9,1,1.02650167863,-,-
9,001,3,source,18,FIGURE,HF,target,right,yellow,imageability,liberal,no,9,1,0.679988811142,-,-
9,001,3,source,19,CUISINE,LF,target,right,yellow,imageability,liberal,no,9,1,0.493421231047,-,-
9,001,3,source,20,SPEAK,HF,target,left,aqua,pleasantness,conservative,no,1,1,1.59941768087,-,-
9,001,3,source,21,DAILIES,LF,target,right,yellow,imageability,conservative,no,9,1,0.973238763283,-,-
9,001,3,source,22,RESEARCH,HF,target,left,aqua,pleasantness,liberal,yes,9,0,0.906723725493,-,-
9,001,3,source,23,PEPPERED,LF,target,left,aqua,pleasantness,conservative,no,1,1,2.46578380279,-,-
9,001,3,source,24,TAGGED,LF,target,left,aqua,pleasantness,conservative,no,1,1,1.75964818895,-,-
9,001,3,source,25,PUMPKIN,LF,target,left,aqua,pleasantness,conservative,no,1,1,0.680035003694,-,-
9,001,3,source,26,PRYING,LF,target,left,aqua,pleasantness,liberal,no,1,1,0.959664392984,-,-
9,001,3,source,27,OXIDE,LF,target,right,yellow,imageability,liberal,no,9,1,0.839808352408,-,-
9,001,3,source,28,PAPER,HF,target,left,aqua,pleasantness,liberal,no,1,1,0.800034021144,-,-
9,001,3,source,29,ARDENTLY,LF,target,right,yellow,imageability,conservative,no,9,1,1.85285334173,-,-
9,001,3,source,30,DOCTOR,HF,target,left,aqua,pleasantness,conservative,no,1,1,0.733173639164,-,-
9,001,3,source,31,AUBURN,LF,target,right,yellow,imageability,conservative,no,9,1,0.973216766841,-,-
9,001,3,source,32,ISOLATING,LF,target,left,aqua,pleasantness,liberal,no,1,1,6.4910830094,-,-
9,001,3,source,33,MAILBOX,LF,target,right,yellow,imageability,conservative,no,9,1,0.879778451868,-,-
9,001,3,source,34,LOLLED,LF,target,left,aqua,pleasantness,liberal,yes,9,0,0.826435249415,-,-
9,001,3,source,35,LARGE,HF,target,right,yellow,imageability,liberal,no,9,1,2.47928668477,-,-
9,001,3,source,36,SCHOOL,HF,target,left,aqua,pleasantness,liberal,no,1,1,0.666838238947,-,-
9,001,3,source,37,URCHIN,LF,target,right,yellow,imageability,liberal,no,9,1,0.972978472011,-,-
9,001,3,source,38,COMES,HF,target,left,aqua,pleasantness,liberal,no,1,1,1.25320103206,-,-
9,001,3,source,39,WOBBLE,LF,target,left,aqua,pleasantness,conservative,no,1,1,0.839964527171,-,-
9,001,3,source,40,UNCANNILY,LF,target,right,yellow,imageability,liberal,no,9,1,1.22650615138,-,-
9,001,3,source,41,CORNER,HF,target,left,aqua,pleasantness,conservative,no,1,1,3.23897153442,-,-
9,001,3,source,42,ENERGY,HF,target,left,aqua,pleasantness,conservative,no,1,1,1.10658375476,-,-
9,001,3,source,43,GREATER,HF,target,right,yellow,imageability,liberal,no,1,0,2.90593771928,-,-
9,001,3,source,44,ALREADY,HF,target,right,yellow,imageability,liberal,no,9,1,1.55963601766,-,-
9,001,3,source,45,TERMS,HF,target,left,aqua,pleasantness,liberal,no,1,1,1.93281920312,-,-
9,001,3,source,46,KIBBUTZIM,LF,target,left,aqua,pleasantness,conservative,no,1,1,0.746708782506,-,-
9,001,3,source,47,CANNOT,HF,target,right,yellow,imageability,liberal,no,1,0,2.17255364743,-,-
9,001,3,recog,0,BELIEVE,HF,lure,-,-,-,conservative,no,z,0,4.82514625799,-3,523
9,001,3,recog,1,UNFAILING,LF,lure,-,-,-,liberal,no,m,1,0.87967983447,1,524
9,001,3,recog,2,CAUGHT,HF,target,right,yellow,imageability,conservative,no,z,1,0.693471896229,1,525
9,001,3,recog,3,CUISINE,LF,target,right,yellow,imageability,liberal,no,z,1,0.826472276705,3,528
9,001,3,recog,4,FOLLOWED,HF,target,right,yellow,imageability,conservative,no,z,1,2.13276905124,1,529
9,001,3,recog,5,ALIAS,LF,lure,-,-,-,liberal,no,m,1,0.600062909885,1,530
9,001,3,recog,6,PICTURE,HF,target,left,aqua,pleasantness,liberal,no,z,1,0.919935521088,3,533
9,001,3,recog,7,KIMONO,LF,lure,-,-,-,liberal,no,m,1,0.693291525473,1,534
9,001,3,recog,8,SKATES,LF,lure,-,-,-,conservative,no,m,1,0.919938820531,3,537
9,001,3,recog,9,CAPITAL,HF,lure,-,-,-,liberal,no,m,1,2.7326552564,1,538
9,001,3,recog,10,LUSCIOUS,LF,lure,-,-,-,liberal,no,m,1,0.586742965039,1,539
9,001,3,recog,11,DODGED,LF,target,right,yellow,imageability,conservative,no,z,1,1.34649673686,1,540
9,001,3,recog,12,GULLIBLE,LF,lure,-,-,-,conservative,no,m,1,0.813278078334,3,543
9,001,3,recog,13,DUSTER,LF,lure,-,-,-,liberal,no,m,1,1.079986025,1,544
9,001,3,recog,14,AHEAD,HF,lure,-,-,-,liberal,no,m,1,1.23976743896,1,545
9,001,3,recog,15,ALREADY,HF,target,right,yellow,imageability,liberal,no,z,1,0.986597935203,3,548
9,001,3,recog,16,DUNGEON,LF,lure,-,-,-,conservative,no,m,1,0.693302890286,3,551
9,001,3,recog,17,FIGURE,HF,target,right,yellow,imageability,liberal,no,z,1,0.679968281067,3,554
9,001,3,recog,18,URCHIN,LF,target,right,yellow,imageability,liberal,no,z,1,0.506825495628,3,557
9,001,3,recog,19,COPIOUSLY,LF,target,right,yellow,imageability,conservative,no,z,1,0.613349859952,1,558
9,001,3,recog,20,OXIDE,LF,target,right,yellow,imageability,liberal,no,z,1,0.49348648719,3,561
9,001,3,recog,21,KIBBUTZIM,LF,target,left,aqua,pleasantness,conservative,no,z,1,0.520127476659,1,562
9,001,3,recog,22,OLDER,HF,lure,-,-,-,liberal,no,m,1,1.27976210113,1,563
9,001,3,recog,23,PAPER,HF,target,left,aqua,pleasantness,liberal,no,z,1,0.573487176443,3,566
9,001,3,recog,24,PREPARED,HF,lure,-,-,-,conservative,no,m,1,1.02661825984,3,569
9,001,3,recog,25,SLUGS,LF,lure,-,-,-,conservative,no,m,1,0.573376094457,3,572
9,001,3,recog,26,ESTRANGED,LF,lure,-,-,-,conservative,no,m,1,0.613339595031,3,575
9,001,3,recog,27,OBVIOUSLY,HF,lure,-,-,-,conservative,no,m,1,0.679971947218,3,578
9,001,3,recog,28,COMES,HF,target,left,aqua,pleasantness,liberal,no,z,1,0.626563122147,3,581
9,001,3,recog,29,THOUSAND,HF,lure,-,-,-,conservative,yes,m,1,2.02586708136,3,584
9,001,3,recog,30,GADGET,LF,target,left,aqua,pleasantness,conservative,no,z,1,1.82626221085,1,585
9,001,3,recog,31,CARRIED,HF,lure,-,-,-,liberal,no,m,1,1.02655337029,1,586
9,001,3,recog,32,RESEARCH,HF,target,left,aqua,pleasantness,liberal,no,z,1,0.719962943345,3,589
9,001,3,recog,33,GRIEVE,LF,lure,-,-,-,liberal,no,m,1,0.826663279207,1,590
9,001,3,recog,34,GREATER,HF,target,right,yellow,imageability,liberal,no,z,1,0.706746015232,3,593
9,001,3,recog,35,MINISTER,HF,lure,-,-,-,conservative,no,m,1,0.71983866347,3,596
9,001,3,recog,36,MAILBOX,LF,target,right,yellow,imageability,conservative,no,z,1,0.693342117243,1,597
9,001,3,recog,37,ARDENTLY,LF,target,right,yellow,imageability,conservative,no,z,1,0.600063643069,1,598
9,001,3,recog,38,LEVEL,HF,lure,-,-,-,liberal,no,m,1,0.626792618306,1,599
9,001,3,recog,39,DICHOTOMY,LF,lure,-,-,-,conservative,yes,m,1,0.600042746402,3,602
9,001,3,recog,40,ORDER,HF,lure,-,-,-,conservative,no,m,1,2.91915721365,3,605
9,001,3,recog,41,SORRY,HF,lure,-,-,-,conservative,no,m,1,0.733237795532,3,608
9,001,3,recog,42,ARBITER,LF,lure,-,-,-,conservative,no,m,1,0.613363791024,3,611
9,001,3,recog,43,REQUIRED,HF,lure,-,-,-,liberal,no,m,1,0.680002742214,1,612
9,001,3,recog,44,SPACE,HF,lure,-,-,-,liberal,no,m,1,0.800073248101,1,613
9,001,3,recog,45,UNCANNILY,LF,target,right,yellow,imageability,liberal,no,z,1,0.82637292624,3,616
9,001,3,recog,46,BUCKED,LF,lure,-,-,-,liberal,no,m,1,0.653365052189,1,617
9,001,3,recog,47,GIVEN,HF,lure,-,-,-,conservative,no,m,1,0.653372384375,3,620
9,001,3,recog,48,TOILED,LF,lure,-,-,-,liberal,no,m,1,0.760070887278,1,621
9,001,3,recog,49,AVAILABLE,HF,lure,-,-,-,liberal,no,m,1,1.75941539323,1,622
9,001,3,recog,50,WAITING,HF,target,right,yellow,imageability,conservative,yes,m,0,1.10647853836,-1,621
9,001,3,recog,51,IDIOCY,LF,lure,-,-,-,conservative,no,m,1,1.53314130439,3,624
9,001,3,recog,52,LOLLED,LF,target,left,aqua,pleasantness,liberal,no,z,1,0.80004208663,3,627
9,001,3,recog,53,GIMMICKS,LF,target,right,yellow,imageability,liberal,no,z,1,0.493386036833,3,630
9,001,3,recog,54,WHATEVER,HF,lure,-,-,-,conservative,no,m,1,0.693481427967,3,633
9,001,3,recog,55,DOCTOR,HF,target,left,aqua,pleasantness,conservative,no,z,1,0.50673970941,1,634
9,001,3,recog,56,ACTION,HF,target,right,yellow,imageability,conservative,no,z,1,1.02650424489,1,635
9,001,3,recog,57,CANNOT,HF,target,right,yellow,imageability,liberal,no,z,1,0.57335519779,3,638
9,001,3,recog,58,INDEED,HF,lure,-,-,-,conservative,no,m,1,0.906601645169,3,641
9,001,3,recog,59,QUICKLY,HF,lure,-,-,-,conservative,no,m,1,0.946591541404,3,644
9,001,3,recog,60,UNHEEDED,LF,lure,-,-,-,liberal,no,m,1,1.18627539393,1,645
9,001,3,recog,61,EAVES,LF,lure,-,-,-,liberal,no,m,1,0.546732905321,1,646
9,001,3,recog,62,DAILIES,LF,target,right,yellow,imageability,conservative,no,z,1,0.600115334732,1,647
9,001,3,recog,63,FLUFF,LF,lure,-,-,-,conservative,no,m,1,0.706738683046,3,650
9,001,3,recog,64,AUBURN,LF,target,right,yellow,imageability,conservative,no,z,1,0.573472145596,1,651
9,001,3,recog,65,CASES,HF,lure,-,-,-,liberal,no,m,1,1.83931049961,1,652
9,001,3,recog,66,SUDDENLY,HF,lure,-,-,-,liberal,no,m,1,2.93247349246,1,653
9,001,3,recog,67,CORNER,HF,target,left,aqua,pleasantness,conservative,no,z,1,0.946595207555,1,654
9,001,3,recog,68,ISOLATING,LF,target,left,aqua,pleasantness,liberal,no,z,1,0.546566832112,3,657
9,001,3,recog,69,AMONG,HF,target,right,yellow,imageability,conservative,no,z,1,1.09324511304,1,658
9,001,3,recog,70,ARTIFACTS,LF,lure,-,-,-,conservative,no,m,1,0.640037041972,3,661
9,001,3,recog,71,PRYING,LF,target,left,aqua,pleasantness,liberal,no,z,1,0.520032892004,3,664
9,001,3,recog,72,DUPLICITY,LF,lure,-,-,-,liberal,no,m,1,1.33286737534,1,665
9,001,3,recog,73,CERTAIN,HF,target,right,yellow,imageability,conservative,no,z,1,1.719413399,1,666
9,001,3,recog,74,TERMS,HF,target,left,aqua,pleasantness,liberal,no,z,1,0.640054272604,3,669
9,001,3,recog,75,LARGE,HF,target,right,yellow,imageability,liberal,no,z,1,0.520101814298,3,672
9,001,3,recog,76,PUMPKIN,LF,target,left,aqua,pleasantness,conservative,no,z,1,0.480171674863,1,673
9,001,3,recog,77,REACHED,HF,target,left,aqua,pleasantness,conservative,no,z,1,1.25313687581,1,674
9,001,3,recog,78,WOMAN,HF,lure,-,-,-,conservative,no,m,1,0.813142433646,3,677
9,001,3,recog,79,BORAX,LF,target,left,aqua,pleasantness,liberal,no,z,1,0.72000363667,3,680
9,001,3,recog,80,TAGGED,LF,target,left,aqua,pleasantness,conservative,no,z,1,0.919932954828,1,681
9,001,3,recog,81,GABLE,LF,target,right,yellow,imageability,liberal,no,z,1,0.493383470573,3,684
9,001,3,recog,82,SIDED,LF,lure,-,-,-,liberal,no,m,1,1.62636258779,1,685
9,001,3,recog,83,SCHOOL,HF,target,left,aqua,pleasantness,liberal,no,z,1,2.06617445964,3,688
9,001,3,recog,84,PEPPERED,LF,target,left,aqua,pleasantness,conservative,no,z,1,0.680016306695,1,689
9,001,3,recog,85,ENSCONCED,LF,lure,-,-,-,conservative,yes,z,0,0.893304063473,-3,686
9,001,3,recog,86,HOURS,HF,lure,-,-,-,liberal,no,m,1,1.98619503365,1,687
9,001,3,recog,87,ENERGY,HF,target,left,aqua,pleasantness,conservative,no,z,1,1.78626644879,1,688
9,001,3,recog,88,JELLIES,LF,lure,-,-,-,conservative,no,m,1,0.799985629041,3,691
9,001,3,recog,89,AWAITS,LF,target,left,aqua,pleasantness,liberal,no,z,1,1.19988532527,3,694
9,001,3,recog,90,SUCCESS,HF,target,left,aqua,pleasantness,conservative,no,z,1,0.573278943542,1,695
9,001,3,recog,91,AROUND,HF,lure,-,-,-,liberal,no,z,0,0.680095127318,-1,694
9,001,3,recog,92,WOBBLE,LF,target,left,aqua,pleasantness,conservative,no,z,1,0.693446233752,1,695
9,001,3,recog,93,SPEAK,HF,target,left,aqua,pleasantness,conservative,no,z,1,1.78631264123,1,696
9,001,3,recog,94,WIPERS,LF,target,left,aqua,pleasantness,liberal,no,z,1,0.586677708896,3,699
9,001,3,recog,95,MODERN,HF,target,right,yellow,imageability,liberal,no,z,1,0.613368190359,3,702
9,001,4,source,0,DEBACLE,LF,target,left,aqua,pleasantness,liberal,no,1,1,4.31830536481,-,-
9,001,4,source,1,MAVIS,LF,target,right,yellow,imageability,conservative,no,9,1,2.62592889136,-,-
9,001,4,source,2,JUROR,LF,target,right,yellow,imageability,liberal,no,9,1,1.01322279393,-,-
9,001,4,source,3,TUMBLER,LF,target,left,aqua,pleasantness,liberal,no,1,1,2.03957636328,-,-
9,001,4,source,4,BOOKS,HF,target,right,yellow,imageability,liberal,no,9,1,1.26629184722,-,-
9,001,4,source,5,USELESSLY,LF,target,right,yellow,imageability,conservative,no,9,1,0.746418062947,-,-
9,001,4,source,6,STAFF,HF,target,left,aqua,pleasantness,conservative,no,1,1,0.773383499938,-,-
9,001,4,source,7,LANGUAGE,HF,target,right,yellow,imageability,liberal,no,9,1,2.34576462198,-,-
9,001,4,source,8,TAPER,LF,target,left,aqua,pleasantness,liberal,no,1,1,1.18651368876,-,-
9,001,4,source,9,THANK,HF,target,left,aqua,pleasantness,liberal,no,1,1,0.759997932357,-,-
9,001,4,source,10,OBESE,LF,target,right,yellow,imageability,conservative,no,9,1,0.933272329858,-,-
9,001,4,source,11,TINGLING,LF,target,left,aqua,pleasantness,conservative,no,1,1,0.919971082127,-,-
9,001,4,source,12,RUNNING,HF,target,left,aqua,pleasantness,conservative,no,1,1,1.30640785652,-,-
9,001,4,source,13,VEXED,LF,target,right,yellow,imageability,liberal,no,9,1,0.746675787843,-,-
9,001,4,source,14,COILING,LF,target,right,yellow,imageability,liberal,no,9,1,0.653414910892,-,-
9,001,4,source,15,ROSEBUD,LF,target,left,aqua,pleasantness,liberal,no,1,1,0.640094966046,-,-
9,001,4,source,16,APART,HF,target,left,aqua,pleasantness,conservative,yes,9,0,0.866399483173,-,-
9,001,4,source,17,RATHER,HF,target,right,yellow,imageability,liberal,no,1,0,4.13196214847,-,-
9,001,4,source,18,ZIPPED,LF,target,right,yellow,imageability,liberal,no,9,1,0.773461587261,-,-
9,001,4,source,19,CESSATION,LF,target,right,yellow,imageability,conservative,no,9,1,0.693379511125,-,-
9,001,4,source,20,PRIVATE,HF,target,right,yellow,imageability,conservative,no,9,1,0.706473625847,-,-
9,001,4,source,21,TEMERITY,LF,target,right,yellow,imageability,conservative,no,9,1,0.933365448145,-,-
9,001,4,source,22,JEERED,LF,target,left,aqua,pleasantness,conservative,no,1,1,1.09315529419,-,-
9,001,4,source,23,SLEEP,HF,target,left,aqua,pleasantness,liberal,no,1,1,0.679932720261,-,-
9,001,4,source,24,WARDROBES,LF,target,left,aqua,pleasantness,conservative,yes,1,1,1.47968921962,-,-
9,001,4,source,25,ALTHOUGH,HF,target,right,yellow,imageability,conservative,no,9,1,2.07952556619,-,-
9,001,4,source,26,FORCE,HF,target,right,yellow,imageability,conservative,no,9,1,1.50642369397,-,-
9,001,4,source,27,AFTERNOON,HF,target,right,yellow,imageability,liberal,no,9,1,0.680146452272,-,-
9,001,4,source,28,TRUTH,HF,target,right,yellow,imageability,liberal,no,9,1,1.07984671404,-,-
9,001,4,source,29,AREAS,HF,target,left,aqua,pleasantness,conservative,no,1,1,0.800005792407,-,-
9,001,4,source,30,VENDETTA,LF,target,left,aqua,pleasantness,conservative,no,1,1,0.613464241382,-,-
9,001,4,source,31,MARKET,HF,target,left,aqua,pleasantness,liberal,no,1,1,1.54634796758,-,-
9,001,4,source,32,STOOD,HF,target,left,aqua,pleasantness,liberal,no,1,1,1.39973912225,-,-
9,001,4,source,33,FUSELAGE,LF,target,left,aqua,pleasantness,liberal,no,1,1,0.760005631018,-,-
9,001,4,source,34,WITHIN,HF,target,left,aqua,pleasantness,conservative,no,1,1,0.760123678716,-,-
9,001,4,source,35,HUNDRED,HF,target,left,aqua,pleasantness,conservative,no,1,1,0.65315388632,-,-
9,001,4,source,36,HAVING,HF,target,right,yellow,imageability,conservative,no,9,1,1.74639569991,-,-
9,001,4,source,37,SYSTEM,HF,target,right,yellow,imageability,conservative,no,9,1,0.733021130553,-,-
9,001,4,source,38,ANEMONES,LF,target,right,yellow,imageability,liberal,no,9,1,0.560075579793,-,-
9,001,4,source,39,STICKER,LF,target,left,aqua,pleasantness,liberal,no,9,0,0.680074230651,-,-
9,001,4,source,40,ARGUABLE,LF,target,left,aqua,pleasantness,conservative,no,1,1,4.39857221104,-,-
9,001,4,source,41,WEEKS,HF,target,right,yellow,imageability,liberal,no,9,1,2.46595647489,-,-
9,001,4,source,42,AMICABLY,LF,target,left,aqua,pleasantness,conservative,no,1,1,1.18630398938,-,-
9,001,4,source,43,SERIOUS,HF,target,left,aqua,pleasantness,liberal,yes,1,1,0.69334138406,-,-
9,001,4,source,44,DIPLOMAS,LF,target,right,yellow,imageability,conservative,no,9,1,2.54596779577,-,-
9,001,4,source,45,IRISES,LF,target,right,yellow,imageability,liberal,no,9,1,1.06654619949,-,-
9,001,4,source,46,ANIMAL,HF,target,right,yellow,imageability,conservative,no,9,1,0.613380288356,-,-
9,001,4,source,47,UNION,HF,target,left,aqua,pleasantness,liberal,yes,9,0,0.46653204842,-,-
9,001,4,recog,0,GUSHED,LF,lure,-,-,-,conservative,no,m,1,2.30593859917,3,705
9,001,4,recog,1,KERNEL,LF,lure,-,-,-,liberal,no,m,1,0.866622747038,1,706
9,001,4,recog,2,IDOLATRY,LF,lure,-,-,-,conservative,no,m,1,0.666684263735,3,709
9,001,4,recog,3,TRUTH,HF,target,right,yellow,imageability,liberal,no,z,1,0.60001598415,3,712
9,001,4,recog,4,GOADED,LF,lure,-,-,-,conservative,no,z,0,1.78626571561,-3,709
9,001,4,recog,5,PIQUE,LF,lure,-,-,-,liberal,no,m,1,0.839968559798,1,710
9,001,4,recog,6,LUNACY,LF,lure,-,-,-,liberal,no,m,1,0.719898053794,1,711
9,001,4,recog,7,HAVING,HF,target,right,yellow,imageability,conservative,no,z,1,0.599887671415,1,712
9,001,4,recog,8,TAPER,LF,target,left,aqua,pleasantness,liberal,no,z,1,0.786697579082,3,715
9,001,4,recog,9,LATER,HF,lure,-,-,-,conservative,no,m,1,0.666664467077,3,718
9,001,4,recog,10,FLOOR,HF,lure,-,-,-,liberal,no,m,1,0.973074889858,1,719
9,001,4,recog,11,TEMERITY,LF,target,right,yellow,imageability,conservative,no,z,1,0.773382033454,1,720
9,001,4,recog,12,TROUBLE,HF,lure,-,-,-,liberal,no,m,1,2.0662635453,1,721
9,001,4,recog,13,MARKET,HF,target,left,aqua,pleasantness,liberal,no,z,1,0.906614476466,3,724
9,001,4,recog,14,TAVERNS,LF,lure,-,-,-,conservative,no,m,1,0.906569383689,3,727
9,001,4,recog,15,DIPLOMAS,LF,target,right,yellow,imageability,conservative,no,z,1,1.06655023224,1,728
9,001,4,recog,16,MERELY,HF,lure,-,-,-,liberal,no,m,1,0.959814701928,1,729
9,001,4,recog,17,AMICABLY,LF,target,left,aqua,pleasantness,conservative,no,z,1,0.81342325476,1,730
9,001,4,recog,18,AFTERNOON,HF,target,right,yellow,imageability,liberal,no,z,1,0.826642749249,3,733
9,001,4,recog,19,PRIVATE,HF,target,right,yellow,imageability,conservative,no,z,1,0.560231021256,1,734
9,001,4,recog,20,CLASS,HF,lure,-,-,-,conservative,no,m,1,0.880000249366,3,737
9,001,4,recog,21,BEYOND,HF,lure,-,-,-,liberal,no,m,1,1.14653075801,1,738
9,001,4,recog,22,ANEMONES,LF,target,right,yellow,imageability,liberal,no,z,1,0.560180796077,3,741
9,001,4,recog,23,AMULETS,LF,lure,-,-,-,liberal,no,m,1,1.2131015202,1,742
9,001,4,recog,24,THANK,HF,target,left,aqua,pleasantness,liberal,no,z,1,0.533437523176,3,745
9,001,4,recog,25,DOUBT,HF,lure,-,-,-,conservative,no,m,1,1.22648305504,3,748
9,001,4,recog,26,TUSKS,LF,lure,-,-,-,liberal,no,m,1,0.759968603728,1,749
9,001,4,recog,27,FUSELAGE,LF,target,left,aqua,pleasantness,liberal,no,z,1,0.639821843477,3,752
9,001,4,recog,28,EDUCATION,HF,lure,-,-,-,liberal,no,m,1,0.919892994687,1,753
9,001,4,recog,29,DEBACLE,LF,target,left,aqua,pleasantness,liberal,no,z,1,0.613382854615,3,756
9,001,4,recog,30,CESSATION,LF,target,right,yellow,imageability,conservative,no,z,1,0.93326463108,1,757
9,001,4,recog,31,SERIOUS,HF,target,left,aqua,pleasantness,liberal,no,z,1,1.62636772031,3,760
9,001,4,recog,32,YOUNG,HF,lure,-,-,-,liberal,no,m,1,0.74666992214,1,761
9,001,4,recog,33,SEPULCHRE,LF,lure,-,-,-,conservative,no,m,1,0.799925138825,3,764
9,001,4,recog,34,CHURCH,HF,lure,-,-,-,conservative,no,m,1,0.640052072937,3,767
9,001,4,recog,35,COUNCIL,HF,lure,-,-,-,conservative,no,m,1,0.586726834183,3,770
9,001,4,recog,36,RUNNING,HF,target,left,aqua,pleasantness,conservative,yes,m,0,0.506541008363,-1,769
9,001,4,recog,37,TRIED,HF,lure,-,-,-,conservative,no,m,1,0.839659143123,3,772
9,001,4,recog,38,HANDS,HF,lure,-,-,-,liberal,no,m,1,0.613475239719,1,773
9,001,4,recog,39,ARGUABLE,LF,target,left,aqua,pleasantness,conservative,no,z,1,0.600031748298,1,774
9,001,4,recog,40,NESTING,LF,lure,-,-,-,liberal,no,m,1,0.626712697791,1,775
9,001,4,recog,41,LANGUAGE,HF,target,right,yellow,imageability,liberal,no,z,1,0.626477335929,3,778
9,001,4,recog,42,OBESE,LF,target,right,yellow,imageability,conservative,no,z,1,0.94670922251,1,779
9,001,4,recog,43,ROSEBUD,LF,target,left,aqua,pleasantness,liberal,no,z,1,1.37308053556,3,782
9,001,4,recog,44,VEXED,LF,target,right,yellow,imageability,liberal,no,z,1,0.546775431721,3,785
9,001,4,recog,45,FAMILY,HF,lure,-,-,-,conservative,no,m,1,0.760036059422,3,788
9,001,4,recog,46,TUMBLER,LF,target,left,aqua,pleasantness,liberal,no,z,1,0.853377223597,3,791
9,001,4,recog,47,JUDICIOUS,LF,lure,-,-,-,conservative,no,m,1,3.10584760725,3,794
9,001,4,recog,48,RATHER,HF,target,right,yellow,imageability,liberal,no,z,1,1.57299335639,3,797
9,001,4,recog,49,SYSTEM,HF,target,right,yellow,imageability,conservative,no,z,1,0.773299546796,1,798
9,001,4,recog,50,NOSTRIL,LF,lure,-,-,-,liberal,no,m,1,0.746742877061,1,799
9,001,4,recog,51,TURNED,HF,lure,-,-,-,conservative,no,m,1,1.49301759643,3,802
9,001,4,recog,52,EARLIER,HF,lure,-,-,-,conservative,yes,m,1,0.520138108288,3,805
9,001,4,recog,53,SIBLINGS,LF,lure,-,-,-,conservative,no,m,1,1.11986043991,3,808
9,001,4,recog,54,COILING,LF,target,right,yellow,imageability,liberal,no,z,1,1.09326637618,3,811
9,001,4,recog,55,SLEEP,HF,target,left,aqua,pleasantness,liberal,no,z,1,0.573222485953,3,814
9,001,4,recog,56,USELESSLY,LF,target,right,yellow,imageability,conservative,no,z,1,0.519841523026,1,815
9,001,4,recog,57,WEEKS,HF,target,right,yellow,imageability,liberal,no,z,1,0.493459724938,3,818
9,001,4,recog,58,GIRLS,HF,lure,-,-,-,liberal,no,m,1,0.760089217569,1,819
9,001,4,recog,59,DREADING,LF,lure,-,-,-,liberal,no,m,1,1.33294033026,1,820
9,001,4,recog,60,PRACTICE,HF,lure,-,-,-,conservative,no,m,1,0.973343246384,3,823
9,001,4,recog,61,STICKER,LF,target,left,aqua,pleasantness,liberal,no,z,1,0.573385259602,3,826
9,001,4,recog,62,UPROOTED,LF,lure,-,-,-,conservative,no,m,1,0.81333306944,3,829
9,001,4,recog,63,ANIMAL,HF,target,right,yellow,imageability,conservative,no,z,1,0.720013901708,1,830
9,001,4,recog,64,HEEDED,LF,lure,-,-,-,liberal,no,m,1,0.919962650049,1,831
9,001,4,recog,65,VENDETTA,LF,target,left,aqua,pleasantness,conservative,no,z,1,0.546554000932,1,832
9,001,4,recog,66,TINGLING,LF,target,left,aqua,pleasantness,conservative,no,z,1,0.573435118189,1,833
9,001,4,recog,67,WARDROBES,LF,target,left,aqua,pleasantness,conservative,no,z,1,0.600011584698,1,834
9,001,4,recog,68,DURING,HF,lure,-,-,-,liberal,no,m,1,0.879975686665,1,835
9,001,4,recog,69,FINAL,HF,lure,-,-,-,liberal,no,z,0,2.465999368,-1,834
9,001,4,recog,70,HUNDRED,HF,target,left,aqua,pleasantness,conservative,no,z,1,0.626545891515,1,835
9,001,4,recog,71,UNLESS,HF,lure,-,-,-,conservative,yes,z,0,0.64001504553,-3,832
9,001,4,recog,72,JUROR,LF,target,right,yellow,imageability,liberal,no,z,1,2.03945794911,3,835
9,001,4,recog,73,BEAUTIFUL,HF,lure,-,-,-,conservative,no,m,1,0.786413091701,3,838
9,001,4,recog,74,BUGGED,LF,lure,-,-,-,liberal,no,m,1,0.719891088316,1,839
9,001,4,recog,75,OMITTING,LF,lure,-,-,-,conservative,no,m,1,0.693333685282,3,842
9,001,4,recog,76,STAFF,HF,target,left,aqua,pleasantness,conservative,no,z,1,0.68005773332,1,843
9,001,4,recog,77,TICKLE,LF,lure,-,-,-,conservative,no,m,1,1.22649808589,3,846
9,001,4,recog,78,PITCHER,LF,lure,-,-,-,conservative,no,m,1,0.760101315682,3,849
9,001,4,recog,79,STOOD,HF,target,left,aqua,pleasantness,liberal,no,z,1,1.1863457826,3,852
9,001,4,recog,80,CLOSE,HF,lure,-,-,-,liberal,no,m,1,1.1198787702,1,853
9,001,4,recog,81,JEERED,LF,target,left,aqua,pleasantness,conservative,no,z,1,0.759993899614,1,854
9,001,4,recog,82,FORCE,HF,target,right,yellow,imageability,conservative,no,z,1,0.573391858605,1,855
9,001,4,recog,83,APART,HF,target,left,aqua,pleasantness,conservative,no,z,1,0.666678031441,1,856
9,001,4,recog,84,WITHIN,HF,target,left,aqua,pleasantness,conservative,no,z,1,0.586513835355,1,857
9,001,4,recog,85,AREAS,HF,target,left,aqua,pleasantness,conservative,no,z,1,0.560081078904,1,858
9,001,4,recog,86,IRISES,LF,target,right,yellow,imageability,liberal,no,z,1,0.573399190675,3,861
9,001,4,recog,87,HECTOR,LF,lure,-,-,-,liberal,no,m,1,1.03984875244,1,862
9,001,4,recog,88,ZIPPED,LF,target,right,yellow,imageability,liberal,no,z,1,0.520179535029,3,865
9,001,4,recog,89,ALTHOUGH,HF,target,right,yellow,imageability,conservative,no,z,1,1.37313479348,1,866
9,001,4,recog,90,MILES,HF,lure,-,-,-,liberal,no,m,1,0.746672854992,1,867
9,001,4,recog,91,MAVIS,LF,target,right,yellow,imageability,conservative,no,z,1,0.666645036777,1,868
9,001,4,recog,92,UNION,HF,target,left,aqua,pleasantness,liberal,yes,m,0,0.773342439788,-3,865
9,001,4,recog,93,BOOKS,HF,target,right,yellow,imageability,liberal,no,z,1,1.51949581224,3,868
9,001,4,recog,94,PENALIZED,LF,lure,-,-,-,conservative,no,m,1,0.706743448856,3,871
9,001,4,recog,95,JUNCTURE,LF,lure,-,-,-,liberal,no,m,1,0.70671522012,1,872
